CondFileP,InstructionsP,LettersDisplayedP,CorrectnessP,CondFile,Instructions,LettersDisplayed,Correctness,practicetrials.thisRepN,practicetrials.thisTrialN,practicetrials.thisN,practicetrials.thisIndex,InnerLoopPractice.thisRepN,InnerLoopPractice.thisTrialN,InnerLoopPractice.thisN,InnerLoopPractice.thisIndex,trials.thisRepN,trials.thisTrialN,trials.thisN,trials.thisIndex,InnerLoop.thisRepN,InnerLoop.thisTrialN,InnerLoop.thisN,InnerLoop.thisIndex,TaskVersionText.started,TaskVersionText.stopped,InstrKey1.keys,InstrKey1.rt,InstrKey1.started,InstrKey1.stopped,text.started,text.stopped,key_resp_4.keys,key_resp_4.rt,key_resp_4.started,key_resp_4.stopped,text_2.started,text_2.stopped,key_resp_3.keys,key_resp_3.rt,key_resp_3.started,key_resp_3.stopped,text_3.started,text_3.stopped,key_resp_2.keys,key_resp_2.rt,key_resp_2.started,key_resp_2.stopped,PractIn1.started,PractIn1.stopped,PractIn2.started,PractIn2.stopped,PractInstructionPass.keys,PractInstructionPass.rt,PractInstructionPass.started,PractInstructionPass.stopped,PractBlock1.started,PractBlock1.stopped,ISIjitterPractice,ISI_Pract_Fixation.started,ISI_Pract_Fixation.stopped,N_backP.started,N_backP.stopped,KeyPractice.keys,KeyPractice.corr,KeyPractice.rt,KeyPractice.started,KeyPractice.stopped,text_4.started,text_4.stopped,TransitionText.started,TransitionText.stopped,key_resp_6.keys,key_resp_6.rt,key_resp_6.started,key_resp_6.stopped,text_5.started,text_5.stopped,key_resp_5.keys,key_resp_5.rt,key_resp_5.started,key_resp_5.stopped,MainInt1.started,MainInt1.stopped,MainInt2.started,MainInt2.stopped,InstructionPass.keys,InstructionPass.rt,InstructionPass.started,InstructionPass.stopped,Blocks1.started,Blocks1.stopped,ISIjitter,N_backD.started,N_backD.stopped,key_resp.keys,key_resp.corr,key_resp.started,key_resp.stopped,key_resp.rt,participant,Study Name,Task Version (required to run),PRE/POST,date,expName,psychopyVersion,frameRate,
,,,,,,,,,,,,,,,,,,,,,,,,56.974970099981874,None,space,192.39110450004227,57.47128539998084,None,,,,,,,,,,,,,,,,,,,,,,,,,,,,,,,,,,,,,,,,,,,,,,,,,,,,,,,,,,,,,,,,,,,,,,,P030,FENCOG,2,Pre,2022_Mar_11_1127,N-Back (New Version 2021),2021.1.4,119.71531703823763,
,,,,,,,,,,,,,,,,,,,,,,,,,,,,,,249.8963730999967,None,space,7.656586099998094,250.38990760000888,None,,,,,,,,,,,,,,,,,,,,,,,,,,,,,,,,,,,,,,,,,,,,,,,,,,,,,,,,,,,,,,,,,P030,FENCOG,2,Pre,2022_Mar_11_1127,N-Back (New Version 2021),2021.1.4,119.71531703823763,
,,,,,,,,,,,,,,,,,,,,,,,,,,,,,,,,,,,,258.08296739996877,None,space,3.475166199961677,258.57923070003744,None,,,,,,,,,,,,,,,,,,,,,,,,,,,,,,,,,,,,,,,,,,,,,,,,,,,,,,,,,,,P030,FENCOG,2,Pre,2022_Mar_11_1127,N-Back (New Version 2021),2021.1.4,119.71531703823763,
,,,,,,,,,,,,,,,,,,,,,,,,,,,,,,,,,,,,,,,,,,262.09149280004203,None,space,4.716275800019503,262.58621370000765,None,,,,,,,,,,,,,,,,,,,,,,,,,,,,,,,,,,,,,,,,,,,,,,,,,,,,,P030,FENCOG,2,Pre,2022_Mar_11_1127,N-Back (New Version 2021),2021.1.4,119.71531703823763,
Conditions/Version_2Pr/zeroback(1)_v2.xlsx,Rule: Press 'space' when you see the letter 'x' or 'X'.,x,space,,,,,0,0,0,0,0,0,0,0,,,,,,,,,,,,,,,,,,,,,,,,,,,,,,,,,268.7281926999567,None,271.70251630002167,None,space,3.4399807000299916,271.70251630002167,None,268.7281926999567,None,1.715,275.17921979993116,None,276.90283959999215,None,space,1,0.5355665000388399,276.90283959999215,None,277.4544082999928,None,,,,,,,,,,,,,,,,,,,,,,,,,,,,,,,P030,FENCOG,2,Pre,2022_Mar_11_1127,N-Back (New Version 2021),2021.1.4,119.71531703823763,
Conditions/Version_2Pr/zeroback(1)_v2.xlsx,Rule: Press 'space' when you see the letter 'x' or 'X'.,R,None,,,,,0,0,0,0,0,1,1,1,,,,,,,,,,,,,,,,,,,,,,,,,,,,,,,,,,,,,,,,,,,1.415,278.9600509000011,None,280.3830924000358,None,None,1,,280.3830924000358,None,282.3879373000236,None,,,,,,,,,,,,,,,,,,,,,,,,,,,,,,,P030,FENCOG,2,Pre,2022_Mar_11_1127,N-Back (New Version 2021),2021.1.4,119.71531703823763,
Conditions/Version_2Pr/zeroback(1)_v2.xlsx,Rule: Press 'space' when you see the letter 'x' or 'X'.,p,None,,,,,0,0,0,0,0,2,2,2,,,,,,,,,,,,,,,,,,,,,,,,,,,,,,,,,,,,,,,,,,,1.64,283.88770459999796,None,285.53046069992706,None,None,1,,285.53046069992706,None,287.53666889993474,None,,,,,,,,,,,,,,,,,,,,,,,,,,,,,,,P030,FENCOG,2,Pre,2022_Mar_11_1127,N-Back (New Version 2021),2021.1.4,119.71531703823763,
Conditions/Version_2Pr/zeroback(1)_v2.xlsx,Rule: Press 'space' when you see the letter 'x' or 'X'.,O,None,,,,,0,0,0,0,0,3,3,3,,,,,,,,,,,,,,,,,,,,,,,,,,,,,,,,,,,,,,,,,,,1.04,289.0360682000173,None,290.08024409995414,None,None,1,,290.08024409995414,None,292.08528050000314,None,,,,,,,,,,,,,,,,,,,,,,,,,,,,,,,P030,FENCOG,2,Pre,2022_Mar_11_1127,N-Back (New Version 2021),2021.1.4,119.71531703823763,
Conditions/Version_2Pr/zeroback(1)_v2.xlsx,Rule: Press 'space' when you see the letter 'x' or 'X'.,i,None,,,,,0,0,0,0,0,4,4,4,,,,,,,,,,,,,,,,,,,,,,,,,,,,,,,,,,,,,,,,,,,1.215,293.5848019999685,None,294.8024851999944,None,None,1,,294.8024851999944,None,296.8086615999928,None,,,,,,,,,,,,,,,,,,,,,,,,,,,,,,,P030,FENCOG,2,Pre,2022_Mar_11_1127,N-Back (New Version 2021),2021.1.4,119.71531703823763,
Conditions/Version_2Pr/zeroback(1)_v2.xlsx,Rule: Press 'space' when you see the letter 'x' or 'X'.,U,None,,,,,0,0,0,0,0,5,5,5,,,,,,,,,,,,,,,,,,,,,,,,,,,,,,,,,,,,,,,,,,,1.34,298.3083836999722,None,299.6521833000006,None,None,1,,299.6521833000006,None,301.6575257999357,None,,,,,,,,,,,,,,,,,,,,,,,,,,,,,,,P030,FENCOG,2,Pre,2022_Mar_11_1127,N-Back (New Version 2021),2021.1.4,119.71531703823763,
Conditions/Version_2Pr/zeroback(1)_v2.xlsx,Rule: Press 'space' when you see the letter 'x' or 'X'.,N,None,,,,,0,0,0,0,0,6,6,6,,,,,,,,,,,,,,,,,,,,,,,,,,,,,,,,,,,,,,,,,,,1.09,303.1569487999659,None,304.2504595000064,None,None,1,,304.2504595000064,None,306.2561064999318,None,,,,,,,,,,,,,,,,,,,,,,,,,,,,,,,P030,FENCOG,2,Pre,2022_Mar_11_1127,N-Back (New Version 2021),2021.1.4,119.71531703823763,
Conditions/Version_2Pr/zeroback(1)_v2.xlsx,Rule: Press 'space' when you see the letter 'x' or 'X'.,m,None,,,,,0,0,0,0,0,7,7,7,,,,,,,,,,,,,,,,,,,,,,,,,,,,,,,,,,,,,,,,,,,1.44,307.7555597999599,None,309.1995072000427,None,None,1,,309.1995072000427,None,311.2047064999351,None,,,,,,,,,,,,,,,,,,,,,,,,,,,,,,,P030,FENCOG,2,Pre,2022_Mar_11_1127,N-Back (New Version 2021),2021.1.4,119.71531703823763,
Conditions/Version_2Pr/zeroback(1)_v2.xlsx,Rule: Press 'space' when you see the letter 'x' or 'X'.,x,space,,,,,0,0,0,0,0,8,8,8,,,,,,,,,,,,,,,,,,,,,,,,,,,,,,,,,,,,,,,,,,,1.515,312.70402239996474,None,314.22120959998574,None,space,1,0.45731279999017715,314.22120959998574,None,314.6875199000351,None,,,,,,,,,,,,,,,,,,,,,,,,,,,,,,,P030,FENCOG,2,Pre,2022_Mar_11_1127,N-Back (New Version 2021),2021.1.4,119.71531703823763,
Conditions/Version_2Pr/zeroback(1)_v2.xlsx,Rule: Press 'space' when you see the letter 'x' or 'X'.,X,space,,,,,0,0,0,0,0,9,9,9,,,,,,,,,,,,,,,,,,,,,,,,,,,,,,,,,,,,,,,,,,,1.815,316.1948029999621,None,318.013171199942,None,space,1,0.5931197000900283,318.013171199942,None,318.6193092999747,None,,,,,,,,,,,,,,,,,,,,,,,,,,,,,,,P030,FENCOG,2,Pre,2022_Mar_11_1127,N-Back (New Version 2021),2021.1.4,119.71531703823763,
Conditions/Version_2Pr/zeroback(1)_v2.xlsx,Rule: Press 'space' when you see the letter 'x' or 'X'.,,,,,,,0,0,0,0,,,,,,,,,,,,,,,,,,,,,,,,,,,,,,,,,,,,,,,,,,,,,,,,,,,,,,,,,,,,,,,,,,,,,,,,,,,,,,,,,,,,,,,,,P030,FENCOG,2,Pre,2022_Mar_11_1127,N-Back (New Version 2021),2021.1.4,119.71531703823763,
Conditions/Version_2Pr/oneback(1)_v2.xlsx,New rule: Press 'space' when you see 1-back (i.e. the same letter as the one that appeared 1 letter ago.),r,None,,,,,0,1,1,1,0,0,0,0,,,,,,,,,,,,,,,,,,,,,,,,,,,,,,,,,320.1426698999712,None,323.12779049994424,None,space,3.222506400081329,323.12779049994424,None,320.1426698999712,None,2.015,326.37734240002465,None,328.40058449993376,None,space,0,1.2457243000390008,328.40058449993376,None,329.66349029995035,None,,,,,,,,,,,,,,,,,,,,,,,,,,,,,,,P030,FENCOG,2,Pre,2022_Mar_11_1127,N-Back (New Version 2021),2021.1.4,119.71531703823763,
Conditions/Version_2Pr/oneback(1)_v2.xlsx,New rule: Press 'space' when you see 1-back (i.e. the same letter as the one that appeared 1 letter ago.),t,None,,,,,0,1,1,1,0,1,1,1,,,,,,,,,,,,,,,,,,,,,,,,,,,,,,,,,,,,,,,,,,,1.44,331.1651783999987,None,332.60706629999913,None,None,1,,332.60706629999913,None,334.61415659997147,None,,,,,,,,,,,,,,,,,,,,,,,,,,,,,,,P030,FENCOG,2,Pre,2022_Mar_11_1127,N-Back (New Version 2021),2021.1.4,119.71531703823763,
Conditions/Version_2Pr/oneback(1)_v2.xlsx,New rule: Press 'space' when you see 1-back (i.e. the same letter as the one that appeared 1 letter ago.),Y,None,,,,,0,1,1,1,0,2,2,2,,,,,,,,,,,,,,,,,,,,,,,,,,,,,,,,,,,,,,,,,,,1.765,336.11382580001373,None,337.88133510004263,None,None,1,,337.88133510004263,None,339.88772999995854,None,,,,,,,,,,,,,,,,,,,,,,,,,,,,,,,P030,FENCOG,2,Pre,2022_Mar_11_1127,N-Back (New Version 2021),2021.1.4,119.71531703823763,
Conditions/Version_2Pr/oneback(1)_v2.xlsx,New rule: Press 'space' when you see 1-back (i.e. the same letter as the one that appeared 1 letter ago.),y,space,,,,,0,1,1,1,0,3,3,3,,,,,,,,,,,,,,,,,,,,,,,,,,,,,,,,,,,,,,,,,,,1.04,341.3872784000123,None,342.43001769995317,None,None,0,,342.43001769995317,None,344.4383302000351,None,,,,,,,,,,,,,,,,,,,,,,,,,,,,,,,P030,FENCOG,2,Pre,2022_Mar_11_1127,N-Back (New Version 2021),2021.1.4,119.71531703823763,
Conditions/Version_2Pr/oneback(1)_v2.xlsx,New rule: Press 'space' when you see 1-back (i.e. the same letter as the one that appeared 1 letter ago.),p,None,,,,,0,1,1,1,0,4,4,4,,,,,,,,,,,,,,,,,,,,,,,,,,,,,,,,,,,,,,,,,,,1.215,345.9360135999741,None,347.15224710002076,None,None,1,,347.15224710002076,None,349.16045159997884,None,,,,,,,,,,,,,,,,,,,,,,,,,,,,,,,P030,FENCOG,2,Pre,2022_Mar_11_1127,N-Back (New Version 2021),2021.1.4,119.71531703823763,
Conditions/Version_2Pr/oneback(1)_v2.xlsx,New rule: Press 'space' when you see 1-back (i.e. the same letter as the one that appeared 1 letter ago.),P,space,,,,,0,1,1,1,0,5,5,5,,,,,,,,,,,,,,,,,,,,,,,,,,,,,,,,,,,,,,,,,,,1.29,350.66048439999577,None,351.9560221999418,None,None,0,,351.9560221999418,None,353.96317719994113,None,,,,,,,,,,,,,,,,,,,,,,,,,,,,,,,P030,FENCOG,2,Pre,2022_Mar_11_1127,N-Back (New Version 2021),2021.1.4,119.71531703823763,
Conditions/Version_2Pr/oneback(1)_v2.xlsx,New rule: Press 'space' when you see 1-back (i.e. the same letter as the one that appeared 1 letter ago.),e,None,,,,,0,1,1,1,0,6,6,6,,,,,,,,,,,,,,,,,,,,,,,,,,,,,,,,,,,,,,,,,,,1.715,355.4582153999945,None,357.1751897999784,None,None,1,,357.1751897999784,None,359.1838128999807,None,,,,,,,,,,,,,,,,,,,,,,,,,,,,,,,P030,FENCOG,2,Pre,2022_Mar_11_1127,N-Back (New Version 2021),2021.1.4,119.71531703823763,
Conditions/Version_2Pr/oneback(1)_v2.xlsx,New rule: Press 'space' when you see 1-back (i.e. the same letter as the one that appeared 1 letter ago.),r,None,,,,,0,1,1,1,0,7,7,7,,,,,,,,,,,,,,,,,,,,,,,,,,,,,,,,,,,,,,,,,,,1.365,360.68168060004245,None,362.04864970000926,None,None,1,,362.04864970000926,None,364.05573679995723,None,,,,,,,,,,,,,,,,,,,,,,,,,,,,,,,P030,FENCOG,2,Pre,2022_Mar_11_1127,N-Back (New Version 2021),2021.1.4,119.71531703823763,
Conditions/Version_2Pr/oneback(1)_v2.xlsx,New rule: Press 'space' when you see 1-back (i.e. the same letter as the one that appeared 1 letter ago.),R,space,,,,,0,1,1,1,0,8,8,8,,,,,,,,,,,,,,,,,,,,,,,,,,,,,,,,,,,,,,,,,,,1.69,365.55527469993103,None,367.2462222999893,None,space,1,0.5441157000605017,367.2462222999893,None,367.8057783000404,None,,,,,,,,,,,,,,,,,,,,,,,,,,,,,,,P030,FENCOG,2,Pre,2022_Mar_11_1127,N-Back (New Version 2021),2021.1.4,119.71531703823763,
Conditions/Version_2Pr/oneback(1)_v2.xlsx,New rule: Press 'space' when you see 1-back (i.e. the same letter as the one that appeared 1 letter ago.),p,None,,,,,0,1,1,1,0,9,9,9,,,,,,,,,,,,,,,,,,,,,,,,,,,,,,,,,,,,,,,,,,,1.915,369.3123675000388,None,371.2301013999386,None,None,1,,371.2301013999386,None,373.2363397999434,None,,,,,,,,,,,,,,,,,,,,,,,,,,,,,,,P030,FENCOG,2,Pre,2022_Mar_11_1127,N-Back (New Version 2021),2021.1.4,119.71531703823763,
Conditions/Version_2Pr/oneback(1)_v2.xlsx,New rule: Press 'space' when you see 1-back (i.e. the same letter as the one that appeared 1 letter ago.),,,,,,,0,1,1,1,,,,,,,,,,,,,,,,,,,,,,,,,,,,,,,,,,,,,,,,,,,,,,,,,,,,,,,,,,,,,,,,,,,,,,,,,,,,,,,,,,,,,,,,,P030,FENCOG,2,Pre,2022_Mar_11_1127,N-Back (New Version 2021),2021.1.4,119.71531703823763,
Conditions/Version_2Pr/twoback(1)_v2.xlsx,New rule: Press 'space' when you see 2-back (i.e. the same letter as the one that appeared 2 letters ago.),r,None,,,,,0,2,2,2,0,0,0,0,,,,,,,,,,,,,,,,,,,,,,,,,,,,,,,,,374.7585017000092,None,377.7455230000196,None,space,0.9487190999789163,377.7455230000196,None,374.7585017000092,None,1.14,378.7202964000171,None,379.8591700999532,None,None,1,,379.8591700999532,None,381.8585751999635,None,,,,,,,,,,,,,,,,,,,,,,,,,,,,,,,P030,FENCOG,2,Pre,2022_Mar_11_1127,N-Back (New Version 2021),2021.1.4,119.71531703823763,
Conditions/Version_2Pr/twoback(1)_v2.xlsx,New rule: Press 'space' when you see 2-back (i.e. the same letter as the one that appeared 2 letters ago.),P,None,,,,,0,2,2,2,0,1,1,1,,,,,,,,,,,,,,,,,,,,,,,,,,,,,,,,,,,,,,,,,,,1.815,383.3583220000146,None,385.1748225999763,None,None,1,,385.1748225999763,None,387.17391370004043,None,,,,,,,,,,,,,,,,,,,,,,,,,,,,,,,P030,FENCOG,2,Pre,2022_Mar_11_1127,N-Back (New Version 2021),2021.1.4,119.71531703823763,
Conditions/Version_2Pr/twoback(1)_v2.xlsx,New rule: Press 'space' when you see 2-back (i.e. the same letter as the one that appeared 2 letters ago.),o,None,,,,,0,2,2,2,0,2,2,2,,,,,,,,,,,,,,,,,,,,,,,,,,,,,,,,,,,,,,,,,,,1.99,388.6734715999337,None,390.66673789999913,None,None,1,,390.66673789999913,None,392.67204870004207,None,,,,,,,,,,,,,,,,,,,,,,,,,,,,,,,P030,FENCOG,2,Pre,2022_Mar_11_1127,N-Back (New Version 2021),2021.1.4,119.71531703823763,
Conditions/Version_2Pr/twoback(1)_v2.xlsx,New rule: Press 'space' when you see 2-back (i.e. the same letter as the one that appeared 2 letters ago.),p,space,,,,,0,2,2,2,0,3,3,3,,,,,,,,,,,,,,,,,,,,,,,,,,,,,,,,,,,,,,,,,,,1.29,394.1718236999586,None,395.4629299000371,None,space,1,0.4154238000046462,395.4629299000371,None,395.8882674999768,None,,,,,,,,,,,,,,,,,,,,,,,,,,,,,,,P030,FENCOG,2,Pre,2022_Mar_11_1127,N-Back (New Version 2021),2021.1.4,119.71531703823763,
Conditions/Version_2Pr/twoback(1)_v2.xlsx,New rule: Press 'space' when you see 2-back (i.e. the same letter as the one that appeared 2 letters ago.),Y,None,,,,,0,2,2,2,0,4,4,4,,,,,,,,,,,,,,,,,,,,,,,,,,,,,,,,,,,,,,,,,,,1.49,397.3874954000348,None,398.8787742999848,None,None,1,,398.8787742999848,None,400.8780692999717,None,,,,,,,,,,,,,,,,,,,,,,,,,,,,,,,P030,FENCOG,2,Pre,2022_Mar_11_1127,N-Back (New Version 2021),2021.1.4,119.71531703823763,
Conditions/Version_2Pr/twoback(1)_v2.xlsx,New rule: Press 'space' when you see 2-back (i.e. the same letter as the one that appeared 2 letters ago.),q,None,,,,,0,2,2,2,0,5,5,5,,,,,,,,,,,,,,,,,,,,,,,,,,,,,,,,,,,,,,,,,,,1.165,402.3775964999804,None,403.5466934000142,None,None,1,,403.5466934000142,None,405.55184009997174,None,,,,,,,,,,,,,,,,,,,,,,,,,,,,,,,P030,FENCOG,2,Pre,2022_Mar_11_1127,N-Back (New Version 2021),2021.1.4,119.71531703823763,
Conditions/Version_2Pr/twoback(1)_v2.xlsx,New rule: Press 'space' when you see 2-back (i.e. the same letter as the one that appeared 2 letters ago.),m,None,,,,,0,2,2,2,0,6,6,6,,,,,,,,,,,,,,,,,,,,,,,,,,,,,,,,,,,,,,,,,,,1.915,407.0512777999975,None,408.96923309995327,None,None,1,,408.96923309995327,None,410.97523690003436,None,,,,,,,,,,,,,,,,,,,,,,,,,,,,,,,P030,FENCOG,2,Pre,2022_Mar_11_1127,N-Back (New Version 2021),2021.1.4,119.71531703823763,
Conditions/Version_2Pr/twoback(1)_v2.xlsx,New rule: Press 'space' when you see 2-back (i.e. the same letter as the one that appeared 2 letters ago.),Q,space,,,,,0,2,2,2,0,7,7,7,,,,,,,,,,,,,,,,,,,,,,,,,,,,,,,,,,,,,,,,,,,1.115,412.4747216999531,None,413.59178379992954,None,space,1,0.5827124000061303,413.59178379992954,None,414.1841465999605,None,,,,,,,,,,,,,,,,,,,,,,,,,,,,,,,P030,FENCOG,2,Pre,2022_Mar_11_1127,N-Back (New Version 2021),2021.1.4,119.71531703823763,
Conditions/Version_2Pr/twoback(1)_v2.xlsx,New rule: Press 'space' when you see 2-back (i.e. the same letter as the one that appeared 2 letters ago.),L,None,,,,,0,2,2,2,0,8,8,8,,,,,,,,,,,,,,,,,,,,,,,,,,,,,,,,,,,,,,,,,,,1.515,415.69033779995516,None,417.2093073000433,None,None,1,,417.2093073000433,None,419.2144130000379,None,,,,,,,,,,,,,,,,,,,,,,,,,,,,,,,P030,FENCOG,2,Pre,2022_Mar_11_1127,N-Back (New Version 2021),2021.1.4,119.71531703823763,
Conditions/Version_2Pr/twoback(1)_v2.xlsx,New rule: Press 'space' when you see 2-back (i.e. the same letter as the one that appeared 2 letters ago.),q,space,,,,,0,2,2,2,0,9,9,9,,,,,,,,,,,,,,,,,,,,,,,,,,,,,,,,,,,,,,,,,,,1.415,420.7146017999621,None,422.13000959996134,None,None,0,,422.13000959996134,None,424.13310450001154,None,,,,,,,,,,,,,,,,,,,,,,,,,,,,,,,P030,FENCOG,2,Pre,2022_Mar_11_1127,N-Back (New Version 2021),2021.1.4,119.71531703823763,
Conditions/Version_2Pr/twoback(1)_v2.xlsx,New rule: Press 'space' when you see 2-back (i.e. the same letter as the one that appeared 2 letters ago.),,,,,,,0,2,2,2,,,,,,,,,,,,,,,,,,,,,,,,,,,,,,,,,,,,,,,,,,,,,,,,,,,,,,,,,,,,,,,,,,,,,,,,,,,,,,,,,,,,,,,,,P030,FENCOG,2,Pre,2022_Mar_11_1127,N-Back (New Version 2021),2021.1.4,119.71531703823763,
Conditions/Version_2Pr/threeback(1)_v2.xlsx,New rule: Press 'space' when you see 3-back (i.e. the same letter as the one that appeared 3 letters ago.),u,None,,,,,0,3,3,3,0,0,0,0,,,,,,,,,,,,,,,,,,,,,,,,,,,,,,,,,425.65859370003454,None,428.6472639000276,None,space,1.055068499990739,428.6472639000276,None,425.65859370003454,None,1.54,429.73020650004037,None,431.28093759994954,None,None,1,,431.28093759994954,None,433.28499880002346,None,,,,,,,,,,,,,,,,,,,,,,,,,,,,,,,P030,FENCOG,2,Pre,2022_Mar_11_1127,N-Back (New Version 2021),2021.1.4,119.71531703823763,
Conditions/Version_2Pr/threeback(1)_v2.xlsx,New rule: Press 'space' when you see 3-back (i.e. the same letter as the one that appeared 3 letters ago.),U,None,,,,,0,3,3,3,0,1,1,1,,,,,,,,,,,,,,,,,,,,,,,,,,,,,,,,,,,,,,,,,,,1.565,434.7847621999681,None,436.3510119999992,None,space,0,0.8792574000544846,436.3510119999992,None,437.2470765999751,None,,,,,,,,,,,,,,,,,,,,,,,,,,,,,,,P030,FENCOG,2,Pre,2022_Mar_11_1127,N-Back (New Version 2021),2021.1.4,119.71531703823763,
Conditions/Version_2Pr/threeback(1)_v2.xlsx,New rule: Press 'space' when you see 3-back (i.e. the same letter as the one that appeared 3 letters ago.),p,None,,,,,0,3,3,3,0,2,2,2,,,,,,,,,,,,,,,,,,,,,,,,,,,,,,,,,,,,,,,,,,,1.89,438.7504130000016,None,440.6412537000142,None,None,1,,440.6412537000142,None,442.6429092999315,None,,,,,,,,,,,,,,,,,,,,,,,,,,,,,,,P030,FENCOG,2,Pre,2022_Mar_11_1127,N-Back (New Version 2021),2021.1.4,119.71531703823763,
Conditions/Version_2Pr/threeback(1)_v2.xlsx,New rule: Press 'space' when you see 3-back (i.e. the same letter as the one that appeared 3 letters ago.),U,space,,,,,0,3,3,3,0,3,3,3,,,,,,,,,,,,,,,,,,,,,,,,,,,,,,,,,,,,,,,,,,,1.165,444.14873539994005,None,445.31487749994267,None,space,1,0.8275812999345362,445.31487749994267,None,446.1587694999762,None,,,,,,,,,,,,,,,,,,,,,,,,,,,,,,,P030,FENCOG,2,Pre,2022_Mar_11_1127,N-Back (New Version 2021),2021.1.4,119.71531703823763,
Conditions/Version_2Pr/threeback(1)_v2.xlsx,New rule: Press 'space' when you see 3-back (i.e. the same letter as the one that appeared 3 letters ago.),e,None,,,,,0,3,3,3,0,4,4,4,,,,,,,,,,,,,,,,,,,,,,,,,,,,,,,,,,,,,,,,,,,1.365,447.66434230003506,None,449.0302570000058,None,None,1,,449.0302570000058,None,451.0299723999342,None,,,,,,,,,,,,,,,,,,,,,,,,,,,,,,,P030,FENCOG,2,Pre,2022_Mar_11_1127,N-Back (New Version 2021),2021.1.4,119.71531703823763,
Conditions/Version_2Pr/threeback(1)_v2.xlsx,New rule: Press 'space' when you see 3-back (i.e. the same letter as the one that appeared 3 letters ago.),R,None,,,,,0,3,3,3,0,5,5,5,,,,,,,,,,,,,,,,,,,,,,,,,,,,,,,,,,,,,,,,,,,1.765,452.5295862000203,None,454.2960856000427,None,None,1,,454.2960856000427,None,456.2950569000095,None,,,,,,,,,,,,,,,,,,,,,,,,,,,,,,,P030,FENCOG,2,Pre,2022_Mar_11_1127,N-Back (New Version 2021),2021.1.4,119.71531703823763,
Conditions/Version_2Pr/threeback(1)_v2.xlsx,New rule: Press 'space' when you see 3-back (i.e. the same letter as the one that appeared 3 letters ago.),p,None,,,,,0,3,3,3,0,6,6,6,,,,,,,,,,,,,,,,,,,,,,,,,,,,,,,,,,,,,,,,,,,1.515,457.7942895999877,None,459.3111915999325,None,None,1,,459.3111915999325,None,461.3186191000277,None,,,,,,,,,,,,,,,,,,,,,,,,,,,,,,,P030,FENCOG,2,Pre,2022_Mar_11_1127,N-Back (New Version 2021),2021.1.4,119.71531703823763,
Conditions/Version_2Pr/threeback(1)_v2.xlsx,New rule: Press 'space' when you see 3-back (i.e. the same letter as the one that appeared 3 letters ago.),E,space,,,,,0,3,3,3,0,7,7,7,,,,,,,,,,,,,,,,,,,,,,,,,,,,,,,,,,,,,,,,,,,1.315,462.8180646999972,None,464.13565549999475,None,space,1,1.0307676000520587,464.13565549999475,None,465.1764196000295,None,,,,,,,,,,,,,,,,,,,,,,,,,,,,,,,P030,FENCOG,2,Pre,2022_Mar_11_1127,N-Back (New Version 2021),2021.1.4,119.71531703823763,
Conditions/Version_2Pr/threeback(1)_v2.xlsx,New rule: Press 'space' when you see 3-back (i.e. the same letter as the one that appeared 3 letters ago.),k,None,,,,,0,3,3,3,0,8,8,8,,,,,,,,,,,,,,,,,,,,,,,,,,,,,,,,,,,,,,,,,,,1.79,466.6837059999816,None,468.4792531999992,None,None,1,,468.4792531999992,None,470.47895969997626,None,,,,,,,,,,,,,,,,,,,,,,,,,,,,,,,P030,FENCOG,2,Pre,2022_Mar_11_1127,N-Back (New Version 2021),2021.1.4,119.71531703823763,
Conditions/Version_2Pr/threeback(1)_v2.xlsx,New rule: Press 'space' when you see 3-back (i.e. the same letter as the one that appeared 3 letters ago.),m,None,,,,,0,3,3,3,0,9,9,9,,,,,,,,,,,,,,,,,,,,,,,,,,,,,,,,,,,,,,,,,,,1.065,471.9822608999675,None,473.05048049998004,None,None,1,,473.05048049998004,None,475.05627699999604,None,,,,,,,,,,,,,,,,,,,,,,,,,,,,,,,P030,FENCOG,2,Pre,2022_Mar_11_1127,N-Back (New Version 2021),2021.1.4,119.71531703823763,
Conditions/Version_2Pr/threeback(1)_v2.xlsx,New rule: Press 'space' when you see 3-back (i.e. the same letter as the one that appeared 3 letters ago.),,,,,,,0,3,3,3,,,,,,,,,,,,,,,,,,,,,,,,,,,,,,,,,,,,,,,,,,,,,,,,,,,,,,,,,,,,,,,,,,,,,,,,,,,,,,,,,,,,,,,,,P030,FENCOG,2,Pre,2022_Mar_11_1127,N-Back (New Version 2021),2021.1.4,119.71531703823763,
,,,,,,,,,,,,,,,,,,,,,,,,,,,,,,,,,,,,,,,,,,,,,,,,,,,,,,,,,,,,,,,,,,,,,,476.5640057999408,None,space,37.11861010000575,477.0559612000361,None,,,,,,,,,,,,,,,,,,,,,,,,,P030,FENCOG,2,Pre,2022_Mar_11_1127,N-Back (New Version 2021),2021.1.4,119.71531703823763,
,,,,,,,,,,,,,,,,,,,,,,,,,,,,,,,,,,,,,,,,,,,,,,,,,,,,,,,,,,,,,,,,,,,,,,,,,,,,514.2181397000095,None,space,2.430800300091505,514.7033782999497,None,,,,,,,,,,,,,,,,,,,P030,FENCOG,2,Pre,2022_Mar_11_1127,N-Back (New Version 2021),2021.1.4,119.71531703823763,
,,,,Conditions/Version_1/zeroback(1)_v1.xlsx,Rule: Press 'space' when you see the letter 'x' or 'X'.,b,None,,,,,,,,,0,0,0,0,0,0,0,0,,,,,,,,,,,,,,,,,,,,,,,,,,,,,,,,,,,,,,,,,,,,,,,,,,,,,,,,,,,517.2393486000365,None,520.2287519000238,None,space,1.0816626999294385,520.2287519000238,None,517.2393486000365,None,1.1464,522.4936781999422,None,None,1,522.4936781999422,None,,P030,FENCOG,2,Pre,2022_Mar_11_1127,N-Back (New Version 2021),2021.1.4,119.71531703823763,
,,,,Conditions/Version_1/zeroback(1)_v1.xlsx,Rule: Press 'space' when you see the letter 'x' or 'X'.,T,None,,,,,,,,,0,0,0,0,0,1,1,1,,,,,,,,,,,,,,,,,,,,,,,,,,,,,,,,,,,,,,,,,,,,,,,,,,,,,,,,,,,,,,,,,,,,,1.4626,525.966464499943,None,None,1,525.966464499943,None,,P030,FENCOG,2,Pre,2022_Mar_11_1127,N-Back (New Version 2021),2021.1.4,119.71531703823763,
,,,,Conditions/Version_1/zeroback(1)_v1.xlsx,Rule: Press 'space' when you see the letter 'x' or 'X'.,L,None,,,,,,,,,0,0,0,0,0,2,2,2,,,,,,,,,,,,,,,,,,,,,,,,,,,,,,,,,,,,,,,,,,,,,,,,,,,,,,,,,,,,,,,,,,,,,1.4068,529.3743034999352,None,None,1,529.3743034999352,None,,P030,FENCOG,2,Pre,2022_Mar_11_1127,N-Back (New Version 2021),2021.1.4,119.71531703823763,
,,,,Conditions/Version_1/zeroback(1)_v1.xlsx,Rule: Press 'space' when you see the letter 'x' or 'X'.,x,space,,,,,,,,,0,0,0,0,0,3,3,3,,,,,,,,,,,,,,,,,,,,,,,,,,,,,,,,,,,,,,,,,,,,,,,,,,,,,,,,,,,,,,,,,,,,,1.9152,533.297399800038,None,space,1,533.297399800038,None,1.3170035000657663,P030,FENCOG,2,Pre,2022_Mar_11_1127,N-Back (New Version 2021),2021.1.4,119.71531703823763,
,,,,Conditions/Version_1/zeroback(1)_v1.xlsx,Rule: Press 'space' when you see the letter 'x' or 'X'.,o,None,,,,,,,,,0,0,0,0,0,4,4,4,,,,,,,,,,,,,,,,,,,,,,,,,,,,,,,,,,,,,,,,,,,,,,,,,,,,,,,,,,,,,,,,,,,,,1.9896,537.2884039999917,None,None,1,537.2884039999917,None,,P030,FENCOG,2,Pre,2022_Mar_11_1127,N-Back (New Version 2021),2021.1.4,119.71531703823763,
,,,,Conditions/Version_1/zeroback(1)_v1.xlsx,Rule: Press 'space' when you see the letter 'x' or 'X'.,P,None,,,,,,,,,0,0,0,0,0,5,5,5,,,,,,,,,,,,,,,,,,,,,,,,,,,,,,,,,,,,,,,,,,,,,,,,,,,,,,,,,,,,,,,,,,,,,1.7602,541.0620239999844,None,None,1,541.0620239999844,None,,P030,FENCOG,2,Pre,2022_Mar_11_1127,N-Back (New Version 2021),2021.1.4,119.71531703823763,
,,,,Conditions/Version_1/zeroback(1)_v1.xlsx,Rule: Press 'space' when you see the letter 'x' or 'X'.,X,space,,,,,,,,,0,0,0,0,0,6,6,6,,,,,,,,,,,,,,,,,,,,,,,,,,,,,,,,,,,,,,,,,,,,,,,,,,,,,,,,,,,,,,,,,,,,,1.3758,544.4441944999853,None,space,1,544.4441944999853,None,0.3460141000105068,P030,FENCOG,2,Pre,2022_Mar_11_1127,N-Back (New Version 2021),2021.1.4,119.71531703823763,
,,,,Conditions/Version_1/zeroback(1)_v1.xlsx,Rule: Press 'space' when you see the letter 'x' or 'X'.,n,None,,,,,,,,,0,0,0,0,0,7,7,7,,,,,,,,,,,,,,,,,,,,,,,,,,,,,,,,,,,,,,,,,,,,,,,,,,,,,,,,,,,,,,,,,,,,,1.8284,548.2766381000401,None,None,1,548.2766381000401,None,,P030,FENCOG,2,Pre,2022_Mar_11_1127,N-Back (New Version 2021),2021.1.4,119.71531703823763,
,,,,Conditions/Version_1/zeroback(1)_v1.xlsx,Rule: Press 'space' when you see the letter 'x' or 'X'.,M,None,,,,,,,,,0,0,0,0,0,8,8,8,,,,,,,,,,,,,,,,,,,,,,,,,,,,,,,,,,,,,,,,,,,,,,,,,,,,,,,,,,,,,,,,,,,,,1.5556,551.8453290000325,None,None,1,551.8453290000325,None,,P030,FENCOG,2,Pre,2022_Mar_11_1127,N-Back (New Version 2021),2021.1.4,119.71531703823763,
,,,,Conditions/Version_1/zeroback(1)_v1.xlsx,Rule: Press 'space' when you see the letter 'x' or 'X'.,a,None,,,,,,,,,0,0,0,0,0,9,9,9,,,,,,,,,,,,,,,,,,,,,,,,,,,,,,,,,,,,,,,,,,,,,,,,,,,,,,,,,,,,,,,,,,,,,1.5618,555.4185418999987,None,None,1,555.4185418999987,None,,P030,FENCOG,2,Pre,2022_Mar_11_1127,N-Back (New Version 2021),2021.1.4,119.71531703823763,
,,,,Conditions/Version_1/zeroback(1)_v1.xlsx,Rule: Press 'space' when you see the letter 'x' or 'X'.,,,,,,,,,,,0,0,0,0,,,,,,,,,,,,,,,,,,,,,,,,,,,,,,,,,,,,,,,,,,,,,,,,,,,,,,,,,,,,,,,,,,,,,,,,,,,,,,,,,P030,FENCOG,2,Pre,2022_Mar_11_1127,N-Back (New Version 2021),2021.1.4,119.71531703823763,
,,,,Conditions/Version_1/oneback(1)_v1.xlsx,New rule: Press 'space' when you see 1-back (i.e. the same letter as the one that appeared 1 letter ago.),b,None,,,,,,,,,0,1,1,1,0,0,0,0,,,,,,,,,,,,,,,,,,,,,,,,,,,,,,,,,,,,,,,,,,,,,,,,,,,,,,,,,,,557.4428768999642,None,560.4246067999629,None,space,18.629570999997668,560.4246067999629,None,557.4428768999642,None,1.7354,580.8192124000052,None,None,1,580.8192124000052,None,,P030,FENCOG,2,Pre,2022_Mar_11_1127,N-Back (New Version 2021),2021.1.4,119.71531703823763,
,,,,Conditions/Version_1/oneback(1)_v1.xlsx,New rule: Press 'space' when you see 1-back (i.e. the same letter as the one that appeared 1 letter ago.),p,None,,,,,,,,,0,1,1,1,0,1,1,1,,,,,,,,,,,,,,,,,,,,,,,,,,,,,,,,,,,,,,,,,,,,,,,,,,,,,,,,,,,,,,,,,,,,,1.4874,584.3164754000027,None,None,1,584.3164754000027,None,,P030,FENCOG,2,Pre,2022_Mar_11_1127,N-Back (New Version 2021),2021.1.4,119.71531703823763,
,,,,Conditions/Version_1/oneback(1)_v1.xlsx,New rule: Press 'space' when you see 1-back (i.e. the same letter as the one that appeared 1 letter ago.),M,None,,,,,,,,,0,1,1,1,0,2,2,2,,,,,,,,,,,,,,,,,,,,,,,,,,,,,,,,,,,,,,,,,,,,,,,,,,,,,,,,,,,,,,,,,,,,,1.5928,587.922868099995,None,None,1,587.922868099995,None,,P030,FENCOG,2,Pre,2022_Mar_11_1127,N-Back (New Version 2021),2021.1.4,119.71531703823763,
,,,,Conditions/Version_1/oneback(1)_v1.xlsx,New rule: Press 'space' when you see 1-back (i.e. the same letter as the one that appeared 1 letter ago.),M,space,,,,,,,,,0,1,1,1,0,3,3,3,,,,,,,,,,,,,,,,,,,,,,,,,,,,,,,,,,,,,,,,,,,,,,,,,,,,,,,,,,,,,,,,,,,,,1.4626,591.3884032999631,None,space,1,591.3884032999631,None,0.6976780999684706,P030,FENCOG,2,Pre,2022_Mar_11_1127,N-Back (New Version 2021),2021.1.4,119.71531703823763,
,,,,Conditions/Version_1/oneback(1)_v1.xlsx,New rule: Press 'space' when you see 1-back (i.e. the same letter as the one that appeared 1 letter ago.),n,None,,,,,,,,,0,1,1,1,0,4,4,4,,,,,,,,,,,,,,,,,,,,,,,,,,,,,,,,,,,,,,,,,,,,,,,,,,,,,,,,,,,,,,,,,,,,,1.599,594.9881243000273,None,None,1,594.9881243000273,None,,P030,FENCOG,2,Pre,2022_Mar_11_1127,N-Back (New Version 2021),2021.1.4,119.71531703823763,
,,,,Conditions/Version_1/oneback(1)_v1.xlsx,New rule: Press 'space' when you see 1-back (i.e. the same letter as the one that appeared 1 letter ago.),g,None,,,,,,,,,0,1,1,1,0,5,5,5,,,,,,,,,,,,,,,,,,,,,,,,,,,,,,,,,,,,,,,,,,,,,,,,,,,,,,,,,,,,,,,,,,,,,1.7726,598.7740590999601,None,None,1,598.7740590999601,None,,P030,FENCOG,2,Pre,2022_Mar_11_1127,N-Back (New Version 2021),2021.1.4,119.71531703823763,
,,,,Conditions/Version_1/oneback(1)_v1.xlsx,New rule: Press 'space' when you see 1-back (i.e. the same letter as the one that appeared 1 letter ago.),P,None,,,,,,,,,0,1,1,1,0,6,6,6,,,,,,,,,,,,,,,,,,,,,,,,,,,,,,,,,,,,,,,,,,,,,,,,,,,,,,,,,,,,,,,,,,,,,1.5184,602.3028940999648,None,None,1,602.3028940999648,None,,P030,FENCOG,2,Pre,2022_Mar_11_1127,N-Back (New Version 2021),2021.1.4,119.71531703823763,
,,,,Conditions/Version_1/oneback(1)_v1.xlsx,New rule: Press 'space' when you see 1-back (i.e. the same letter as the one that appeared 1 letter ago.),o,None,,,,,,,,,0,1,1,1,0,7,7,7,,,,,,,,,,,,,,,,,,,,,,,,,,,,,,,,,,,,,,,,,,,,,,,,,,,,,,,,,,,,,,,,,,,,,1.5742,605.8841774000321,None,None,1,605.8841774000321,None,,P030,FENCOG,2,Pre,2022_Mar_11_1127,N-Back (New Version 2021),2021.1.4,119.71531703823763,
,,,,Conditions/Version_1/oneback(1)_v1.xlsx,New rule: Press 'space' when you see 1-back (i.e. the same letter as the one that appeared 1 letter ago.),f,None,,,,,,,,,0,1,1,1,0,8,8,8,,,,,,,,,,,,,,,,,,,,,,,,,,,,,,,,,,,,,,,,,,,,,,,,,,,,,,,,,,,,,,,,,,,,,1.8904,609.7760118999286,None,None,1,609.7760118999286,None,,P030,FENCOG,2,Pre,2022_Mar_11_1127,N-Back (New Version 2021),2021.1.4,119.71531703823763,
,,,,Conditions/Version_1/oneback(1)_v1.xlsx,New rule: Press 'space' when you see 1-back (i.e. the same letter as the one that appeared 1 letter ago.),F,space,,,,,,,,,0,1,1,1,0,9,9,9,,,,,,,,,,,,,,,,,,,,,,,,,,,,,,,,,,,,,,,,,,,,,,,,,,,,,,,,,,,,,,,,,,,,,1.6548,613.4417633999838,None,space,1,613.4417633999838,None,0.508413500036113,P030,FENCOG,2,Pre,2022_Mar_11_1127,N-Back (New Version 2021),2021.1.4,119.71531703823763,
,,,,Conditions/Version_1/oneback(1)_v1.xlsx,New rule: Press 'space' when you see 1-back (i.e. the same letter as the one that appeared 1 letter ago.),,,,,,,,,,,0,1,1,1,,,,,,,,,,,,,,,,,,,,,,,,,,,,,,,,,,,,,,,,,,,,,,,,,,,,,,,,,,,,,,,,,,,,,,,,,,,,,,,,,P030,FENCOG,2,Pre,2022_Mar_11_1127,N-Back (New Version 2021),2021.1.4,119.71531703823763,
,,,,Conditions/Version_1/twoback(1)_v1.xlsx,New rule: Press 'space' when you see 2-back (i.e. the same letter as the one that appeared 2 letters ago.),b,None,,,,,,,,,0,2,2,2,0,0,0,0,,,,,,,,,,,,,,,,,,,,,,,,,,,,,,,,,,,,,,,,,,,,,,,,,,,,,,,,,,,615.4688235999784,None,618.4505261000013,None,space,4.88363339996431,618.4505261000013,None,615.4688235999784,None,1.1898,624.5545493999962,None,None,1,624.5545493999962,None,,P030,FENCOG,2,Pre,2022_Mar_11_1127,N-Back (New Version 2021),2021.1.4,119.71531703823763,
,,,,Conditions/Version_1/twoback(1)_v1.xlsx,New rule: Press 'space' when you see 2-back (i.e. the same letter as the one that appeared 2 letters ago.),h,None,,,,,,,,,0,2,2,2,0,1,1,1,,,,,,,,,,,,,,,,,,,,,,,,,,,,,,,,,,,,,,,,,,,,,,,,,,,,,,,,,,,,,,,,,,,,,1.3944,627.9629063999746,None,None,1,627.9629063999746,None,,P030,FENCOG,2,Pre,2022_Mar_11_1127,N-Back (New Version 2021),2021.1.4,119.71531703823763,
,,,,Conditions/Version_1/twoback(1)_v1.xlsx,New rule: Press 'space' when you see 2-back (i.e. the same letter as the one that appeared 2 letters ago.),j,None,,,,,,,,,0,2,2,2,0,2,2,2,,,,,,,,,,,,,,,,,,,,,,,,,,,,,,,,,,,,,,,,,,,,,,,,,,,,,,,,,,,,,,,,,,,,,1.8346,631.8200804999797,None,None,1,631.8200804999797,None,,P030,FENCOG,2,Pre,2022_Mar_11_1127,N-Back (New Version 2021),2021.1.4,119.71531703823763,
,,,,Conditions/Version_1/twoback(1)_v1.xlsx,New rule: Press 'space' when you see 2-back (i.e. the same letter as the one that appeared 2 letters ago.),H,space,,,,,,,,,0,2,2,2,0,3,3,3,,,,,,,,,,,,,,,,,,,,,,,,,,,,,,,,,,,,,,,,,,,,,,,,,,,,,,,,,,,,,,,,,,,,,1.4626,635.2871322999708,None,space,1,635.2871322999708,None,0.6711853999877349,P030,FENCOG,2,Pre,2022_Mar_11_1127,N-Back (New Version 2021),2021.1.4,119.71531703823763,
,,,,Conditions/Version_1/twoback(1)_v1.xlsx,New rule: Press 'space' when you see 2-back (i.e. the same letter as the one that appeared 2 letters ago.),p,None,,,,,,,,,0,2,2,2,0,4,4,4,,,,,,,,,,,,,,,,,,,,,,,,,,,,,,,,,,,,,,,,,,,,,,,,,,,,,,,,,,,,,,,,,,,,,1.351,638.6501507000066,None,None,1,638.6501507000066,None,,P030,FENCOG,2,Pre,2022_Mar_11_1127,N-Back (New Version 2021),2021.1.4,119.71531703823763,
,,,,Conditions/Version_1/twoback(1)_v1.xlsx,New rule: Press 'space' when you see 2-back (i.e. the same letter as the one that appeared 2 letters ago.),p,None,,,,,,,,,0,2,2,2,0,5,5,5,,,,,,,,,,,,,,,,,,,,,,,,,,,,,,,,,,,,,,,,,,,,,,,,,,,,,,,,,,,,,,,,,,,,,1.8594,642.5235742999939,None,None,1,642.5235742999939,None,,P030,FENCOG,2,Pre,2022_Mar_11_1127,N-Back (New Version 2021),2021.1.4,119.71531703823763,
,,,,Conditions/Version_1/twoback(1)_v1.xlsx,New rule: Press 'space' when you see 2-back (i.e. the same letter as the one that appeared 2 letters ago.),w,None,,,,,,,,,0,2,2,2,0,6,6,6,,,,,,,,,,,,,,,,,,,,,,,,,,,,,,,,,,,,,,,,,,,,,,,,,,,,,,,,,,,,,,,,,,,,,1.3882,645.9169737999327,None,None,1,645.9169737999327,None,,P030,FENCOG,2,Pre,2022_Mar_11_1127,N-Back (New Version 2021),2021.1.4,119.71531703823763,
,,,,Conditions/Version_1/twoback(1)_v1.xlsx,New rule: Press 'space' when you see 2-back (i.e. the same letter as the one that appeared 2 letters ago.),R,None,,,,,,,,,0,2,2,2,0,7,7,7,,,,,,,,,,,,,,,,,,,,,,,,,,,,,,,,,,,,,,,,,,,,,,,,,,,,,,,,,,,,,,,,,,,,,1.1278,649.0549330000067,None,None,1,649.0549330000067,None,,P030,FENCOG,2,Pre,2022_Mar_11_1127,N-Back (New Version 2021),2021.1.4,119.71531703823763,
,,,,Conditions/Version_1/twoback(1)_v1.xlsx,New rule: Press 'space' when you see 2-back (i.e. the same letter as the one that appeared 2 letters ago.),a,None,,,,,,,,,0,2,2,2,0,8,8,8,,,,,,,,,,,,,,,,,,,,,,,,,,,,,,,,,,,,,,,,,,,,,,,,,,,,,,,,,,,,,,,,,,,,,1.0534,652.1123455000343,None,None,1,652.1123455000343,None,,P030,FENCOG,2,Pre,2022_Mar_11_1127,N-Back (New Version 2021),2021.1.4,119.71531703823763,
,,,,Conditions/Version_1/twoback(1)_v1.xlsx,New rule: Press 'space' when you see 2-back (i.e. the same letter as the one that appeared 2 letters ago.),r,space,,,,,,,,,0,2,2,2,0,9,9,9,,,,,,,,,,,,,,,,,,,,,,,,,,,,,,,,,,,,,,,,,,,,,,,,,,,,,,,,,,,,,,,,,,,,,1.6548,655.7703510000138,None,space,1,655.7703510000138,None,0.7719259000150487,P030,FENCOG,2,Pre,2022_Mar_11_1127,N-Back (New Version 2021),2021.1.4,119.71531703823763,
,,,,Conditions/Version_1/twoback(1)_v1.xlsx,New rule: Press 'space' when you see 2-back (i.e. the same letter as the one that appeared 2 letters ago.),,,,,,,,,,,0,2,2,2,,,,,,,,,,,,,,,,,,,,,,,,,,,,,,,,,,,,,,,,,,,,,,,,,,,,,,,,,,,,,,,,,,,,,,,,,,,,,,,,,P030,FENCOG,2,Pre,2022_Mar_11_1127,N-Back (New Version 2021),2021.1.4,119.71531703823763,
,,,,Conditions/Version_1/threeback(1)_v1.xlsx,New rule: Press 'space' when you see 3-back (i.e. the same letter as the one that appeared 3 letters ago.),r,None,,,,,,,,,0,3,3,3,0,0,0,0,,,,,,,,,,,,,,,,,,,,,,,,,,,,,,,,,,,,,,,,,,,,,,,,,,,,,,,,,,,657.8009153000312,None,660.7869484999683,None,space,5.339224600000307,660.7869484999683,None,657.8009153000312,None,1.7044,667.8575533999829,None,space,0,667.8575533999829,None,0.7888934999937192,P030,FENCOG,2,Pre,2022_Mar_11_1127,N-Back (New Version 2021),2021.1.4,119.71531703823763,
,,,,Conditions/Version_1/threeback(1)_v1.xlsx,New rule: Press 'space' when you see 3-back (i.e. the same letter as the one that appeared 3 letters ago.),o,None,,,,,,,,,0,3,3,3,0,1,1,1,,,,,,,,,,,,,,,,,,,,,,,,,,,,,,,,,,,,,,,,,,,,,,,,,,,,,,,,,,,,,,,,,,,,,1.8966,671.7565520999487,None,None,1,671.7565520999487,None,,P030,FENCOG,2,Pre,2022_Mar_11_1127,N-Back (New Version 2021),2021.1.4,119.71531703823763,
,,,,Conditions/Version_1/threeback(1)_v1.xlsx,New rule: Press 'space' when you see 3-back (i.e. the same letter as the one that appeared 3 letters ago.),P,None,,,,,,,,,0,3,3,3,0,2,2,2,,,,,,,,,,,,,,,,,,,,,,,,,,,,,,,,,,,,,,,,,,,,,,,,,,,,,,,,,,,,,,,,,,,,,1.5308,675.288622800028,None,None,1,675.288622800028,None,,P030,FENCOG,2,Pre,2022_Mar_11_1127,N-Back (New Version 2021),2021.1.4,119.71531703823763,
,,,,Conditions/Version_1/threeback(1)_v1.xlsx,New rule: Press 'space' when you see 3-back (i.e. the same letter as the one that appeared 3 letters ago.),R,space,,,,,,,,,0,3,3,3,0,3,3,3,,,,,,,,,,,,,,,,,,,,,,,,,,,,,,,,,,,,,,,,,,,,,,,,,,,,,,,,,,,,,,,,,,,,,1.2952,678.5877003000351,None,space,1,678.5877003000351,None,0.6025583000155166,P030,FENCOG,2,Pre,2022_Mar_11_1127,N-Back (New Version 2021),2021.1.4,119.71531703823763,
,,,,Conditions/Version_1/threeback(1)_v1.xlsx,New rule: Press 'space' when you see 3-back (i.e. the same letter as the one that appeared 3 letters ago.),p,None,,,,,,,,,0,3,3,3,0,4,4,4,,,,,,,,,,,,,,,,,,,,,,,,,,,,,,,,,,,,,,,,,,,,,,,,,,,,,,,,,,,,,,,,,,,,,1.7726,682.3623743000207,None,None,1,682.3623743000207,None,,P030,FENCOG,2,Pre,2022_Mar_11_1127,N-Back (New Version 2021),2021.1.4,119.71531703823763,
,,,,Conditions/Version_1/threeback(1)_v1.xlsx,New rule: Press 'space' when you see 3-back (i.e. the same letter as the one that appeared 3 letters ago.),E,None,,,,,,,,,0,3,3,3,0,5,5,5,,,,,,,,,,,,,,,,,,,,,,,,,,,,,,,,,,,,,,,,,,,,,,,,,,,,,,,,,,,,,,,,,,,,,1.7664,686.1358375999844,None,None,1,686.1358375999844,None,,P030,FENCOG,2,Pre,2022_Mar_11_1127,N-Back (New Version 2021),2021.1.4,119.71531703823763,
,,,,Conditions/Version_1/threeback(1)_v1.xlsx,New rule: Press 'space' when you see 3-back (i.e. the same letter as the one that appeared 3 letters ago.),e,None,,,,,,,,,0,3,3,3,0,6,6,6,,,,,,,,,,,,,,,,,,,,,,,,,,,,,,,,,,,,,,,,,,,,,,,,,,,,,,,,,,,,,,,,,,,,,1.8904,690.0258587999269,None,None,1,690.0258587999269,None,,P030,FENCOG,2,Pre,2022_Mar_11_1127,N-Back (New Version 2021),2021.1.4,119.71531703823763,
,,,,Conditions/Version_1/threeback(1)_v1.xlsx,New rule: Press 'space' when you see 3-back (i.e. the same letter as the one that appeared 3 letters ago.),m,None,,,,,,,,,0,3,3,3,0,7,7,7,,,,,,,,,,,,,,,,,,,,,,,,,,,,,,,,,,,,,,,,,,,,,,,,,,,,,,,,,,,,,,,,,,,,,1.3262,693.3584175000433,None,None,1,693.3584175000433,None,,P030,FENCOG,2,Pre,2022_Mar_11_1127,N-Back (New Version 2021),2021.1.4,119.71531703823763,
,,,,Conditions/Version_1/threeback(1)_v1.xlsx,New rule: Press 'space' when you see 3-back (i.e. the same letter as the one that appeared 3 letters ago.),n,None,,,,,,,,,0,3,3,3,0,8,8,8,,,,,,,,,,,,,,,,,,,,,,,,,,,,,,,,,,,,,,,,,,,,,,,,,,,,,,,,,,,,,,,,,,,,,1.8284,697.1911254000152,None,None,1,697.1911254000152,None,,P030,FENCOG,2,Pre,2022_Mar_11_1127,N-Back (New Version 2021),2021.1.4,119.71531703823763,
,,,,Conditions/Version_1/threeback(1)_v1.xlsx,New rule: Press 'space' when you see 3-back (i.e. the same letter as the one that appeared 3 letters ago.),e,space,,,,,,,,,0,3,3,3,0,9,9,9,,,,,,,,,,,,,,,,,,,,,,,,,,,,,,,,,,,,,,,,,,,,,,,,,,,,,,,,,,,,,,,,,,,,,1.2704,700.4728186000139,None,space,1,700.4728186000139,None,0.8855353000108153,P030,FENCOG,2,Pre,2022_Mar_11_1127,N-Back (New Version 2021),2021.1.4,119.71531703823763,
,,,,Conditions/Version_1/threeback(1)_v1.xlsx,New rule: Press 'space' when you see 3-back (i.e. the same letter as the one that appeared 3 letters ago.),,,,,,,,,,,0,3,3,3,,,,,,,,,,,,,,,,,,,,,,,,,,,,,,,,,,,,,,,,,,,,,,,,,,,,,,,,,,,,,,,,,,,,,,,,,,,,,,,,,P030,FENCOG,2,Pre,2022_Mar_11_1127,N-Back (New Version 2021),2021.1.4,119.71531703823763,
,,,,Conditions/Version_1/oneback(2)_v1.xlsx,New rule: Press 'space' when you see 1-back (i.e. the same letter as the one that appeared 1 letter ago.),q,None,,,,,,,,,0,4,4,4,0,0,0,0,,,,,,,,,,,,,,,,,,,,,,,,,,,,,,,,,,,,,,,,,,,,,,,,,,,,,,,,,,,702.5071777999401,None,705.4827538999962,None,space,5.355651400052011,705.4827538999962,None,702.5071777999401,None,1.9276,712.7942217999371,None,None,1,712.7942217999371,None,,P030,FENCOG,2,Pre,2022_Mar_11_1127,N-Back (New Version 2021),2021.1.4,119.71531703823763,
,,,,Conditions/Version_1/oneback(2)_v1.xlsx,New rule: Press 'space' when you see 1-back (i.e. the same letter as the one that appeared 1 letter ago.),Q,space,,,,,,,,,0,4,4,4,0,1,1,1,,,,,,,,,,,,,,,,,,,,,,,,,,,,,,,,,,,,,,,,,,,,,,,,,,,,,,,,,,,,,,,,,,,,,1.3262,716.1278060999466,None,space,1,716.1278060999466,None,0.7665860999841243,P030,FENCOG,2,Pre,2022_Mar_11_1127,N-Back (New Version 2021),2021.1.4,119.71531703823763,
,,,,Conditions/Version_1/oneback(2)_v1.xlsx,New rule: Press 'space' when you see 1-back (i.e. the same letter as the one that appeared 1 letter ago.),P,None,,,,,,,,,0,4,4,4,0,2,2,2,,,,,,,,,,,,,,,,,,,,,,,,,,,,,,,,,,,,,,,,,,,,,,,,,,,,,,,,,,,,,,,,,,,,,1.351,719.4937201000284,None,None,1,719.4937201000284,None,,P030,FENCOG,2,Pre,2022_Mar_11_1127,N-Back (New Version 2021),2021.1.4,119.71531703823763,
,,,,Conditions/Version_1/oneback(2)_v1.xlsx,New rule: Press 'space' when you see 1-back (i.e. the same letter as the one that appeared 1 letter ago.),o,None,,,,,,,,,0,4,4,4,0,3,3,3,,,,,,,,,,,,,,,,,,,,,,,,,,,,,,,,,,,,,,,,,,,,,,,,,,,,,,,,,,,,,,,,,,,,,1.3324,722.8336255999748,None,None,1,722.8336255999748,None,,P030,FENCOG,2,Pre,2022_Mar_11_1127,N-Back (New Version 2021),2021.1.4,119.71531703823763,
,,,,Conditions/Version_1/oneback(2)_v1.xlsx,New rule: Press 'space' when you see 1-back (i.e. the same letter as the one that appeared 1 letter ago.),m,None,,,,,,,,,0,4,4,4,0,4,4,4,,,,,,,,,,,,,,,,,,,,,,,,,,,,,,,,,,,,,,,,,,,,,,,,,,,,,,,,,,,,,,,,,,,,,1.816,726.6570186000317,None,None,1,726.6570186000317,None,,P030,FENCOG,2,Pre,2022_Mar_11_1127,N-Back (New Version 2021),2021.1.4,119.71531703823763,
,,,,Conditions/Version_1/oneback(2)_v1.xlsx,New rule: Press 'space' when you see 1-back (i.e. the same letter as the one that appeared 1 letter ago.),Z,None,,,,,,,,,0,4,4,4,0,5,5,5,,,,,,,,,,,,,,,,,,,,,,,,,,,,,,,,,,,,,,,,,,,,,,,,,,,,,,,,,,,,,,,,,,,,,1.4812,730.1494672000408,None,None,1,730.1494672000408,None,,P030,FENCOG,2,Pre,2022_Mar_11_1127,N-Back (New Version 2021),2021.1.4,119.71531703823763,
,,,,Conditions/Version_1/oneback(2)_v1.xlsx,New rule: Press 'space' when you see 1-back (i.e. the same letter as the one that appeared 1 letter ago.),c,None,,,,,,,,,0,4,4,4,0,6,6,6,,,,,,,,,,,,,,,,,,,,,,,,,,,,,,,,,,,,,,,,,,,,,,,,,,,,,,,,,,,,,,,,,,,,,1.661,733.8132970000152,None,None,1,733.8132970000152,None,,P030,FENCOG,2,Pre,2022_Mar_11_1127,N-Back (New Version 2021),2021.1.4,119.71531703823763,
,,,,Conditions/Version_1/oneback(2)_v1.xlsx,New rule: Press 'space' when you see 1-back (i.e. the same letter as the one that appeared 1 letter ago.),c,space,,,,,,,,,0,4,4,4,0,7,7,7,,,,,,,,,,,,,,,,,,,,,,,,,,,,,,,,,,,,,,,,,,,,,,,,,,,,,,,,,,,,,,,,,,,,,1.785,737.6121469000354,None,space,1,737.6121469000354,None,0.48215290007647127,P030,FENCOG,2,Pre,2022_Mar_11_1127,N-Back (New Version 2021),2021.1.4,119.71531703823763,
,,,,Conditions/Version_1/oneback(2)_v1.xlsx,New rule: Press 'space' when you see 1-back (i.e. the same letter as the one that appeared 1 letter ago.),P,None,,,,,,,,,0,4,4,4,0,8,8,8,,,,,,,,,,,,,,,,,,,,,,,,,,,,,,,,,,,,,,,,,,,,,,,,,,,,,,,,,,,,,,,,,,,,,1.196,740.8111514999764,None,None,1,740.8111514999764,None,,P030,FENCOG,2,Pre,2022_Mar_11_1127,N-Back (New Version 2021),2021.1.4,119.71531703823763,
,,,,Conditions/Version_1/oneback(2)_v1.xlsx,New rule: Press 'space' when you see 1-back (i.e. the same letter as the one that appeared 1 letter ago.),p,space,,,,,,,,,0,4,4,4,0,9,9,9,,,,,,,,,,,,,,,,,,,,,,,,,,,,,,,,,,,,,,,,,,,,,,,,,,,,,,,,,,,,,,,,,,,,,1.0782,743.8936403000262,None,space,1,743.8936403000262,None,0.6406771000474691,P030,FENCOG,2,Pre,2022_Mar_11_1127,N-Back (New Version 2021),2021.1.4,119.71531703823763,
,,,,Conditions/Version_1/oneback(2)_v1.xlsx,New rule: Press 'space' when you see 1-back (i.e. the same letter as the one that appeared 1 letter ago.),,,,,,,,,,,0,4,4,4,,,,,,,,,,,,,,,,,,,,,,,,,,,,,,,,,,,,,,,,,,,,,,,,,,,,,,,,,,,,,,,,,,,,,,,,,,,,,,,,,P030,FENCOG,2,Pre,2022_Mar_11_1127,N-Back (New Version 2021),2021.1.4,119.71531703823763,
,,,,Conditions/Version_1/zeroback(2)_v1.xlsx,New rule: Press 'space' when you see the letter 'x' or 'X'.,p,None,,,,,,,,,0,5,5,5,0,0,0,0,,,,,,,,,,,,,,,,,,,,,,,,,,,,,,,,,,,,,,,,,,,,,,,,,,,,,,,,,,,745.9126839999808,None,748.9024116999935,None,space,1.431697699939832,748.9024116999935,None,745.9126839999808,None,1.5494,751.9162522000261,None,None,1,751.9162522000261,None,,P030,FENCOG,2,Pre,2022_Mar_11_1127,N-Back (New Version 2021),2021.1.4,119.71531703823763,
,,,,Conditions/Version_1/zeroback(2)_v1.xlsx,New rule: Press 'space' when you see the letter 'x' or 'X'.,L,None,,,,,,,,,0,5,5,5,0,1,1,1,,,,,,,,,,,,,,,,,,,,,,,,,,,,,,,,,,,,,,,,,,,,,,,,,,,,,,,,,,,,,,,,,,,,,1.506,755.4242093999637,None,None,1,755.4242093999637,None,,P030,FENCOG,2,Pre,2022_Mar_11_1127,N-Back (New Version 2021),2021.1.4,119.71531703823763,
,,,,Conditions/Version_1/zeroback(2)_v1.xlsx,New rule: Press 'space' when you see the letter 'x' or 'X'.,G,None,,,,,,,,,0,5,5,5,0,2,2,2,,,,,,,,,,,,,,,,,,,,,,,,,,,,,,,,,,,,,,,,,,,,,,,,,,,,,,,,,,,,,,,,,,,,,1.1092,758.5503659000387,None,None,1,758.5503659000387,None,,P030,FENCOG,2,Pre,2022_Mar_11_1127,N-Back (New Version 2021),2021.1.4,119.71531703823763,
,,,,Conditions/Version_1/zeroback(2)_v1.xlsx,New rule: Press 'space' when you see the letter 'x' or 'X'.,y,None,,,,,,,,,0,5,5,5,0,3,3,3,,,,,,,,,,,,,,,,,,,,,,,,,,,,,,,,,,,,,,,,,,,,,,,,,,,,,,,,,,,,,,,,,,,,,1.3386,761.8977798999986,None,None,1,761.8977798999986,None,,P030,FENCOG,2,Pre,2022_Mar_11_1127,N-Back (New Version 2021),2021.1.4,119.71531703823763,
,,,,Conditions/Version_1/zeroback(2)_v1.xlsx,New rule: Press 'space' when you see the letter 'x' or 'X'.,Y,None,,,,,,,,,0,5,5,5,0,4,4,4,,,,,,,,,,,,,,,,,,,,,,,,,,,,,,,,,,,,,,,,,,,,,,,,,,,,,,,,,,,,,,,,,,,,,1.5308,765.437051899964,None,space,0,765.437051899964,None,1.8972972000483423,P030,FENCOG,2,Pre,2022_Mar_11_1127,N-Back (New Version 2021),2021.1.4,119.71531703823763,
,,,,Conditions/Version_1/zeroback(2)_v1.xlsx,New rule: Press 'space' when you see the letter 'x' or 'X'.,W,None,,,,,,,,,0,5,5,5,0,5,5,5,,,,,,,,,,,,,,,,,,,,,,,,,,,,,,,,,,,,,,,,,,,,,,,,,,,,,,,,,,,,,,,,,,,,,1.5804,769.020121700014,None,None,1,769.020121700014,None,,P030,FENCOG,2,Pre,2022_Mar_11_1127,N-Back (New Version 2021),2021.1.4,119.71531703823763,
,,,,Conditions/Version_1/zeroback(2)_v1.xlsx,New rule: Press 'space' when you see the letter 'x' or 'X'.,x,space,,,,,,,,,0,5,5,5,0,6,6,6,,,,,,,,,,,,,,,,,,,,,,,,,,,,,,,,,,,,,,,,,,,,,,,,,,,,,,,,,,,,,,,,,,,,,1.0348,772.0684488000115,None,space,1,772.0684488000115,None,0.5378082999959588,P030,FENCOG,2,Pre,2022_Mar_11_1127,N-Back (New Version 2021),2021.1.4,119.71531703823763,
,,,,Conditions/Version_1/zeroback(2)_v1.xlsx,New rule: Press 'space' when you see the letter 'x' or 'X'.,X,space,,,,,,,,,0,5,5,5,0,7,7,7,,,,,,,,,,,,,,,,,,,,,,,,,,,,,,,,,,,,,,,,,,,,,,,,,,,,,,,,,,,,,,,,,,,,,1.8222,775.8936764999526,None,space,1,775.8936764999526,None,0.7048359999898821,P030,FENCOG,2,Pre,2022_Mar_11_1127,N-Back (New Version 2021),2021.1.4,119.71531703823763,
,,,,Conditions/Version_1/zeroback(2)_v1.xlsx,New rule: Press 'space' when you see the letter 'x' or 'X'.,p,None,,,,,,,,,0,5,5,5,0,8,8,8,,,,,,,,,,,,,,,,,,,,,,,,,,,,,,,,,,,,,,,,,,,,,,,,,,,,,,,,,,,,,,,,,,,,,1.8098,779.7162274000002,None,None,1,779.7162274000002,None,,P030,FENCOG,2,Pre,2022_Mar_11_1127,N-Back (New Version 2021),2021.1.4,119.71531703823763,
,,,,Conditions/Version_1/zeroback(2)_v1.xlsx,New rule: Press 'space' when you see the letter 'x' or 'X'.,h,None,,,,,,,,,0,5,5,5,0,9,9,9,,,,,,,,,,,,,,,,,,,,,,,,,,,,,,,,,,,,,,,,,,,,,,,,,,,,,,,,,,,,,,,,,,,,,1.2704,782.9902074999409,None,None,1,782.9902074999409,None,,P030,FENCOG,2,Pre,2022_Mar_11_1127,N-Back (New Version 2021),2021.1.4,119.71531703823763,
,,,,Conditions/Version_1/zeroback(2)_v1.xlsx,New rule: Press 'space' when you see the letter 'x' or 'X'.,,,,,,,,,,,0,5,5,5,,,,,,,,,,,,,,,,,,,,,,,,,,,,,,,,,,,,,,,,,,,,,,,,,,,,,,,,,,,,,,,,,,,,,,,,,,,,,,,,,P030,FENCOG,2,Pre,2022_Mar_11_1127,N-Back (New Version 2021),2021.1.4,119.71531703823763,
,,,,Conditions/Version_1/threeback(2)_v1.xlsx,New rule: Press 'space' when you see 3-back (i.e. the same letter as the one that appeared 3 letters ago.),q,None,,,,,,,,,0,6,6,6,0,0,0,0,,,,,,,,,,,,,,,,,,,,,,,,,,,,,,,,,,,,,,,,,,,,,,,,,,,,,,,,,,,785.0138286999427,None,788.0007701000432,None,space,15.245391999953426,788.0007701000432,None,785.0138286999427,None,1.754,805.0258883000351,None,None,1,805.0258883000351,None,,P030,FENCOG,2,Pre,2022_Mar_11_1127,N-Back (New Version 2021),2021.1.4,119.71531703823763,
,,,,Conditions/Version_1/threeback(2)_v1.xlsx,New rule: Press 'space' when you see 3-back (i.e. the same letter as the one that appeared 3 letters ago.),Y,None,,,,,,,,,0,6,6,6,0,1,1,1,,,,,,,,,,,,,,,,,,,,,,,,,,,,,,,,,,,,,,,,,,,,,,,,,,,,,,,,,,,,,,,,,,,,,1.413,808.4418979999609,None,None,1,808.4418979999609,None,,P030,FENCOG,2,Pre,2022_Mar_11_1127,N-Back (New Version 2021),2021.1.4,119.71531703823763,
,,,,Conditions/Version_1/threeback(2)_v1.xlsx,New rule: Press 'space' when you see 3-back (i.e. the same letter as the one that appeared 3 letters ago.),p,None,,,,,,,,,0,6,6,6,0,2,2,2,,,,,,,,,,,,,,,,,,,,,,,,,,,,,,,,,,,,,,,,,,,,,,,,,,,,,,,,,,,,,,,,,,,,,1.3076,811.7569054999622,None,None,1,811.7569054999622,None,,P030,FENCOG,2,Pre,2022_Mar_11_1127,N-Back (New Version 2021),2021.1.4,119.71531703823763,
,,,,Conditions/Version_1/threeback(2)_v1.xlsx,New rule: Press 'space' when you see 3-back (i.e. the same letter as the one that appeared 3 letters ago.),p,None,,,,,,,,,0,6,6,6,0,3,3,3,,,,,,,,,,,,,,,,,,,,,,,,,,,,,,,,,,,,,,,,,,,,,,,,,,,,,,,,,,,,,,,,,,,,,1.2208,814.9809790999861,None,None,1,814.9809790999861,None,,P030,FENCOG,2,Pre,2022_Mar_11_1127,N-Back (New Version 2021),2021.1.4,119.71531703823763,
,,,,Conditions/Version_1/threeback(2)_v1.xlsx,New rule: Press 'space' when you see 3-back (i.e. the same letter as the one that appeared 3 letters ago.),y,space,,,,,,,,,0,6,6,6,0,4,4,4,,,,,,,,,,,,,,,,,,,,,,,,,,,,,,,,,,,,,,,,,,,,,,,,,,,,,,,,,,,,,,,,,,,,,1.7664,818.7463901999872,None,space,1,818.7463901999872,None,1.6678006000583991,P030,FENCOG,2,Pre,2022_Mar_11_1127,N-Back (New Version 2021),2021.1.4,119.71531703823763,
,,,,Conditions/Version_1/threeback(2)_v1.xlsx,New rule: Press 'space' when you see 3-back (i.e. the same letter as the one that appeared 3 letters ago.),u,None,,,,,,,,,0,6,6,6,0,5,5,5,,,,,,,,,,,,,,,,,,,,,,,,,,,,,,,,,,,,,,,,,,,,,,,,,,,,,,,,,,,,,,,,,,,,,1.072,821.8212126999861,None,None,1,821.8212126999861,None,,P030,FENCOG,2,Pre,2022_Mar_11_1127,N-Back (New Version 2021),2021.1.4,119.71531703823763,
,,,,Conditions/Version_1/threeback(2)_v1.xlsx,New rule: Press 'space' when you see 3-back (i.e. the same letter as the one that appeared 3 letters ago.),P,space,,,,,,,,,0,6,6,6,0,6,6,6,,,,,,,,,,,,,,,,,,,,,,,,,,,,,,,,,,,,,,,,,,,,,,,,,,,,,,,,,,,,,,,,,,,,,1.8346,825.6693287999369,None,None,0,825.6693287999369,None,,P030,FENCOG,2,Pre,2022_Mar_11_1127,N-Back (New Version 2021),2021.1.4,119.71531703823763,
,,,,Conditions/Version_1/threeback(2)_v1.xlsx,New rule: Press 'space' when you see 3-back (i.e. the same letter as the one that appeared 3 letters ago.),a,None,,,,,,,,,0,6,6,6,0,7,7,7,,,,,,,,,,,,,,,,,,,,,,,,,,,,,,,,,,,,,,,,,,,,,,,,,,,,,,,,,,,,,,,,,,,,,1.8098,829.4866262000287,None,None,1,829.4866262000287,None,,P030,FENCOG,2,Pre,2022_Mar_11_1127,N-Back (New Version 2021),2021.1.4,119.71531703823763,
,,,,Conditions/Version_1/threeback(2)_v1.xlsx,New rule: Press 'space' when you see 3-back (i.e. the same letter as the one that appeared 3 letters ago.),U,space,,,,,,,,,0,6,6,6,0,8,8,8,,,,,,,,,,,,,,,,,,,,,,,,,,,,,,,,,,,,,,,,,,,,,,,,,,,,,,,,,,,,,,,,,,,,,1.0658,832.5588286999846,None,space,1,832.5588286999846,None,1.1195252999896184,P030,FENCOG,2,Pre,2022_Mar_11_1127,N-Back (New Version 2021),2021.1.4,119.71531703823763,
,,,,Conditions/Version_1/threeback(2)_v1.xlsx,New rule: Press 'space' when you see 3-back (i.e. the same letter as the one that appeared 3 letters ago.),q,None,,,,,,,,,0,6,6,6,0,9,9,9,,,,,,,,,,,,,,,,,,,,,,,,,,,,,,,,,,,,,,,,,,,,,,,,,,,,,,,,,,,,,,,,,,,,,1.5494,836.107942600036,None,None,1,836.107942600036,None,,P030,FENCOG,2,Pre,2022_Mar_11_1127,N-Back (New Version 2021),2021.1.4,119.71531703823763,
,,,,Conditions/Version_1/threeback(2)_v1.xlsx,New rule: Press 'space' when you see 3-back (i.e. the same letter as the one that appeared 3 letters ago.),,,,,,,,,,,0,6,6,6,,,,,,,,,,,,,,,,,,,,,,,,,,,,,,,,,,,,,,,,,,,,,,,,,,,,,,,,,,,,,,,,,,,,,,,,,,,,,,,,,P030,FENCOG,2,Pre,2022_Mar_11_1127,N-Back (New Version 2021),2021.1.4,119.71531703823763,
,,,,Conditions/Version_1/twoback(2)_v1.xlsx,New rule: Press 'space' when you see 2-back (i.e. the same letter as the one that appeared 2 letters ago.),q,None,,,,,,,,,0,7,7,7,0,0,0,0,,,,,,,,,,,,,,,,,,,,,,,,,,,,,,,,,,,,,,,,,,,,,,,,,,,,,,,,,,,838.1312800999731,None,841.117046099971,None,space,12.025264400057495,841.117046099971,None,838.1312800999731,None,1.1836,854.3527719000122,None,None,1,854.3527719000122,None,,P030,FENCOG,2,Pre,2022_Mar_11_1127,N-Back (New Version 2021),2021.1.4,119.71531703823763,
,,,,Conditions/Version_1/twoback(2)_v1.xlsx,New rule: Press 'space' when you see 2-back (i.e. the same letter as the one that appeared 2 letters ago.),r,None,,,,,,,,,0,7,7,7,0,1,1,1,,,,,,,,,,,,,,,,,,,,,,,,,,,,,,,,,,,,,,,,,,,,,,,,,,,,,,,,,,,,,,,,,,,,,1.041,857.3943598000333,None,None,1,857.3943598000333,None,,P030,FENCOG,2,Pre,2022_Mar_11_1127,N-Back (New Version 2021),2021.1.4,119.71531703823763,
,,,,Conditions/Version_1/twoback(2)_v1.xlsx,New rule: Press 'space' when you see 2-back (i.e. the same letter as the one that appeared 2 letters ago.),q,space,,,,,,,,,0,7,7,7,0,2,2,2,,,,,,,,,,,,,,,,,,,,,,,,,,,,,,,,,,,,,,,,,,,,,,,,,,,,,,,,,,,,,,,,,,,,,1.289,860.6848162999377,None,space,1,860.6848162999377,None,0.8015601999359205,P030,FENCOG,2,Pre,2022_Mar_11_1127,N-Back (New Version 2021),2021.1.4,119.71531703823763,
,,,,Conditions/Version_1/twoback(2)_v1.xlsx,New rule: Press 'space' when you see 2-back (i.e. the same letter as the one that appeared 2 letters ago.),P,None,,,,,,,,,0,7,7,7,0,3,3,3,,,,,,,,,,,,,,,,,,,,,,,,,,,,,,,,,,,,,,,,,,,,,,,,,,,,,,,,,,,,,,,,,,,,,1.3386,864.0350708999904,None,None,1,864.0350708999904,None,,P030,FENCOG,2,Pre,2022_Mar_11_1127,N-Back (New Version 2021),2021.1.4,119.71531703823763,
,,,,Conditions/Version_1/twoback(2)_v1.xlsx,New rule: Press 'space' when you see 2-back (i.e. the same letter as the one that appeared 2 letters ago.),p,None,,,,,,,,,0,7,7,7,0,4,4,4,,,,,,,,,,,,,,,,,,,,,,,,,,,,,,,,,,,,,,,,,,,,,,,,,,,,,,,,,,,,,,,,,,,,,1.7106,867.7571271000197,None,None,1,867.7571271000197,None,,P030,FENCOG,2,Pre,2022_Mar_11_1127,N-Back (New Version 2021),2021.1.4,119.71531703823763,
,,,,Conditions/Version_1/twoback(2)_v1.xlsx,New rule: Press 'space' when you see 2-back (i.e. the same letter as the one that appeared 2 letters ago.),H,None,,,,,,,,,0,7,7,7,0,5,5,5,,,,,,,,,,,,,,,,,,,,,,,,,,,,,,,,,,,,,,,,,,,,,,,,,,,,,,,,,,,,,,,,,,,,,1.9276,871.6913404000225,None,None,1,871.6913404000225,None,,P030,FENCOG,2,Pre,2022_Mar_11_1127,N-Back (New Version 2021),2021.1.4,119.71531703823763,
,,,,Conditions/Version_1/twoback(2)_v1.xlsx,New rule: Press 'space' when you see 2-back (i.e. the same letter as the one that appeared 2 letters ago.),g,None,,,,,,,,,0,7,7,7,0,6,6,6,,,,,,,,,,,,,,,,,,,,,,,,,,,,,,,,,,,,,,,,,,,,,,,,,,,,,,,,,,,,,,,,,,,,,1.9896,875.6894489999395,None,None,1,875.6894489999395,None,,P030,FENCOG,2,Pre,2022_Mar_11_1127,N-Back (New Version 2021),2021.1.4,119.71531703823763,
,,,,Conditions/Version_1/twoback(2)_v1.xlsx,New rule: Press 'space' when you see 2-back (i.e. the same letter as the one that appeared 2 letters ago.),j,None,,,,,,,,,0,7,7,7,0,7,7,7,,,,,,,,,,,,,,,,,,,,,,,,,,,,,,,,,,,,,,,,,,,,,,,,,,,,,,,,,,,,,,,,,,,,,1.0348,878.7370233000256,None,None,1,878.7370233000256,None,,P030,FENCOG,2,Pre,2022_Mar_11_1127,N-Back (New Version 2021),2021.1.4,119.71531703823763,
,,,,Conditions/Version_1/twoback(2)_v1.xlsx,New rule: Press 'space' when you see 2-back (i.e. the same letter as the one that appeared 2 letters ago.),g,space,,,,,,,,,0,7,7,7,0,8,8,8,,,,,,,,,,,,,,,,,,,,,,,,,,,,,,,,,,,,,,,,,,,,,,,,,,,,,,,,,,,,,,,,,,,,,1.6796,882.4219493999844,None,space,1,882.4219493999844,None,0.96014149999246,P030,FENCOG,2,Pre,2022_Mar_11_1127,N-Back (New Version 2021),2021.1.4,119.71531703823763,
,,,,Conditions/Version_1/twoback(2)_v1.xlsx,New rule: Press 'space' when you see 2-back (i.e. the same letter as the one that appeared 2 letters ago.),G,None,,,,,,,,,0,7,7,7,0,9,9,9,,,,,,,,,,,,,,,,,,,,,,,,,,,,,,,,,,,,,,,,,,,,,,,,,,,,,,,,,,,,,,,,,,,,,1.5246,885.9519922999898,None,None,1,885.9519922999898,None,,P030,FENCOG,2,Pre,2022_Mar_11_1127,N-Back (New Version 2021),2021.1.4,119.71531703823763,
,,,,Conditions/Version_1/twoback(2)_v1.xlsx,New rule: Press 'space' when you see 2-back (i.e. the same letter as the one that appeared 2 letters ago.),,,,,,,,,,,0,7,7,7,,,,,,,,,,,,,,,,,,,,,,,,,,,,,,,,,,,,,,,,,,,,,,,,,,,,,,,,,,,,,,,,,,,,,,,,,,,,,,,,,P030,FENCOG,2,Pre,2022_Mar_11_1127,N-Back (New Version 2021),2021.1.4,119.71531703823763,
,,,,Conditions/Version_1/threeback(3)_v1.xlsx,New rule: Press 'space' when you see 3-back (i.e. the same letter as the one that appeared 3 letters ago.),w,None,,,,,,,,,0,8,8,8,0,0,0,0,,,,,,,,,,,,,,,,,,,,,,,,,,,,,,,,,,,,,,,,,,,,,,,,,,,,,,,,,,,887.977648,None,890.9603747000219,None,space,9.245757899945602,890.9603747000219,None,887.977648,None,1.9524,902.1884388999315,None,None,1,902.1884388999315,None,,P030,FENCOG,2,Pre,2022_Mar_11_1127,N-Back (New Version 2021),2021.1.4,119.71531703823763,
,,,,Conditions/Version_1/threeback(3)_v1.xlsx,New rule: Press 'space' when you see 3-back (i.e. the same letter as the one that appeared 3 letters ago.),p,None,,,,,,,,,0,8,8,8,0,1,1,1,,,,,,,,,,,,,,,,,,,,,,,,,,,,,,,,,,,,,,,,,,,,,,,,,,,,,,,,,,,,,,,,,,,,,1.8842,906.0789337999886,None,None,1,906.0789337999886,None,,P030,FENCOG,2,Pre,2022_Mar_11_1127,N-Back (New Version 2021),2021.1.4,119.71531703823763,
,,,,Conditions/Version_1/threeback(3)_v1.xlsx,New rule: Press 'space' when you see 3-back (i.e. the same letter as the one that appeared 3 letters ago.),P,None,,,,,,,,,0,8,8,8,0,2,2,2,,,,,,,,,,,,,,,,,,,,,,,,,,,,,,,,,,,,,,,,,,,,,,,,,,,,,,,,,,,,,,,,,,,,,1.1464,909.2305537000066,None,None,1,909.2305537000066,None,,P030,FENCOG,2,Pre,2022_Mar_11_1127,N-Back (New Version 2021),2021.1.4,119.71531703823763,
,,,,Conditions/Version_1/threeback(3)_v1.xlsx,New rule: Press 'space' when you see 3-back (i.e. the same letter as the one that appeared 3 letters ago.),i,None,,,,,,,,,0,8,8,8,0,3,3,3,,,,,,,,,,,,,,,,,,,,,,,,,,,,,,,,,,,,,,,,,,,,,,,,,,,,,,,,,,,,,,,,,,,,,1.4006,912.6352462000214,None,None,1,912.6352462000214,None,,P030,FENCOG,2,Pre,2022_Mar_11_1127,N-Back (New Version 2021),2021.1.4,119.71531703823763,
,,,,Conditions/Version_1/threeback(3)_v1.xlsx,New rule: Press 'space' when you see 3-back (i.e. the same letter as the one that appeared 3 letters ago.),f,None,,,,,,,,,0,8,8,8,0,4,4,4,,,,,,,,,,,,,,,,,,,,,,,,,,,,,,,,,,,,,,,,,,,,,,,,,,,,,,,,,,,,,,,,,,,,,1.6424,916.2859730999917,None,None,1,916.2859730999917,None,,P030,FENCOG,2,Pre,2022_Mar_11_1127,N-Back (New Version 2021),2021.1.4,119.71531703823763,
,,,,Conditions/Version_1/threeback(3)_v1.xlsx,New rule: Press 'space' when you see 3-back (i.e. the same letter as the one that appeared 3 letters ago.),o,None,,,,,,,,,0,8,8,8,0,5,5,5,,,,,,,,,,,,,,,,,,,,,,,,,,,,,,,,,,,,,,,,,,,,,,,,,,,,,,,,,,,,,,,,,,,,,1.9896,920.2839116000105,None,None,1,920.2839116000105,None,,P030,FENCOG,2,Pre,2022_Mar_11_1127,N-Back (New Version 2021),2021.1.4,119.71531703823763,
,,,,Conditions/Version_1/threeback(3)_v1.xlsx,New rule: Press 'space' when you see 3-back (i.e. the same letter as the one that appeared 3 letters ago.),w,None,,,,,,,,,0,8,8,8,0,6,6,6,,,,,,,,,,,,,,,,,,,,,,,,,,,,,,,,,,,,,,,,,,,,,,,,,,,,,,,,,,,,,,,,,,,,,1.3758,923.666295700008,None,None,1,923.666295700008,None,,P030,FENCOG,2,Pre,2022_Mar_11_1127,N-Back (New Version 2021),2021.1.4,119.71531703823763,
,,,,Conditions/Version_1/threeback(3)_v1.xlsx,New rule: Press 'space' when you see 3-back (i.e. the same letter as the one that appeared 3 letters ago.),F,space,,,,,,,,,0,8,8,8,0,7,7,7,,,,,,,,,,,,,,,,,,,,,,,,,,,,,,,,,,,,,,,,,,,,,,,,,,,,,,,,,,,,,,,,,,,,,1.7788,927.456115399953,None,space,1,927.456115399953,None,1.6859248999971896,P030,FENCOG,2,Pre,2022_Mar_11_1127,N-Back (New Version 2021),2021.1.4,119.71531703823763,
,,,,Conditions/Version_1/threeback(3)_v1.xlsx,New rule: Press 'space' when you see 3-back (i.e. the same letter as the one that appeared 3 letters ago.),p,None,,,,,,,,,0,8,8,8,0,8,8,8,,,,,,,,,,,,,,,,,,,,,,,,,,,,,,,,,,,,,,,,,,,,,,,,,,,,,,,,,,,,,,,,,,,,,1.6114,931.0715685000177,None,None,1,931.0715685000177,None,,P030,FENCOG,2,Pre,2022_Mar_11_1127,N-Back (New Version 2021),2021.1.4,119.71531703823763,
,,,,Conditions/Version_1/threeback(3)_v1.xlsx,New rule: Press 'space' when you see 3-back (i.e. the same letter as the one that appeared 3 letters ago.),W,space,,,,,,,,,0,8,8,8,0,9,9,9,,,,,,,,,,,,,,,,,,,,,,,,,,,,,,,,,,,,,,,,,,,,,,,,,,,,,,,,,,,,,,,,,,,,,1.8532,934.9289354999783,None,None,0,934.9289354999783,None,,P030,FENCOG,2,Pre,2022_Mar_11_1127,N-Back (New Version 2021),2021.1.4,119.71531703823763,
,,,,Conditions/Version_1/threeback(3)_v1.xlsx,New rule: Press 'space' when you see 3-back (i.e. the same letter as the one that appeared 3 letters ago.),,,,,,,,,,,0,8,8,8,,,,,,,,,,,,,,,,,,,,,,,,,,,,,,,,,,,,,,,,,,,,,,,,,,,,,,,,,,,,,,,,,,,,,,,,,,,,,,,,,P030,FENCOG,2,Pre,2022_Mar_11_1127,N-Back (New Version 2021),2021.1.4,119.71531703823763,
,,,,Conditions/Version_1/zeroback(3)_v1.xlsx,New rule: Press 'space' when you see the letter 'x' or 'X'.,X,space,,,,,,,,,0,9,9,9,0,0,0,0,,,,,,,,,,,,,,,,,,,,,,,,,,,,,,,,,,,,,,,,,,,,,,,,,,,,,,,,,,,936.9520794999553,None,939.9377421999816,None,space,1.948409500066191,939.9377421999816,None,936.9520794999553,None,1.5928,943.5097851000028,None,space,1,943.5097851000028,None,0.8166899000061676,P030,FENCOG,2,Pre,2022_Mar_11_1127,N-Back (New Version 2021),2021.1.4,119.71531703823763,
,,,,Conditions/Version_1/zeroback(3)_v1.xlsx,New rule: Press 'space' when you see the letter 'x' or 'X'.,B,None,,,,,,,,,0,9,9,9,0,1,1,1,,,,,,,,,,,,,,,,,,,,,,,,,,,,,,,,,,,,,,,,,,,,,,,,,,,,,,,,,,,,,,,,,,,,,1.7664,947.2764770999784,None,None,1,947.2764770999784,None,,P030,FENCOG,2,Pre,2022_Mar_11_1127,N-Back (New Version 2021),2021.1.4,119.71531703823763,
,,,,Conditions/Version_1/zeroback(3)_v1.xlsx,New rule: Press 'space' when you see the letter 'x' or 'X'.,m,None,,,,,,,,,0,9,9,9,0,2,2,2,,,,,,,,,,,,,,,,,,,,,,,,,,,,,,,,,,,,,,,,,,,,,,,,,,,,,,,,,,,,,,,,,,,,,1.847,951.133349700016,None,None,1,951.133349700016,None,,P030,FENCOG,2,Pre,2022_Mar_11_1127,N-Back (New Version 2021),2021.1.4,119.71531703823763,
,,,,Conditions/Version_1/zeroback(3)_v1.xlsx,New rule: Press 'space' when you see the letter 'x' or 'X'.,m,None,,,,,,,,,0,9,9,9,0,3,3,3,,,,,,,,,,,,,,,,,,,,,,,,,,,,,,,,,,,,,,,,,,,,,,,,,,,,,,,,,,,,,,,,,,,,,1.4192,954.5646694999887,None,None,1,954.5646694999887,None,,P030,FENCOG,2,Pre,2022_Mar_11_1127,N-Back (New Version 2021),2021.1.4,119.71531703823763,
,,,,Conditions/Version_1/zeroback(3)_v1.xlsx,New rule: Press 'space' when you see the letter 'x' or 'X'.,o,None,,,,,,,,,0,9,9,9,0,4,4,4,,,,,,,,,,,,,,,,,,,,,,,,,,,,,,,,,,,,,,,,,,,,,,,,,,,,,,,,,,,,,,,,,,,,,1.7974,958.363806999987,None,None,1,958.363806999987,None,,P030,FENCOG,2,Pre,2022_Mar_11_1127,N-Back (New Version 2021),2021.1.4,119.71531703823763,
,,,,Conditions/Version_1/zeroback(3)_v1.xlsx,New rule: Press 'space' when you see the letter 'x' or 'X'.,p,None,,,,,,,,,0,9,9,9,0,5,5,5,,,,,,,,,,,,,,,,,,,,,,,,,,,,,,,,,,,,,,,,,,,,,,,,,,,,,,,,,,,,,,,,,,,,,1.6734,962.0376159999287,None,None,1,962.0376159999287,None,,P030,FENCOG,2,Pre,2022_Mar_11_1127,N-Back (New Version 2021),2021.1.4,119.71531703823763,
,,,,Conditions/Version_1/zeroback(3)_v1.xlsx,New rule: Press 'space' when you see the letter 'x' or 'X'.,G,None,,,,,,,,,0,9,9,9,0,6,6,6,,,,,,,,,,,,,,,,,,,,,,,,,,,,,,,,,,,,,,,,,,,,,,,,,,,,,,,,,,,,,,,,,,,,,1.1588,965.195664400002,None,None,1,965.195664400002,None,,P030,FENCOG,2,Pre,2022_Mar_11_1127,N-Back (New Version 2021),2021.1.4,119.71531703823763,
,,,,Conditions/Version_1/zeroback(3)_v1.xlsx,New rule: Press 'space' when you see the letter 'x' or 'X'.,X,space,,,,,,,,,0,9,9,9,0,7,7,7,,,,,,,,,,,,,,,,,,,,,,,,,,,,,,,,,,,,,,,,,,,,,,,,,,,,,,,,,,,,,,,,,,,,,1.8718,969.0786521999398,None,space,1,969.0786521999398,None,0.5354290999239311,P030,FENCOG,2,Pre,2022_Mar_11_1127,N-Back (New Version 2021),2021.1.4,119.71531703823763,
,,,,Conditions/Version_1/zeroback(3)_v1.xlsx,New rule: Press 'space' when you see the letter 'x' or 'X'.,p,None,,,,,,,,,0,9,9,9,0,8,8,8,,,,,,,,,,,,,,,,,,,,,,,,,,,,,,,,,,,,,,,,,,,,,,,,,,,,,,,,,,,,,,,,,,,,,1.2208,972.3096285000211,None,None,1,972.3096285000211,None,,P030,FENCOG,2,Pre,2022_Mar_11_1127,N-Back (New Version 2021),2021.1.4,119.71531703823763,
,,,,Conditions/Version_1/zeroback(3)_v1.xlsx,New rule: Press 'space' when you see the letter 'x' or 'X'.,x,space,,,,,,,,,0,9,9,9,0,9,9,9,,,,,,,,,,,,,,,,,,,,,,,,,,,,,,,,,,,,,,,,,,,,,,,,,,,,,,,,,,,,,,,,,,,,,1.4998,975.8083649999462,None,space,1,975.8083649999462,None,0.6777719999663532,P030,FENCOG,2,Pre,2022_Mar_11_1127,N-Back (New Version 2021),2021.1.4,119.71531703823763,
,,,,Conditions/Version_1/zeroback(3)_v1.xlsx,New rule: Press 'space' when you see the letter 'x' or 'X'.,,,,,,,,,,,0,9,9,9,,,,,,,,,,,,,,,,,,,,,,,,,,,,,,,,,,,,,,,,,,,,,,,,,,,,,,,,,,,,,,,,,,,,,,,,,,,,,,,,,P030,FENCOG,2,Pre,2022_Mar_11_1127,N-Back (New Version 2021),2021.1.4,119.71531703823763,
,,,,Conditions/Version_1/twoback(3)_v1.xlsx,New rule: Press 'space' when you see 2-back (i.e. the same letter as the one that appeared 2 letters ago.),e,None,,,,,,,,,0,10,10,10,0,0,0,0,,,,,,,,,,,,,,,,,,,,,,,,,,,,,,,,,,,,,,,,,,,,,,,,,,,,,,,,,,,977.8260905999923,None,980.8175685999449,None,space,0.2686694998992607,980.8175685999449,None,977.8260905999923,None,1.1464,982.2565180000383,None,None,1,982.2565180000383,None,,P030,FENCOG,2,Pre,2022_Mar_11_1127,N-Back (New Version 2021),2021.1.4,119.71531703823763,
,,,,Conditions/Version_1/twoback(3)_v1.xlsx,New rule: Press 'space' when you see 2-back (i.e. the same letter as the one that appeared 2 letters ago.),o,None,,,,,,,,,0,10,10,10,0,1,1,1,,,,,,,,,,,,,,,,,,,,,,,,,,,,,,,,,,,,,,,,,,,,,,,,,,,,,,,,,,,,,,,,,,,,,1.2022,985.4648103000363,None,None,1,985.4648103000363,None,,P030,FENCOG,2,Pre,2022_Mar_11_1127,N-Back (New Version 2021),2021.1.4,119.71531703823763,
,,,,Conditions/Version_1/twoback(3)_v1.xlsx,New rule: Press 'space' when you see 2-back (i.e. the same letter as the one that appeared 2 letters ago.),P,None,,,,,,,,,0,10,10,10,0,2,2,2,,,,,,,,,,,,,,,,,,,,,,,,,,,,,,,,,,,,,,,,,,,,,,,,,,,,,,,,,,,,,,,,,,,,,1.8098,989.2889276000205,None,None,1,989.2889276000205,None,,P030,FENCOG,2,Pre,2022_Mar_11_1127,N-Back (New Version 2021),2021.1.4,119.71531703823763,
,,,,Conditions/Version_1/twoback(3)_v1.xlsx,New rule: Press 'space' when you see 2-back (i.e. the same letter as the one that appeared 2 letters ago.),z,None,,,,,,,,,0,10,10,10,0,3,3,3,,,,,,,,,,,,,,,,,,,,,,,,,,,,,,,,,,,,,,,,,,,,,,,,,,,,,,,,,,,,,,,,,,,,,1.6858,992.9881789999781,None,None,1,992.9881789999781,None,,P030,FENCOG,2,Pre,2022_Mar_11_1127,N-Back (New Version 2021),2021.1.4,119.71531703823763,
,,,,Conditions/Version_1/twoback(3)_v1.xlsx,New rule: Press 'space' when you see 2-back (i.e. the same letter as the one that appeared 2 letters ago.),X,None,,,,,,,,,0,10,10,10,0,4,4,4,,,,,,,,,,,,,,,,,,,,,,,,,,,,,,,,,,,,,,,,,,,,,,,,,,,,,,,,,,,,,,,,,,,,,1.4564,996.4534893999808,None,None,1,996.4534893999808,None,,P030,FENCOG,2,Pre,2022_Mar_11_1127,N-Back (New Version 2021),2021.1.4,119.71531703823763,
,,,,Conditions/Version_1/twoback(3)_v1.xlsx,New rule: Press 'space' when you see 2-back (i.e. the same letter as the one that appeared 2 letters ago.),z,space,,,,,,,,,0,10,10,10,0,5,5,5,,,,,,,,,,,,,,,,,,,,,,,,,,,,,,,,,,,,,,,,,,,,,,,,,,,,,,,,,,,,,,,,,,,,,1.2332,999.6929302000208,None,space,1,999.6929302000208,None,0.881217599962838,P030,FENCOG,2,Pre,2022_Mar_11_1127,N-Back (New Version 2021),2021.1.4,119.71531703823763,
,,,,Conditions/Version_1/twoback(3)_v1.xlsx,New rule: Press 'space' when you see 2-back (i.e. the same letter as the one that appeared 2 letters ago.),x,space,,,,,,,,,0,10,10,10,0,6,6,6,,,,,,,,,,,,,,,,,,,,,,,,,,,,,,,,,,,,,,,,,,,,,,,,,,,,,,,,,,,,,,,,,,,,,1.0782,1002.775617599953,None,None,0,1002.775617599953,None,,P030,FENCOG,2,Pre,2022_Mar_11_1127,N-Back (New Version 2021),2021.1.4,119.71531703823763,
,,,,Conditions/Version_1/twoback(3)_v1.xlsx,New rule: Press 'space' when you see 2-back (i.e. the same letter as the one that appeared 2 letters ago.),c,None,,,,,,,,,0,10,10,10,0,7,7,7,,,,,,,,,,,,,,,,,,,,,,,,,,,,,,,,,,,,,,,,,,,,,,,,,,,,,,,,,,,,,,,,,,,,,1.0534,1005.8358174000168,None,None,1,1005.8358174000168,None,,P030,FENCOG,2,Pre,2022_Mar_11_1127,N-Back (New Version 2021),2021.1.4,119.71531703823763,
,,,,Conditions/Version_1/twoback(3)_v1.xlsx,New rule: Press 'space' when you see 2-back (i.e. the same letter as the one that appeared 2 letters ago.),i,None,,,,,,,,,0,10,10,10,0,8,8,8,,,,,,,,,,,,,,,,,,,,,,,,,,,,,,,,,,,,,,,,,,,,,,,,,,,,,,,,,,,,,,,,,,,,,1.568,1009.4167864000192,None,None,1,1009.4167864000192,None,,P030,FENCOG,2,Pre,2022_Mar_11_1127,N-Back (New Version 2021),2021.1.4,119.71531703823763,
,,,,Conditions/Version_1/twoback(3)_v1.xlsx,New rule: Press 'space' when you see 2-back (i.e. the same letter as the one that appeared 2 letters ago.),C,space,,,,,,,,,0,10,10,10,0,9,9,9,,,,,,,,,,,,,,,,,,,,,,,,,,,,,,,,,,,,,,,,,,,,,,,,,,,,,,,,,,,,,,,,,,,,,1.351,1012.7827637000009,None,space,1,1012.7827637000009,None,0.6953252999810502,P030,FENCOG,2,Pre,2022_Mar_11_1127,N-Back (New Version 2021),2021.1.4,119.71531703823763,
,,,,Conditions/Version_1/twoback(3)_v1.xlsx,New rule: Press 'space' when you see 2-back (i.e. the same letter as the one that appeared 2 letters ago.),,,,,,,,,,,0,10,10,10,,,,,,,,,,,,,,,,,,,,,,,,,,,,,,,,,,,,,,,,,,,,,,,,,,,,,,,,,,,,,,,,,,,,,,,,,,,,,,,,,P030,FENCOG,2,Pre,2022_Mar_11_1127,N-Back (New Version 2021),2021.1.4,119.71531703823763,
,,,,Conditions/Version_1/oneback(3)_v1.xlsx,New rule: Press 'space' when you see 1-back (i.e. the same letter as the one that appeared 1 letter ago.),o,None,,,,,,,,,0,11,11,11,0,0,0,0,,,,,,,,,,,,,,,,,,,,,,,,,,,,,,,,,,,,,,,,,,,,,,,,,,,,,,,,,,,1014.8100637999596,None,1017.7978595999302,None,space,1.2322006999747828,1017.7978595999302,None,1014.8100637999596,None,1.8842,1020.9785097000422,None,None,1,1020.9785097000422,None,,P030,FENCOG,2,Pre,2022_Mar_11_1127,N-Back (New Version 2021),2021.1.4,119.71531703823763,
,,,,Conditions/Version_1/oneback(3)_v1.xlsx,New rule: Press 'space' when you see 1-back (i.e. the same letter as the one that appeared 1 letter ago.),O,space,,,,,,,,,0,11,11,11,0,1,1,1,,,,,,,,,,,,,,,,,,,,,,,,,,,,,,,,,,,,,,,,,,,,,,,,,,,,,,,,,,,,,,,,,,,,,1.7788,1024.760626400006,None,space,1,1024.760626400006,None,0.4696500999853015,P030,FENCOG,2,Pre,2022_Mar_11_1127,N-Back (New Version 2021),2021.1.4,119.71531703823763,
,,,,Conditions/Version_1/oneback(3)_v1.xlsx,New rule: Press 'space' when you see 1-back (i.e. the same letter as the one that appeared 1 letter ago.),h,None,,,,,,,,,0,11,11,11,0,2,2,2,,,,,,,,,,,,,,,,,,,,,,,,,,,,,,,,,,,,,,,,,,,,,,,,,,,,,,,,,,,,,,,,,,,,,1.0286,1027.7937149000354,None,None,1,1027.7937149000354,None,,P030,FENCOG,2,Pre,2022_Mar_11_1127,N-Back (New Version 2021),2021.1.4,119.71531703823763,
,,,,Conditions/Version_1/oneback(3)_v1.xlsx,New rule: Press 'space' when you see 1-back (i.e. the same letter as the one that appeared 1 letter ago.),g,None,,,,,,,,,0,11,11,11,0,3,3,3,,,,,,,,,,,,,,,,,,,,,,,,,,,,,,,,,,,,,,,,,,,,,,,,,,,,,,,,,,,,,,,,,,,,,1.0472,1030.8503558000084,None,None,1,1030.8503558000084,None,,P030,FENCOG,2,Pre,2022_Mar_11_1127,N-Back (New Version 2021),2021.1.4,119.71531703823763,
,,,,Conditions/Version_1/oneback(3)_v1.xlsx,New rule: Press 'space' when you see 1-back (i.e. the same letter as the one that appeared 1 letter ago.),n,None,,,,,,,,,0,11,11,11,0,4,4,4,,,,,,,,,,,,,,,,,,,,,,,,,,,,,,,,,,,,,,,,,,,,,,,,,,,,,,,,,,,,,,,,,,,,,1.1526,1034.0092074000277,None,None,1,1034.0092074000277,None,,P030,FENCOG,2,Pre,2022_Mar_11_1127,N-Back (New Version 2021),2021.1.4,119.71531703823763,
,,,,Conditions/Version_1/oneback(3)_v1.xlsx,New rule: Press 'space' when you see 1-back (i.e. the same letter as the one that appeared 1 letter ago.),z,None,,,,,,,,,0,11,11,11,0,5,5,5,,,,,,,,,,,,,,,,,,,,,,,,,,,,,,,,,,,,,,,,,,,,,,,,,,,,,,,,,,,,,,,,,,,,,1.94,1037.9567224000348,None,None,1,1037.9567224000348,None,,P030,FENCOG,2,Pre,2022_Mar_11_1127,N-Back (New Version 2021),2021.1.4,119.71531703823763,
,,,,Conditions/Version_1/oneback(3)_v1.xlsx,New rule: Press 'space' when you see 1-back (i.e. the same letter as the one that appeared 1 letter ago.),X,None,,,,,,,,,0,11,11,11,0,6,6,6,,,,,,,,,,,,,,,,,,,,,,,,,,,,,,,,,,,,,,,,,,,,,,,,,,,,,,,,,,,,,,,,,,,,,1.4688,1041.4306882999372,None,None,1,1041.4306882999372,None,,P030,FENCOG,2,Pre,2022_Mar_11_1127,N-Back (New Version 2021),2021.1.4,119.71531703823763,
,,,,Conditions/Version_1/oneback(3)_v1.xlsx,New rule: Press 'space' when you see 1-back (i.e. the same letter as the one that appeared 1 letter ago.),r,None,,,,,,,,,0,11,11,11,0,7,7,7,,,,,,,,,,,,,,,,,,,,,,,,,,,,,,,,,,,,,,,,,,,,,,,,,,,,,,,,,,,,,,,,,,,,,1.2084,1044.639632300008,None,None,1,1044.639632300008,None,,P030,FENCOG,2,Pre,2022_Mar_11_1127,N-Back (New Version 2021),2021.1.4,119.71531703823763,
,,,,Conditions/Version_1/oneback(3)_v1.xlsx,New rule: Press 'space' when you see 1-back (i.e. the same letter as the one that appeared 1 letter ago.),r,space,,,,,,,,,0,11,11,11,0,8,8,8,,,,,,,,,,,,,,,,,,,,,,,,,,,,,,,,,,,,,,,,,,,,,,,,,,,,,,,,,,,,,,,,,,,,,1.3138,1047.962150700041,None,space,1,1047.962150700041,None,0.4280659999931231,P030,FENCOG,2,Pre,2022_Mar_11_1127,N-Back (New Version 2021),2021.1.4,119.71531703823763,
,,,,Conditions/Version_1/oneback(3)_v1.xlsx,New rule: Press 'space' when you see 1-back (i.e. the same letter as the one that appeared 1 letter ago.),P,None,,,,,,,,,0,11,11,11,0,9,9,9,,,,,,,,,,,,,,,,,,,,,,,,,,,,,,,,,,,,,,,,,,,,,,,,,,,,,,,,,,,,,,,,,,,,,1.9958,1051.9616973999655,None,None,1,1051.9616973999655,None,,P030,FENCOG,2,Pre,2022_Mar_11_1127,N-Back (New Version 2021),2021.1.4,119.71531703823763,
,,,,Conditions/Version_1/oneback(3)_v1.xlsx,New rule: Press 'space' when you see 1-back (i.e. the same letter as the one that appeared 1 letter ago.),,,,,,,,,,,0,11,11,11,,,,,,,,,,,,,,,,,,,,,,,,,,,,,,,,,,,,,,,,,,,,,,,,,,,,,,,,,,,,,,,,,,,,,,,,,,,,,,,,,P030,FENCOG,2,Pre,2022_Mar_11_1127,N-Back (New Version 2021),2021.1.4,119.71531703823763,
,,,,Conditions/Version_1/twoback(4)_v1.xlsx,New rule: Press 'space' when you see 2-back (i.e. the same letter as the one that appeared 2 letters ago.),r,None,,,,,,,,,0,12,12,12,0,0,0,0,,,,,,,,,,,,,,,,,,,,,,,,,,,,,,,,,,,,,,,,,,,,,,,,,,,,,,,,,,,1053.991212700028,None,1056.97846569994,None,space,5.227508499985561,1056.97846569994,None,1053.991212700028,None,1.8222,1064.0585896000266,None,None,1,1064.0585896000266,None,,P030,FENCOG,2,Pre,2022_Mar_11_1127,N-Back (New Version 2021),2021.1.4,119.71531703823763,
,,,,Conditions/Version_1/twoback(4)_v1.xlsx,New rule: Press 'space' when you see 2-back (i.e. the same letter as the one that appeared 2 letters ago.),T,None,,,,,,,,,0,12,12,12,0,1,1,1,,,,,,,,,,,,,,,,,,,,,,,,,,,,,,,,,,,,,,,,,,,,,,,,,,,,,,,,,,,,,,,,,,,,,1.0286,1067.098105699988,None,None,1,1067.098105699988,None,,P030,FENCOG,2,Pre,2022_Mar_11_1127,N-Back (New Version 2021),2021.1.4,119.71531703823763,
,,,,Conditions/Version_1/twoback(4)_v1.xlsx,New rule: Press 'space' when you see 2-back (i.e. the same letter as the one that appeared 2 letters ago.),o,None,,,,,,,,,0,12,12,12,0,2,2,2,,,,,,,,,,,,,,,,,,,,,,,,,,,,,,,,,,,,,,,,,,,,,,,,,,,,,,,,,,,,,,,,,,,,,1.8842,1070.9886601000326,None,None,1,1070.9886601000326,None,,P030,FENCOG,2,Pre,2022_Mar_11_1127,N-Back (New Version 2021),2021.1.4,119.71531703823763,
,,,,Conditions/Version_1/twoback(4)_v1.xlsx,New rule: Press 'space' when you see 2-back (i.e. the same letter as the one that appeared 2 letters ago.),p,None,,,,,,,,,0,12,12,12,0,3,3,3,,,,,,,,,,,,,,,,,,,,,,,,,,,,,,,,,,,,,,,,,,,,,,,,,,,,,,,,,,,,,,,,,,,,,1.5804,1074.5710811000317,None,None,1,1074.5710811000317,None,,P030,FENCOG,2,Pre,2022_Mar_11_1127,N-Back (New Version 2021),2021.1.4,119.71531703823763,
,,,,Conditions/Version_1/twoback(4)_v1.xlsx,New rule: Press 'space' when you see 2-back (i.e. the same letter as the one that appeared 2 letters ago.),p,None,,,,,,,,,0,12,12,12,0,4,4,4,,,,,,,,,,,,,,,,,,,,,,,,,,,,,,,,,,,,,,,,,,,,,,,,,,,,,,,,,,,,,,,,,,,,,1.1216,1077.694861499942,None,None,1,1077.694861499942,None,,P030,FENCOG,2,Pre,2022_Mar_11_1127,N-Back (New Version 2021),2021.1.4,119.71531703823763,
,,,,Conditions/Version_1/twoback(4)_v1.xlsx,New rule: Press 'space' when you see 2-back (i.e. the same letter as the one that appeared 2 letters ago.),y,None,,,,,,,,,0,12,12,12,0,5,5,5,,,,,,,,,,,,,,,,,,,,,,,,,,,,,,,,,,,,,,,,,,,,,,,,,,,,,,,,,,,,,,,,,,,,,1.3944,1081.0962305000285,None,None,1,1081.0962305000285,None,,P030,FENCOG,2,Pre,2022_Mar_11_1127,N-Back (New Version 2021),2021.1.4,119.71531703823763,
,,,,Conditions/Version_1/twoback(4)_v1.xlsx,New rule: Press 'space' when you see 2-back (i.e. the same letter as the one that appeared 2 letters ago.),P,space,,,,,,,,,0,12,12,12,0,6,6,6,,,,,,,,,,,,,,,,,,,,,,,,,,,,,,,,,,,,,,,,,,,,,,,,,,,,,,,,,,,,,,,,,,,,,1.5742,1084.6770532999653,None,space,1,1084.6770532999653,None,0.993151200003922,P030,FENCOG,2,Pre,2022_Mar_11_1127,N-Back (New Version 2021),2021.1.4,119.71531703823763,
,,,,Conditions/Version_1/twoback(4)_v1.xlsx,New rule: Press 'space' when you see 2-back (i.e. the same letter as the one that appeared 2 letters ago.),y,None,,,,,,,,,0,12,12,12,0,7,7,7,,,,,,,,,,,,,,,,,,,,,,,,,,,,,,,,,,,,,,,,,,,,,,,,,,,,,,,,,,,,,,,,,,,,,1.9462,1088.6335081999423,None,None,1,1088.6335081999423,None,,P030,FENCOG,2,Pre,2022_Mar_11_1127,N-Back (New Version 2021),2021.1.4,119.71531703823763,
,,,,Conditions/Version_1/twoback(4)_v1.xlsx,New rule: Press 'space' when you see 2-back (i.e. the same letter as the one that appeared 2 letters ago.),y,space,,,,,,,,,0,12,12,12,0,8,8,8,,,,,,,,,,,,,,,,,,,,,,,,,,,,,,,,,,,,,,,,,,,,,,,,,,,,,,,,,,,,,,,,,,,,,1.9028,1092.5407604000065,None,None,0,1092.5407604000065,None,,P030,FENCOG,2,Pre,2022_Mar_11_1127,N-Back (New Version 2021),2021.1.4,119.71531703823763,
,,,,Conditions/Version_1/twoback(4)_v1.xlsx,New rule: Press 'space' when you see 2-back (i.e. the same letter as the one that appeared 2 letters ago.),,,,,,,,,,,0,12,12,12,,,,,,,,,,,,,,,,,,,,,,,,,,,,,,,,,,,,,,,,,,,,,,,,,,,,,,,,,,,,,,,,,,,,,,,,,,,,,,,,,P030,FENCOG,2,Pre,2022_Mar_11_1127,N-Back (New Version 2021),2021.1.4,119.71531703823763,
,,,,Conditions/Version_1/zeroback(4)_v1.xlsx,New rule: Press 'space' when you see the letter 'x' or 'X'.,o,None,,,,,,,,,0,13,13,13,0,0,0,0,,,,,,,,,,,,,,,,,,,,,,,,,,,,,,,,,,,,,,,,,,,,,,,,,,,,,,,,,,,1094.5594500999432,None,1097.5496421999997,None,space,74.19247060001362,1097.5496421999997,None,1094.5594500999432,None,1.6982,1173.4756412999704,None,None,1,1173.4756412999704,None,,P030,FENCOG,2,Pre,2022_Mar_11_1127,N-Back (New Version 2021),2021.1.4,119.71531703823763,
,,,,Conditions/Version_1/zeroback(4)_v1.xlsx,New rule: Press 'space' when you see the letter 'x' or 'X'.,X,space,,,,,,,,,0,13,13,13,0,1,1,1,,,,,,,,,,,,,,,,,,,,,,,,,,,,,,,,,,,,,,,,,,,,,,,,,,,,,,,,,,,,,,,,,,,,,1.7044,1177.1823096999433,None,space,1,1177.1823096999433,None,0.7439229000592604,P030,FENCOG,2,Pre,2022_Mar_11_1127,N-Back (New Version 2021),2021.1.4,119.71531703823763,
,,,,Conditions/Version_1/zeroback(4)_v1.xlsx,New rule: Press 'space' when you see the letter 'x' or 'X'.,p,None,,,,,,,,,0,13,13,13,0,2,2,2,,,,,,,,,,,,,,,,,,,,,,,,,,,,,,,,,,,,,,,,,,,,,,,,,,,,,,,,,,,,,,,,,,,,,1.971,1181.1561760000186,None,None,1,1181.1561760000186,None,,P030,FENCOG,2,Pre,2022_Mar_11_1127,N-Back (New Version 2021),2021.1.4,119.71531703823763,
,,,,Conditions/Version_1/zeroback(4)_v1.xlsx,New rule: Press 'space' when you see the letter 'x' or 'X'.,m,None,,,,,,,,,0,13,13,13,0,3,3,3,,,,,,,,,,,,,,,,,,,,,,,,,,,,,,,,,,,,,,,,,,,,,,,,,,,,,,,,,,,,,,,,,,,,,1.3386,1184.4966404000297,None,None,1,1184.4966404000297,None,,P030,FENCOG,2,Pre,2022_Mar_11_1127,N-Back (New Version 2021),2021.1.4,119.71531703823763,
,,,,Conditions/Version_1/zeroback(4)_v1.xlsx,New rule: Press 'space' when you see the letter 'x' or 'X'.,n,None,,,,,,,,,0,13,13,13,0,4,4,4,,,,,,,,,,,,,,,,,,,,,,,,,,,,,,,,,,,,,,,,,,,,,,,,,,,,,,,,,,,,,,,,,,,,,1.5742,1188.0705768000335,None,None,1,1188.0705768000335,None,,P030,FENCOG,2,Pre,2022_Mar_11_1127,N-Back (New Version 2021),2021.1.4,119.71531703823763,
,,,,Conditions/Version_1/zeroback(4)_v1.xlsx,New rule: Press 'space' when you see the letter 'x' or 'X'.,m,None,,,,,,,,,0,13,13,13,0,5,5,5,,,,,,,,,,,,,,,,,,,,,,,,,,,,,,,,,,,,,,,,,,,,,,,,,,,,,,,,,,,,,,,,,,,,,1.2332,1191.3031498999335,None,None,1,1191.3031498999335,None,,P030,FENCOG,2,Pre,2022_Mar_11_1127,N-Back (New Version 2021),2021.1.4,119.71531703823763,
,,,,Conditions/Version_1/zeroback(4)_v1.xlsx,New rule: Press 'space' when you see the letter 'x' or 'X'.,C,None,,,,,,,,,0,13,13,13,0,6,6,6,,,,,,,,,,,,,,,,,,,,,,,,,,,,,,,,,,,,,,,,,,,,,,,,,,,,,,,,,,,,,,,,,,,,,1.1836,1194.4853538000025,None,None,1,1194.4853538000025,None,,P030,FENCOG,2,Pre,2022_Mar_11_1127,N-Back (New Version 2021),2021.1.4,119.71531703823763,
,,,,Conditions/Version_1/zeroback(4)_v1.xlsx,New rule: Press 'space' when you see the letter 'x' or 'X'.,m,None,,,,,,,,,0,13,13,13,0,7,7,7,,,,,,,,,,,,,,,,,,,,,,,,,,,,,,,,,,,,,,,,,,,,,,,,,,,,,,,,,,,,,,,,,,,,,1.9028,1198.392553600017,None,None,1,1198.392553600017,None,,P030,FENCOG,2,Pre,2022_Mar_11_1127,N-Back (New Version 2021),2021.1.4,119.71531703823763,
,,,,Conditions/Version_1/zeroback(4)_v1.xlsx,New rule: Press 'space' when you see the letter 'x' or 'X'.,p,None,,,,,,,,,0,13,13,13,0,8,8,8,,,,,,,,,,,,,,,,,,,,,,,,,,,,,,,,,,,,,,,,,,,,,,,,,,,,,,,,,,,,,,,,,,,,,1.8222,1202.2164365999633,None,None,1,1202.2164365999633,None,,P030,FENCOG,2,Pre,2022_Mar_11_1127,N-Back (New Version 2021),2021.1.4,119.71531703823763,
,,,,Conditions/Version_1/zeroback(4)_v1.xlsx,New rule: Press 'space' when you see the letter 'x' or 'X'.,X,space,,,,,,,,,0,13,13,13,0,9,9,9,,,,,,,,,,,,,,,,,,,,,,,,,,,,,,,,,,,,,,,,,,,,,,,,,,,,,,,,,,,,,,,,,,,,,1.1216,1205.341671000002,None,space,1,1205.341671000002,None,0.6403582999482751,P030,FENCOG,2,Pre,2022_Mar_11_1127,N-Back (New Version 2021),2021.1.4,119.71531703823763,
,,,,Conditions/Version_1/zeroback(4)_v1.xlsx,New rule: Press 'space' when you see the letter 'x' or 'X'.,,,,,,,,,,,0,13,13,13,,,,,,,,,,,,,,,,,,,,,,,,,,,,,,,,,,,,,,,,,,,,,,,,,,,,,,,,,,,,,,,,,,,,,,,,,,,,,,,,,P030,FENCOG,2,Pre,2022_Mar_11_1127,N-Back (New Version 2021),2021.1.4,119.71531703823763,
,,,,Conditions/Version_1/oneback(4)_v1.xlsx,New rule: Press 'space' when you see 1-back (i.e. the same letter as the one that appeared 1 letter ago.),w,None,,,,,,,,,0,14,14,14,0,0,0,0,,,,,,,,,,,,,,,,,,,,,,,,,,,,,,,,,,,,,,,,,,,,,,,,,,,,,,,,,,,1207.3676124999765,None,1210.348751100013,None,space,0.601119099999778,1210.348751100013,None,1207.3676124999765,None,1.7788,1212.7550213999348,None,None,1,1212.7550213999348,None,,P030,FENCOG,2,Pre,2022_Mar_11_1127,N-Back (New Version 2021),2021.1.4,119.71531703823763,
,,,,Conditions/Version_1/oneback(4)_v1.xlsx,New rule: Press 'space' when you see 1-back (i.e. the same letter as the one that appeared 1 letter ago.),q,None,,,,,,,,,0,14,14,14,0,1,1,1,,,,,,,,,,,,,,,,,,,,,,,,,,,,,,,,,,,,,,,,,,,,,,,,,,,,,,,,,,,,,,,,,,,,,1.2766,1216.037314599962,None,None,1,1216.037314599962,None,,P030,FENCOG,2,Pre,2022_Mar_11_1127,N-Back (New Version 2021),2021.1.4,119.71531703823763,
,,,,Conditions/Version_1/oneback(4)_v1.xlsx,New rule: Press 'space' when you see 1-back (i.e. the same letter as the one that appeared 1 letter ago.),i,None,,,,,,,,,0,14,14,14,0,2,2,2,,,,,,,,,,,,,,,,,,,,,,,,,,,,,,,,,,,,,,,,,,,,,,,,,,,,,,,,,,,,,,,,,,,,,1.6548,1219.6945573999546,None,None,1,1219.6945573999546,None,,P030,FENCOG,2,Pre,2022_Mar_11_1127,N-Back (New Version 2021),2021.1.4,119.71531703823763,
,,,,Conditions/Version_1/oneback(4)_v1.xlsx,New rule: Press 'space' when you see 1-back (i.e. the same letter as the one that appeared 1 letter ago.),t,None,,,,,,,,,0,14,14,14,0,3,3,3,,,,,,,,,,,,,,,,,,,,,,,,,,,,,,,,,,,,,,,,,,,,,,,,,,,,,,,,,,,,,,,,,,,,,1.0658,1222.7603118999396,None,None,1,1222.7603118999396,None,,P030,FENCOG,2,Pre,2022_Mar_11_1127,N-Back (New Version 2021),2021.1.4,119.71531703823763,
,,,,Conditions/Version_1/oneback(4)_v1.xlsx,New rule: Press 'space' when you see 1-back (i.e. the same letter as the one that appeared 1 letter ago.),v,None,,,,,,,,,0,14,14,14,0,4,4,4,,,,,,,,,,,,,,,,,,,,,,,,,,,,,,,,,,,,,,,,,,,,,,,,,,,,,,,,,,,,,,,,,,,,,1.8222,1226.5851108999923,None,None,1,1226.5851108999923,None,,P030,FENCOG,2,Pre,2022_Mar_11_1127,N-Back (New Version 2021),2021.1.4,119.71531703823763,
,,,,Conditions/Version_1/oneback(4)_v1.xlsx,New rule: Press 'space' when you see 1-back (i.e. the same letter as the one that appeared 1 letter ago.),V,space,,,,,,,,,0,14,14,14,0,5,5,5,,,,,,,,,,,,,,,,,,,,,,,,,,,,,,,,,,,,,,,,,,,,,,,,,,,,,,,,,,,,,,,,,,,,,1.661,1230.2591382999672,None,space,1,1230.2591382999672,None,0.6508113000309095,P030,FENCOG,2,Pre,2022_Mar_11_1127,N-Back (New Version 2021),2021.1.4,119.71531703823763,
,,,,Conditions/Version_1/oneback(4)_v1.xlsx,New rule: Press 'space' when you see 1-back (i.e. the same letter as the one that appeared 1 letter ago.),v,space,,,,,,,,,0,14,14,14,0,6,6,6,,,,,,,,,,,,,,,,,,,,,,,,,,,,,,,,,,,,,,,,,,,,,,,,,,,,,,,,,,,,,,,,,,,,,1.1774,1233.4489487999817,None,space,1,1233.4489487999817,None,1.5170223000459373,P030,FENCOG,2,Pre,2022_Mar_11_1127,N-Back (New Version 2021),2021.1.4,119.71531703823763,
,,,,Conditions/Version_1/oneback(4)_v1.xlsx,New rule: Press 'space' when you see 1-back (i.e. the same letter as the one that appeared 1 letter ago.),p,None,,,,,,,,,0,14,14,14,0,7,7,7,,,,,,,,,,,,,,,,,,,,,,,,,,,,,,,,,,,,,,,,,,,,,,,,,,,,,,,,,,,,,,,,,,,,,1.9152,1237.3643511999398,None,None,1,1237.3643511999398,None,,P030,FENCOG,2,Pre,2022_Mar_11_1127,N-Back (New Version 2021),2021.1.4,119.71531703823763,
,,,,Conditions/Version_1/oneback(4)_v1.xlsx,New rule: Press 'space' when you see 1-back (i.e. the same letter as the one that appeared 1 letter ago.),w,None,,,,,,,,,0,14,14,14,0,8,8,8,,,,,,,,,,,,,,,,,,,,,,,,,,,,,,,,,,,,,,,,,,,,,,,,,,,,,,,,,,,,,,,,,,,,,1.4316,1240.7966994999442,None,None,1,1240.7966994999442,None,,P030,FENCOG,2,Pre,2022_Mar_11_1127,N-Back (New Version 2021),2021.1.4,119.71531703823763,
,,,,Conditions/Version_1/oneback(4)_v1.xlsx,New rule: Press 'space' when you see 1-back (i.e. the same letter as the one that appeared 1 letter ago.),W,space,,,,,,,,,0,14,14,14,0,9,9,9,,,,,,,,,,,,,,,,,,,,,,,,,,,,,,,,,,,,,,,,,,,,,,,,,,,,,,,,,,,,,,,,,,,,,1.9896,1244.7871528000105,None,space,1,1244.7871528000105,None,0.8427369999699295,P030,FENCOG,2,Pre,2022_Mar_11_1127,N-Back (New Version 2021),2021.1.4,119.71531703823763,
,,,,Conditions/Version_1/oneback(4)_v1.xlsx,New rule: Press 'space' when you see 1-back (i.e. the same letter as the one that appeared 1 letter ago.),,,,,,,,,,,0,14,14,14,,,,,,,,,,,,,,,,,,,,,,,,,,,,,,,,,,,,,,,,,,,,,,,,,,,,,,,,,,,,,,,,,,,,,,,,,,,,,,,,,P030,FENCOG,2,Pre,2022_Mar_11_1127,N-Back (New Version 2021),2021.1.4,119.71531703823763,
,,,,Conditions/Version_1/threeback(4)_v1.xlsx,New rule: Press 'space' when you see 3-back (i.e. the same letter as the one that appeared 3 letters ago.),A,None,,,,,,,,,0,15,15,15,0,0,0,0,,,,,,,,,,,,,,,,,,,,,,,,,,,,,,,,,,,,,,,,,,,,,,,,,,,,,,,,,,,1246.805799499969,None,1249.796532999957,None,space,3.0573155999882147,1249.796532999957,None,1246.805799499969,None,1.2084,1254.0942976999795,None,None,1,1254.0942976999795,None,,P030,FENCOG,2,Pre,2022_Mar_11_1127,N-Back (New Version 2021),2021.1.4,119.71531703823763,
,,,,Conditions/Version_1/threeback(4)_v1.xlsx,New rule: Press 'space' when you see 3-back (i.e. the same letter as the one that appeared 3 letters ago.),n,None,,,,,,,,,0,15,15,15,0,1,1,1,,,,,,,,,,,,,,,,,,,,,,,,,,,,,,,,,,,,,,,,,,,,,,,,,,,,,,,,,,,,,,,,,,,,,1.6238,1257.7253642999567,None,None,1,1257.7253642999567,None,,P030,FENCOG,2,Pre,2022_Mar_11_1127,N-Back (New Version 2021),2021.1.4,119.71531703823763,
,,,,Conditions/Version_1/threeback(4)_v1.xlsx,New rule: Press 'space' when you see 3-back (i.e. the same letter as the one that appeared 3 letters ago.),g,None,,,,,,,,,0,15,15,15,0,2,2,2,,,,,,,,,,,,,,,,,,,,,,,,,,,,,,,,,,,,,,,,,,,,,,,,,,,,,,,,,,,,,,,,,,,,,1.3262,1261.057740099961,None,None,1,1261.057740099961,None,,P030,FENCOG,2,Pre,2022_Mar_11_1127,N-Back (New Version 2021),2021.1.4,119.71531703823763,
,,,,Conditions/Version_1/threeback(4)_v1.xlsx,New rule: Press 'space' when you see 3-back (i.e. the same letter as the one that appeared 3 letters ago.),A,space,,,,,,,,,0,15,15,15,0,3,3,3,,,,,,,,,,,,,,,,,,,,,,,,,,,,,,,,,,,,,,,,,,,,,,,,,,,,,,,,,,,,,,,,,,,,,1.692,1264.7491451000096,None,space,1,1264.7491451000096,None,1.4809057000093162,P030,FENCOG,2,Pre,2022_Mar_11_1127,N-Back (New Version 2021),2021.1.4,119.71531703823763,
,,,,Conditions/Version_1/threeback(4)_v1.xlsx,New rule: Press 'space' when you see 3-back (i.e. the same letter as the one that appeared 3 letters ago.),p,None,,,,,,,,,0,15,15,15,0,4,4,4,,,,,,,,,,,,,,,,,,,,,,,,,,,,,,,,,,,,,,,,,,,,,,,,,,,,,,,,,,,,,,,,,,,,,1.0348,1267.798549799947,None,None,1,1267.798549799947,None,,P030,FENCOG,2,Pre,2022_Mar_11_1127,N-Back (New Version 2021),2021.1.4,119.71531703823763,
,,,,Conditions/Version_1/threeback(4)_v1.xlsx,New rule: Press 'space' when you see 3-back (i.e. the same letter as the one that appeared 3 letters ago.),O,None,,,,,,,,,0,15,15,15,0,5,5,5,,,,,,,,,,,,,,,,,,,,,,,,,,,,,,,,,,,,,,,,,,,,,,,,,,,,,,,,,,,,,,,,,,,,,1.9586,1271.7627909999574,None,None,1,1271.7627909999574,None,,P030,FENCOG,2,Pre,2022_Mar_11_1127,N-Back (New Version 2021),2021.1.4,119.71531703823763,
,,,,Conditions/Version_1/threeback(4)_v1.xlsx,New rule: Press 'space' when you see 3-back (i.e. the same letter as the one that appeared 3 letters ago.),a,space,,,,,,,,,0,15,15,15,0,6,6,6,,,,,,,,,,,,,,,,,,,,,,,,,,,,,,,,,,,,,,,,,,,,,,,,,,,,,,,,,,,,,,,,,,,,,1.3324,1275.0960823999485,None,None,0,1275.0960823999485,None,,P030,FENCOG,2,Pre,2022_Mar_11_1127,N-Back (New Version 2021),2021.1.4,119.71531703823763,
,,,,Conditions/Version_1/threeback(4)_v1.xlsx,New rule: Press 'space' when you see 3-back (i.e. the same letter as the one that appeared 3 letters ago.),p,space,,,,,,,,,0,15,15,15,0,7,7,7,,,,,,,,,,,,,,,,,,,,,,,,,,,,,,,,,,,,,,,,,,,,,,,,,,,,,,,,,,,,,,,,,,,,,1.0782,1278.1860773999942,None,None,0,1278.1860773999942,None,,P030,FENCOG,2,Pre,2022_Mar_11_1127,N-Back (New Version 2021),2021.1.4,119.71531703823763,
,,,,Conditions/Version_1/threeback(4)_v1.xlsx,New rule: Press 'space' when you see 3-back (i.e. the same letter as the one that appeared 3 letters ago.),x,None,,,,,,,,,0,15,15,15,0,8,8,8,,,,,,,,,,,,,,,,,,,,,,,,,,,,,,,,,,,,,,,,,,,,,,,,,,,,,,,,,,,,,,,,,,,,,1.9896,1282.1770353999455,None,None,1,1282.1770353999455,None,,P030,FENCOG,2,Pre,2022_Mar_11_1127,N-Back (New Version 2021),2021.1.4,119.71531703823763,
,,,,Conditions/Version_1/threeback(4)_v1.xlsx,New rule: Press 'space' when you see 3-back (i.e. the same letter as the one that appeared 3 letters ago.),X,None,,,,,,,,,0,15,15,15,0,9,9,9,,,,,,,,,,,,,,,,,,,,,,,,,,,,,,,,,,,,,,,,,,,,,,,,,,,,,,,,,,,,,,,,,,,,,1.103,1285.2925739999628,None,None,1,1285.2925739999628,None,,P030,FENCOG,2,Pre,2022_Mar_11_1127,N-Back (New Version 2021),2021.1.4,119.71531703823763,
,,,,Conditions/Version_1/threeback(4)_v1.xlsx,New rule: Press 'space' when you see 3-back (i.e. the same letter as the one that appeared 3 letters ago.),,,,,,,,,,,0,15,15,15,,,,,,,,,,,,,,,,,,,,,,,,,,,,,,,,,,,,,,,,,,,,,,,,,,,,,,,,,,,,,,,,,,,,,,,,,,,,,,,,,P030,FENCOG,2,Pre,2022_Mar_11_1127,N-Back (New Version 2021),2021.1.4,119.71531703823763,
