CondFileP,InstructionsP,LettersDisplayedP,CorrectnessP,CondFile,Instructions,LettersDisplayed,Correctness,practicetrials.thisRepN,practicetrials.thisTrialN,practicetrials.thisN,practicetrials.thisIndex,InnerLoopPractice.thisRepN,InnerLoopPractice.thisTrialN,InnerLoopPractice.thisN,InnerLoopPractice.thisIndex,trials.thisRepN,trials.thisTrialN,trials.thisN,trials.thisIndex,InnerLoop.thisRepN,InnerLoop.thisTrialN,InnerLoop.thisN,InnerLoop.thisIndex,TaskVersionText.started,TaskVersionText.stopped,InstrKey1.keys,InstrKey1.rt,InstrKey1.started,InstrKey1.stopped,text.started,text.stopped,key_resp_4.keys,key_resp_4.rt,key_resp_4.started,key_resp_4.stopped,text_2.started,text_2.stopped,key_resp_3.keys,key_resp_3.rt,key_resp_3.started,key_resp_3.stopped,text_3.started,text_3.stopped,key_resp_2.keys,key_resp_2.rt,key_resp_2.started,key_resp_2.stopped,PractIn1.started,PractIn1.stopped,PractIn2.started,PractIn2.stopped,PractInstructionPass.keys,PractInstructionPass.rt,PractInstructionPass.started,PractInstructionPass.stopped,PractBlock1.started,PractBlock1.stopped,ISIjitterPractice,ISI_Pract_Fixation.started,ISI_Pract_Fixation.stopped,N_backP.started,N_backP.stopped,KeyPractice.keys,KeyPractice.corr,KeyPractice.started,KeyPractice.stopped,text_4.started,text_4.stopped,KeyPractice.rt,TransitionText.started,TransitionText.stopped,key_resp_6.keys,key_resp_6.rt,key_resp_6.started,key_resp_6.stopped,text_5.started,text_5.stopped,key_resp_5.keys,key_resp_5.rt,key_resp_5.started,key_resp_5.stopped,MainInt1.started,MainInt1.stopped,MainInt2.started,MainInt2.stopped,InstructionPass.keys,InstructionPass.rt,InstructionPass.started,InstructionPass.stopped,Blocks1.started,Blocks1.stopped,ISIjitter,N_backD.started,N_backD.stopped,key_resp.keys,key_resp.corr,key_resp.started,key_resp.stopped,key_resp.rt,participant,Study Name,Task Version (required to run),PRE/POST,date,expName,psychopyVersion,frameRate
,,,,,,,,,,,,,,,,,,,,,,,,23.4454724,None,space,29.6999315,23.9415672,None,,,,,,,,,,,,,,,,,,,,,,,,,,,,,,,,,,,,,,,,,,,,,,,,,,,,,,,,,,,,,,,,,,,,,,,P030,FENCOG,1,Post,2022_Mar_18_1053,N-Back (New Version 2021),2021.1.4,120.0360588
,,,,,,,,,,,,,,,,,,,,,,,,,,,,,,53.6713781,None,space,2.8750016,54.1664704,None,,,,,,,,,,,,,,,,,,,,,,,,,,,,,,,,,,,,,,,,,,,,,,,,,,,,,,,,,,,,,,,,,P030,FENCOG,1,Post,2022_Mar_18_1053,N-Back (New Version 2021),2021.1.4,120.0360588
,,,,,,,,,,,,,,,,,,,,,,,,,,,,,,,,,,,,57.0733369,None,space,4.8998763,57.5656707,None,,,,,,,,,,,,,,,,,,,,,,,,,,,,,,,,,,,,,,,,,,,,,,,,,,,,,,,,,,,P030,FENCOG,1,Post,2022_Mar_18_1053,N-Back (New Version 2021),2021.1.4,120.0360588
,,,,,,,,,,,,,,,,,,,,,,,,,,,,,,,,,,,,,,,,,,62.5040322,None,space,0.2125044,62.9972588,None,,,,,,,,,,,,,,,,,,,,,,,,,,,,,,,,,,,,,,,,,,,,,,,,,,,,,P030,FENCOG,1,Post,2022_Mar_18_1053,N-Back (New Version 2021),2021.1.4,120.0360588
Conditions/Version_1Pr/zeroback(1)_v1.xlsx,Rule: Press 'space' when you see the letter 'x' or 'X'.,Z,None,,,,,0,0,0,0,0,0,0,0,,,,,,,,,,,,,,,,,,,,,,,,,,,,,,,,,64.5935064,None,67.5798576,None,space,0.1817641,67.5798576,None,64.5935064,None,1.715,67.8078016,None,69.5302981,None,None,1,69.5302981,None,71.5358155,None,,,,,,,,,,,,,,,,,,,,,,,,,,,,,,,,P030,FENCOG,1,Post,2022_Mar_18_1053,N-Back (New Version 2021),2021.1.4,120.0360588
Conditions/Version_1Pr/zeroback(1)_v1.xlsx,Rule: Press 'space' when you see the letter 'x' or 'X'.,r,None,,,,,0,0,0,0,0,1,1,1,,,,,,,,,,,,,,,,,,,,,,,,,,,,,,,,,,,,,,,,,,,1.79,73.0350754,None,74.8266095,None,None,1,74.8266095,None,76.8257187,None,,,,,,,,,,,,,,,,,,,,,,,,,,,,,,,,P030,FENCOG,1,Post,2022_Mar_18_1053,N-Back (New Version 2021),2021.1.4,120.0360588
Conditions/Version_1Pr/zeroback(1)_v1.xlsx,Rule: Press 'space' when you see the letter 'x' or 'X'.,X,space,,,,,0,0,0,0,0,2,2,2,,,,,,,,,,,,,,,,,,,,,,,,,,,,,,,,,,,,,,,,,,,1.565,78.3252683,None,79.8941558,None,space,1,79.8941558,None,80.3298081,None,0.4270519,,,,,,,,,,,,,,,,,,,,,,,,,,,,,,,P030,FENCOG,1,Post,2022_Mar_18_1053,N-Back (New Version 2021),2021.1.4,120.0360588
Conditions/Version_1Pr/zeroback(1)_v1.xlsx,Rule: Press 'space' when you see the letter 'x' or 'X'.,p,None,,,,,0,0,0,0,0,3,3,3,,,,,,,,,,,,,,,,,,,,,,,,,,,,,,,,,,,,,,,,,,,1.64,81.8325731,None,83.4833081,None,None,1,83.4833081,None,85.4814331,None,,,,,,,,,,,,,,,,,,,,,,,,,,,,,,,,P030,FENCOG,1,Post,2022_Mar_18_1053,N-Back (New Version 2021),2021.1.4,120.0360588
Conditions/Version_1Pr/zeroback(1)_v1.xlsx,Rule: Press 'space' when you see the letter 'x' or 'X'.,w,None,,,,,0,0,0,0,0,4,4,4,,,,,,,,,,,,,,,,,,,,,,,,,,,,,,,,,,,,,,,,,,,1.99,86.9809481,None,88.9726959,None,None,1,88.9726959,None,90.9793827,None,,,,,,,,,,,,,,,,,,,,,,,,,,,,,,,,P030,FENCOG,1,Post,2022_Mar_18_1053,N-Back (New Version 2021),2021.1.4,120.0360588
Conditions/Version_1Pr/zeroback(1)_v1.xlsx,Rule: Press 'space' when you see the letter 'x' or 'X'.,e,None,,,,,0,0,0,0,0,5,5,5,,,,,,,,,,,,,,,,,,,,,,,,,,,,,,,,,,,,,,,,,,,1.915,92.4792947,None,94.3958186,None,None,1,94.3958186,None,96.3938707,None,,,,,,,,,,,,,,,,,,,,,,,,,,,,,,,,P030,FENCOG,1,Post,2022_Mar_18_1053,N-Back (New Version 2021),2021.1.4,120.0360588
Conditions/Version_1Pr/zeroback(1)_v1.xlsx,Rule: Press 'space' when you see the letter 'x' or 'X'.,X,space,,,,,0,0,0,0,0,6,6,6,,,,,,,,,,,,,,,,,,,,,,,,,,,,,,,,,,,,,,,,,,,1.165,97.8957451,None,99.0606017,None,space,1,99.0606017,None,99.4862729,None,0.4125874,,,,,,,,,,,,,,,,,,,,,,,,,,,,,,,P030,FENCOG,1,Post,2022_Mar_18_1053,N-Back (New Version 2021),2021.1.4,120.0360588
Conditions/Version_1Pr/zeroback(1)_v1.xlsx,Rule: Press 'space' when you see the letter 'x' or 'X'.,x,space,,,,,0,0,0,0,0,7,7,7,,,,,,,,,,,,,,,,,,,,,,,,,,,,,,,,,,,,,,,,,,,1.44,100.9930827,None,102.4354833,None,space,1,102.4354833,None,103.3293116,None,0.8780356,,,,,,,,,,,,,,,,,,,,,,,,,,,,,,,P030,FENCOG,1,Post,2022_Mar_18_1053,N-Back (New Version 2021),2021.1.4,120.0360588
Conditions/Version_1Pr/zeroback(1)_v1.xlsx,Rule: Press 'space' when you see the letter 'x' or 'X'.,p,None,,,,,0,0,0,0,0,8,8,8,,,,,,,,,,,,,,,,,,,,,,,,,,,,,,,,,,,,,,,,,,,1.89,104.8338949,None,106.7249357,None,space,0,106.7249357,None,107.9469202,None,1.2044442,,,,,,,,,,,,,,,,,,,,,,,,,,,,,,,P030,FENCOG,1,Post,2022_Mar_18_1053,N-Back (New Version 2021),2021.1.4,120.0360588
Conditions/Version_1Pr/zeroback(1)_v1.xlsx,Rule: Press 'space' when you see the letter 'x' or 'X'.,r,None,,,,,0,0,0,0,0,9,9,9,,,,,,,,,,,,,,,,,,,,,,,,,,,,,,,,,,,,,,,,,,,1.115,109.4493264,None,110.5652468,None,None,1,110.5652468,None,112.5665059,None,,,,,,,,,,,,,,,,,,,,,,,,,,,,,,,,P030,FENCOG,1,Post,2022_Mar_18_1053,N-Back (New Version 2021),2021.1.4,120.0360588
Conditions/Version_1Pr/zeroback(1)_v1.xlsx,Rule: Press 'space' when you see the letter 'x' or 'X'.,,,,,,,0,0,0,0,,,,,,,,,,,,,,,,,,,,,,,,,,,,,,,,,,,,,,,,,,,,,,,,,,,,,,,,,,,,,,,,,,,,,,,,,,,,,,,,,,,,,,,,,P030,FENCOG,1,Post,2022_Mar_18_1053,N-Back (New Version 2021),2021.1.4,120.0360588
Conditions/Version_1Pr/oneback(1)_v1.xlsx,New rule: Press 'space' when you see 1-back (i.e. the same letter as the one that appeared 1 letter ago.),a,None,,,,,0,1,1,1,0,0,0,0,,,,,,,,,,,,,,,,,,,,,,,,,,,,,,,,,114.0954596,None,117.0834143,None,space,0.4617666,117.0834143,None,114.0954596,None,1.74,117.5730706,None,119.3150488,None,None,1,119.3150488,None,121.3207994,None,,,,,,,,,,,,,,,,,,,,,,,,,,,,,,,,P030,FENCOG,1,Post,2022_Mar_18_1053,N-Back (New Version 2021),2021.1.4,120.0360588
Conditions/Version_1Pr/oneback(1)_v1.xlsx,New rule: Press 'space' when you see 1-back (i.e. the same letter as the one that appeared 1 letter ago.),x,None,,,,,0,1,1,1,0,1,1,1,,,,,,,,,,,,,,,,,,,,,,,,,,,,,,,,,,,,,,,,,,,1.115,122.8204671,None,123.9372259,None,None,1,123.9372259,None,125.9444792,None,,,,,,,,,,,,,,,,,,,,,,,,,,,,,,,,P030,FENCOG,1,Post,2022_Mar_18_1053,N-Back (New Version 2021),2021.1.4,120.0360588
Conditions/Version_1Pr/oneback(1)_v1.xlsx,New rule: Press 'space' when you see 1-back (i.e. the same letter as the one that appeared 1 letter ago.),g,None,,,,,0,1,1,1,0,2,2,2,,,,,,,,,,,,,,,,,,,,,,,,,,,,,,,,,,,,,,,,,,,1.64,127.443821,None,129.0855891,None,None,1,129.0855891,None,131.0965679,None,,,,,,,,,,,,,,,,,,,,,,,,,,,,,,,,P030,FENCOG,1,Post,2022_Mar_18_1053,N-Back (New Version 2021),2021.1.4,120.0360588
Conditions/Version_1Pr/oneback(1)_v1.xlsx,New rule: Press 'space' when you see 1-back (i.e. the same letter as the one that appeared 1 letter ago.),G,space,,,,,0,1,1,1,0,3,3,3,,,,,,,,,,,,,,,,,,,,,,,,,,,,,,,,,,,,,,,,,,,1.14,132.5924649,None,133.7352671,None,space,1,133.7352671,None,134.2177158,None,0.4738375,,,,,,,,,,,,,,,,,,,,,,,,,,,,,,,P030,FENCOG,1,Post,2022_Mar_18_1053,N-Back (New Version 2021),2021.1.4,120.0360588
Conditions/Version_1Pr/oneback(1)_v1.xlsx,New rule: Press 'space' when you see 1-back (i.e. the same letter as the one that appeared 1 letter ago.),u,None,,,,,0,1,1,1,0,4,4,4,,,,,,,,,,,,,,,,,,,,,,,,,,,,,,,,,,,,,,,,,,,1.34,135.7246592,None,137.065937,None,None,1,137.065937,None,139.0655361,None,,,,,,,,,,,,,,,,,,,,,,,,,,,,,,,,P030,FENCOG,1,Post,2022_Mar_18_1053,N-Back (New Version 2021),2021.1.4,120.0360588
Conditions/Version_1Pr/oneback(1)_v1.xlsx,New rule: Press 'space' when you see 1-back (i.e. the same letter as the one that appeared 1 letter ago.),y,None,,,,,0,1,1,1,0,5,5,5,,,,,,,,,,,,,,,,,,,,,,,,,,,,,,,,,,,,,,,,,,,1.865,140.5650927,None,142.4418699,None,None,1,142.4418699,None,144.4373931,None,,,,,,,,,,,,,,,,,,,,,,,,,,,,,,,,P030,FENCOG,1,Post,2022_Mar_18_1053,N-Back (New Version 2021),2021.1.4,120.0360588
Conditions/Version_1Pr/oneback(1)_v1.xlsx,New rule: Press 'space' when you see 1-back (i.e. the same letter as the one that appeared 1 letter ago.),y,space,,,,,0,1,1,1,0,6,6,6,,,,,,,,,,,,,,,,,,,,,,,,,,,,,,,,,,,,,,,,,,,1.39,145.9381203,None,147.3294913,None,space,1,147.3294913,None,148.0383135,None,0.6955906,,,,,,,,,,,,,,,,,,,,,,,,,,,,,,,P030,FENCOG,1,Post,2022_Mar_18_1053,N-Back (New Version 2021),2021.1.4,120.0360588
Conditions/Version_1Pr/oneback(1)_v1.xlsx,New rule: Press 'space' when you see 1-back (i.e. the same letter as the one that appeared 1 letter ago.),k,None,,,,,0,1,1,1,0,7,7,7,,,,,,,,,,,,,,,,,,,,,,,,,,,,,,,,,,,,,,,,,,,1.09,149.5373249,None,150.6294685,None,None,1,150.6294685,None,152.636532,None,,,,,,,,,,,,,,,,,,,,,,,,,,,,,,,,P030,FENCOG,1,Post,2022_Mar_18_1053,N-Back (New Version 2021),2021.1.4,120.0360588
Conditions/Version_1Pr/oneback(1)_v1.xlsx,New rule: Press 'space' when you see 1-back (i.e. the same letter as the one that appeared 1 letter ago.),c,None,,,,,0,1,1,1,0,8,8,8,,,,,,,,,,,,,,,,,,,,,,,,,,,,,,,,,,,,,,,,,,,1.815,154.1360464,None,155.9535332,None,None,1,155.9535332,None,157.9597649,None,,,,,,,,,,,,,,,,,,,,,,,,,,,,,,,,P030,FENCOG,1,Post,2022_Mar_18_1053,N-Back (New Version 2021),2021.1.4,120.0360588
Conditions/Version_1Pr/oneback(1)_v1.xlsx,New rule: Press 'space' when you see 1-back (i.e. the same letter as the one that appeared 1 letter ago.),r,None,,,,,0,1,1,1,0,9,9,9,,,,,,,,,,,,,,,,,,,,,,,,,,,,,,,,,,,,,,,,,,,1.965,159.4595882,None,161.4326672,None,None,1,161.4326672,None,163.4333404,None,,,,,,,,,,,,,,,,,,,,,,,,,,,,,,,,P030,FENCOG,1,Post,2022_Mar_18_1053,N-Back (New Version 2021),2021.1.4,120.0360588
Conditions/Version_1Pr/oneback(1)_v1.xlsx,New rule: Press 'space' when you see 1-back (i.e. the same letter as the one that appeared 1 letter ago.),,,,,,,0,1,1,1,,,,,,,,,,,,,,,,,,,,,,,,,,,,,,,,,,,,,,,,,,,,,,,,,,,,,,,,,,,,,,,,,,,,,,,,,,,,,,,,,,,,,,,,,P030,FENCOG,1,Post,2022_Mar_18_1053,N-Back (New Version 2021),2021.1.4,120.0360588
Conditions/Version_1Pr/twoback(1)_v1.xlsx,New rule: Press 'space' when you see 2-back (i.e. the same letter as the one that appeared 2 letters ago.),E,None,,,,,0,2,2,2,0,0,0,0,,,,,,,,,,,,,,,,,,,,,,,,,,,,,,,,,164.963064,None,167.9633693,None,space,9.4218338,167.9633693,None,164.963064,None,1.94,177.4185028,None,179.3639092,None,None,1,179.3639092,None,181.3694973,None,,,,,,,,,,,,,,,,,,,,,,,,,,,,,,,,P030,FENCOG,1,Post,2022_Mar_18_1053,N-Back (New Version 2021),2021.1.4,120.0360588
Conditions/Version_1Pr/twoback(1)_v1.xlsx,New rule: Press 'space' when you see 2-back (i.e. the same letter as the one that appeared 2 letters ago.),p,None,,,,,0,2,2,2,0,1,1,1,,,,,,,,,,,,,,,,,,,,,,,,,,,,,,,,,,,,,,,,,,,1.465,182.8689843,None,184.335213,None,None,1,184.335213,None,186.3354965,None,,,,,,,,,,,,,,,,,,,,,,,,,,,,,,,,P030,FENCOG,1,Post,2022_Mar_18_1053,N-Back (New Version 2021),2021.1.4,120.0360588
Conditions/Version_1Pr/twoback(1)_v1.xlsx,New rule: Press 'space' when you see 2-back (i.e. the same letter as the one that appeared 2 letters ago.),e,space,,,,,0,2,2,2,0,2,2,2,,,,,,,,,,,,,,,,,,,,,,,,,,,,,,,,,,,,,,,,,,,1.99,187.8343908,None,189.8252488,None,space,1,189.8252488,None,190.9091679,None,1.0719984,,,,,,,,,,,,,,,,,,,,,,,,,,,,,,,P030,FENCOG,1,Post,2022_Mar_18_1053,N-Back (New Version 2021),2021.1.4,120.0360588
Conditions/Version_1Pr/twoback(1)_v1.xlsx,New rule: Press 'space' when you see 2-back (i.e. the same letter as the one that appeared 2 letters ago.),s,None,,,,,0,2,2,2,0,3,3,3,,,,,,,,,,,,,,,,,,,,,,,,,,,,,,,,,,,,,,,,,,,1.14,192.4163457,None,193.5592521,None,None,1,193.5592521,None,195.5654785,None,,,,,,,,,,,,,,,,,,,,,,,,,,,,,,,,P030,FENCOG,1,Post,2022_Mar_18_1053,N-Back (New Version 2021),2021.1.4,120.0360588
Conditions/Version_1Pr/twoback(1)_v1.xlsx,New rule: Press 'space' when you see 2-back (i.e. the same letter as the one that appeared 2 letters ago.),S,None,,,,,0,2,2,2,0,4,4,4,,,,,,,,,,,,,,,,,,,,,,,,,,,,,,,,,,,,,,,,,,,1.24,197.0649731,None,198.3106066,None,space,0,198.3106066,None,198.9922388,None,0.6663702,,,,,,,,,,,,,,,,,,,,,,,,,,,,,,,P030,FENCOG,1,Post,2022_Mar_18_1053,N-Back (New Version 2021),2021.1.4,120.0360588
Conditions/Version_1Pr/twoback(1)_v1.xlsx,New rule: Press 'space' when you see 2-back (i.e. the same letter as the one that appeared 2 letters ago.),s,space,,,,,0,2,2,2,0,5,5,5,,,,,,,,,,,,,,,,,,,,,,,,,,,,,,,,,,,,,,,,,,,1.065,200.4972789,None,201.5636868,None,space,1,201.5636868,None,202.2090508,None,0.6292863,,,,,,,,,,,,,,,,,,,,,,,,,,,,,,,P030,FENCOG,1,Post,2022_Mar_18_1053,N-Back (New Version 2021),2021.1.4,120.0360588
Conditions/Version_1Pr/twoback(1)_v1.xlsx,New rule: Press 'space' when you see 2-back (i.e. the same letter as the one that appeared 2 letters ago.),P,None,,,,,0,2,2,2,0,6,6,6,,,,,,,,,,,,,,,,,,,,,,,,,,,,,,,,,,,,,,,,,,,1.29,203.7130276,None,205.0059743,None,None,1,205.0059743,None,207.0121096,None,,,,,,,,,,,,,,,,,,,,,,,,,,,,,,,,P030,FENCOG,1,Post,2022_Mar_18_1053,N-Back (New Version 2021),2021.1.4,120.0360588
Conditions/Version_1Pr/twoback(1)_v1.xlsx,New rule: Press 'space' when you see 2-back (i.e. the same letter as the one that appeared 2 letters ago.),C,None,,,,,0,2,2,2,0,7,7,7,,,,,,,,,,,,,,,,,,,,,,,,,,,,,,,,,,,,,,,,,,,1.44,208.5120888,None,209.9623224,None,None,1,209.9623224,None,211.960619,None,,,,,,,,,,,,,,,,,,,,,,,,,,,,,,,,P030,FENCOG,1,Post,2022_Mar_18_1053,N-Back (New Version 2021),2021.1.4,120.0360588
Conditions/Version_1Pr/twoback(1)_v1.xlsx,New rule: Press 'space' when you see 2-back (i.e. the same letter as the one that appeared 2 letters ago.),x,None,,,,,0,2,2,2,0,8,8,8,,,,,,,,,,,,,,,,,,,,,,,,,,,,,,,,,,,,,,,,,,,1.59,213.4601931,None,215.0511277,None,None,1,215.0511277,None,217.0507403,None,,,,,,,,,,,,,,,,,,,,,,,,,,,,,,,,P030,FENCOG,1,Post,2022_Mar_18_1053,N-Back (New Version 2021),2021.1.4,120.0360588
Conditions/Version_1Pr/twoback(1)_v1.xlsx,New rule: Press 'space' when you see 2-back (i.e. the same letter as the one that appeared 2 letters ago.),Z,None,,,,,0,2,2,2,0,9,9,9,,,,,,,,,,,,,,,,,,,,,,,,,,,,,,,,,,,,,,,,,,,1.715,218.5538437,None,220.2818123,None,None,1,220.2818123,None,222.2825745,None,,,,,,,,,,,,,,,,,,,,,,,,,,,,,,,,P030,FENCOG,1,Post,2022_Mar_18_1053,N-Back (New Version 2021),2021.1.4,120.0360588
Conditions/Version_1Pr/twoback(1)_v1.xlsx,New rule: Press 'space' when you see 2-back (i.e. the same letter as the one that appeared 2 letters ago.),,,,,,,0,2,2,2,,,,,,,,,,,,,,,,,,,,,,,,,,,,,,,,,,,,,,,,,,,,,,,,,,,,,,,,,,,,,,,,,,,,,,,,,,,,,,,,,,,,,,,,,P030,FENCOG,1,Post,2022_Mar_18_1053,N-Back (New Version 2021),2021.1.4,120.0360588
Conditions/Version_1Pr/threeback(1)_v1.xlsx,New rule: Press 'space' when you see 3-back (i.e. the same letter as the one that appeared 3 letters ago.),r,None,,,,,0,3,3,3,0,0,0,0,,,,,,,,,,,,,,,,,,,,,,,,,,,,,,,,,223.8022701,None,226.7928968,None,space,0.8399509,226.7928968,None,223.8022701,None,1.09,227.6588863,None,228.7589274,None,None,1,228.7589274,None,230.7633839,None,,,,,,,,,,,,,,,,,,,,,,,,,,,,,,,,P030,FENCOG,1,Post,2022_Mar_18_1053,N-Back (New Version 2021),2021.1.4,120.0360588
Conditions/Version_1Pr/threeback(1)_v1.xlsx,New rule: Press 'space' when you see 3-back (i.e. the same letter as the one that appeared 3 letters ago.),a,None,,,,,0,3,3,3,0,1,1,1,,,,,,,,,,,,,,,,,,,,,,,,,,,,,,,,,,,,,,,,,,,1.74,232.2628714,None,234.0040186,None,None,1,234.0040186,None,236.0032312,None,,,,,,,,,,,,,,,,,,,,,,,,,,,,,,,,P030,FENCOG,1,Post,2022_Mar_18_1053,N-Back (New Version 2021),2021.1.4,120.0360588
Conditions/Version_1Pr/threeback(1)_v1.xlsx,New rule: Press 'space' when you see 3-back (i.e. the same letter as the one that appeared 3 letters ago.),t,None,,,,,0,3,3,3,0,2,2,2,,,,,,,,,,,,,,,,,,,,,,,,,,,,,,,,,,,,,,,,,,,1.365,237.5030085,None,238.8751033,None,None,1,238.8751033,None,240.8770364,None,,,,,,,,,,,,,,,,,,,,,,,,,,,,,,,,P030,FENCOG,1,Post,2022_Mar_18_1053,N-Back (New Version 2021),2021.1.4,120.0360588
Conditions/Version_1Pr/threeback(1)_v1.xlsx,New rule: Press 'space' when you see 3-back (i.e. the same letter as the one that appeared 3 letters ago.),r,space,,,,,0,3,3,3,0,3,3,3,,,,,,,,,,,,,,,,,,,,,,,,,,,,,,,,,,,,,,,,,,,1.965,242.3765313,None,244.3424113,None,None,0,244.3424113,None,246.3461487,None,,,,,,,,,,,,,,,,,,,,,,,,,,,,,,,,P030,FENCOG,1,Post,2022_Mar_18_1053,N-Back (New Version 2021),2021.1.4,120.0360588
Conditions/Version_1Pr/threeback(1)_v1.xlsx,New rule: Press 'space' when you see 3-back (i.e. the same letter as the one that appeared 3 letters ago.),a,None,,,,,0,3,3,3,0,4,4,4,,,,,,,,,,,,,,,,,,,,,,,,,,,,,,,,,,,,,,,,,,,1.39,247.8499579,None,249.2409575,None,None,1,249.2409575,None,251.2412355,None,,,,,,,,,,,,,,,,,,,,,,,,,,,,,,,,P030,FENCOG,1,Post,2022_Mar_18_1053,N-Back (New Version 2021),2021.1.4,120.0360588
Conditions/Version_1Pr/threeback(1)_v1.xlsx,New rule: Press 'space' when you see 3-back (i.e. the same letter as the one that appeared 3 letters ago.),Y,None,,,,,0,3,3,3,0,5,5,5,,,,,,,,,,,,,,,,,,,,,,,,,,,,,,,,,,,,,,,,,,,1.165,252.7490449,None,253.9167514,None,None,1,253.9167514,None,255.9223345,None,,,,,,,,,,,,,,,,,,,,,,,,,,,,,,,,P030,FENCOG,1,Post,2022_Mar_18_1053,N-Back (New Version 2021),2021.1.4,120.0360588
Conditions/Version_1Pr/threeback(1)_v1.xlsx,New rule: Press 'space' when you see 3-back (i.e. the same letter as the one that appeared 3 letters ago.),q,None,,,,,0,3,3,3,0,6,6,6,,,,,,,,,,,,,,,,,,,,,,,,,,,,,,,,,,,,,,,,,,,1.315,257.421959,None,258.7388163,None,space,0,258.7388163,None,259.5242582,None,0.7741861,,,,,,,,,,,,,,,,,,,,,,,,,,,,,,,P030,FENCOG,1,Post,2022_Mar_18_1053,N-Back (New Version 2021),2021.1.4,120.0360588
Conditions/Version_1Pr/threeback(1)_v1.xlsx,New rule: Press 'space' when you see 3-back (i.e. the same letter as the one that appeared 3 letters ago.),A,space,,,,,0,3,3,3,0,7,7,7,,,,,,,,,,,,,,,,,,,,,,,,,,,,,,,,,,,,,,,,,,,1.765,261.0292646,None,262.7984803,None,space,1,262.7984803,None,263.7502003,None,0.9386181,,,,,,,,,,,,,,,,,,,,,,,,,,,,,,,P030,FENCOG,1,Post,2022_Mar_18_1053,N-Back (New Version 2021),2021.1.4,120.0360588
Conditions/Version_1Pr/threeback(1)_v1.xlsx,New rule: Press 'space' when you see 3-back (i.e. the same letter as the one that appeared 3 letters ago.),y,None,,,,,0,3,3,3,0,8,8,8,,,,,,,,,,,,,,,,,,,,,,,,,,,,,,,,,,,,,,,,,,,1.24,265.2530985,None,266.496087,None,None,1,266.496087,None,268.5021411,None,,,,,,,,,,,,,,,,,,,,,,,,,,,,,,,,P030,FENCOG,1,Post,2022_Mar_18_1053,N-Back (New Version 2021),2021.1.4,120.0360588
Conditions/Version_1Pr/threeback(1)_v1.xlsx,New rule: Press 'space' when you see 3-back (i.e. the same letter as the one that appeared 3 letters ago.),r,None,,,,,0,3,3,3,0,9,9,9,,,,,,,,,,,,,,,,,,,,,,,,,,,,,,,,,,,,,,,,,,,1.715,270.0021098,None,271.7196483,None,None,1,271.7196483,None,273.7255954,None,,,,,,,,,,,,,,,,,,,,,,,,,,,,,,,,P030,FENCOG,1,Post,2022_Mar_18_1053,N-Back (New Version 2021),2021.1.4,120.0360588
Conditions/Version_1Pr/threeback(1)_v1.xlsx,New rule: Press 'space' when you see 3-back (i.e. the same letter as the one that appeared 3 letters ago.),,,,,,,0,3,3,3,,,,,,,,,,,,,,,,,,,,,,,,,,,,,,,,,,,,,,,,,,,,,,,,,,,,,,,,,,,,,,,,,,,,,,,,,,,,,,,,,,,,,,,,,P030,FENCOG,1,Post,2022_Mar_18_1053,N-Back (New Version 2021),2021.1.4,120.0360588
,,,,,,,,,,,,,,,,,,,,,,,,,,,,,,,,,,,,,,,,,,,,,,,,,,,,,,,,,,,,,,,,,,,,,,275.2323533,None,space,162.9156219,275.7250287,None,,,,,,,,,,,,,,,,,,,,,,,,,P030,FENCOG,1,Post,2022_Mar_18_1053,N-Back (New Version 2021),2021.1.4,120.0360588
,,,,,,,,,,,,,,,,,,,,,,,,,,,,,,,,,,,,,,,,,,,,,,,,,,,,,,,,,,,,,,,,,,,,,,,,,,,,438.6698054,None,space,1.5444209,439.1603678,None,,,,,,,,,,,,,,,,,,,P030,FENCOG,1,Post,2022_Mar_18_1053,N-Back (New Version 2021),2021.1.4,120.0360588
,,,,Conditions/Version_1/zeroback(1)_v1.xlsx,Rule: Press 'space' when you see the letter 'x' or 'X'.,b,None,,,,,,,,,0,0,0,0,0,0,0,0,,,,,,,,,,,,,,,,,,,,,,,,,,,,,,,,,,,,,,,,,,,,,,,,,,,,,,,,,,,440.826996,None,443.8103206,None,space,3.2062556,443.8103206,None,440.826996,None,1.2642,448.3158308,None,None,1,448.3158308,None,,P030,FENCOG,1,Post,2022_Mar_18_1053,N-Back (New Version 2021),2021.1.4,120.0360588
,,,,Conditions/Version_1/zeroback(1)_v1.xlsx,Rule: Press 'space' when you see the letter 'x' or 'X'.,T,None,,,,,,,,,0,0,0,0,0,1,1,1,,,,,,,,,,,,,,,,,,,,,,,,,,,,,,,,,,,,,,,,,,,,,,,,,,,,,,,,,,,,,,,,,,,,,1.971,452.2901005,None,None,1,452.2901005,None,,P030,FENCOG,1,Post,2022_Mar_18_1053,N-Back (New Version 2021),2021.1.4,120.0360588
,,,,Conditions/Version_1/zeroback(1)_v1.xlsx,Rule: Press 'space' when you see the letter 'x' or 'X'.,L,None,,,,,,,,,0,0,0,0,0,2,2,2,,,,,,,,,,,,,,,,,,,,,,,,,,,,,,,,,,,,,,,,,,,,,,,,,,,,,,,,,,,,,,,,,,,,,1.5556,455.8562927,None,None,1,455.8562927,None,,P030,FENCOG,1,Post,2022_Mar_18_1053,N-Back (New Version 2021),2021.1.4,120.0360588
,,,,Conditions/Version_1/zeroback(1)_v1.xlsx,Rule: Press 'space' when you see the letter 'x' or 'X'.,x,space,,,,,,,,,0,0,0,0,0,3,3,3,,,,,,,,,,,,,,,,,,,,,,,,,,,,,,,,,,,,,,,,,,,,,,,,,,,,,,,,,,,,,,,,,,,,,1.3324,459.1988824,None,space,1,459.1988824,None,1.4976528,P030,FENCOG,1,Post,2022_Mar_18_1053,N-Back (New Version 2021),2021.1.4,120.0360588
,,,,Conditions/Version_1/zeroback(1)_v1.xlsx,Rule: Press 'space' when you see the letter 'x' or 'X'.,o,None,,,,,,,,,0,0,0,0,0,4,4,4,,,,,,,,,,,,,,,,,,,,,,,,,,,,,,,,,,,,,,,,,,,,,,,,,,,,,,,,,,,,,,,,,,,,,1.5742,462.7780381,None,None,1,462.7780381,None,,P030,FENCOG,1,Post,2022_Mar_18_1053,N-Back (New Version 2021),2021.1.4,120.0360588
,,,,Conditions/Version_1/zeroback(1)_v1.xlsx,Rule: Press 'space' when you see the letter 'x' or 'X'.,P,None,,,,,,,,,0,0,0,0,0,5,5,5,,,,,,,,,,,,,,,,,,,,,,,,,,,,,,,,,,,,,,,,,,,,,,,,,,,,,,,,,,,,,,,,,,,,,1.103,465.8872483,None,None,1,465.8872483,None,,P030,FENCOG,1,Post,2022_Mar_18_1053,N-Back (New Version 2021),2021.1.4,120.0360588
,,,,Conditions/Version_1/zeroback(1)_v1.xlsx,Rule: Press 'space' when you see the letter 'x' or 'X'.,X,space,,,,,,,,,0,0,0,0,0,6,6,6,,,,,,,,,,,,,,,,,,,,,,,,,,,,,,,,,,,,,,,,,,,,,,,,,,,,,,,,,,,,,,,,,,,,,1.4564,469.3506335,None,space,1,469.3506335,None,0.4019348,P030,FENCOG,1,Post,2022_Mar_18_1053,N-Back (New Version 2021),2021.1.4,120.0360588
,,,,Conditions/Version_1/zeroback(1)_v1.xlsx,Rule: Press 'space' when you see the letter 'x' or 'X'.,n,None,,,,,,,,,0,0,0,0,0,7,7,7,,,,,,,,,,,,,,,,,,,,,,,,,,,,,,,,,,,,,,,,,,,,,,,,,,,,,,,,,,,,,,,,,,,,,1.5122,472.8686009,None,None,1,472.8686009,None,,P030,FENCOG,1,Post,2022_Mar_18_1053,N-Back (New Version 2021),2021.1.4,120.0360588
,,,,Conditions/Version_1/zeroback(1)_v1.xlsx,Rule: Press 'space' when you see the letter 'x' or 'X'.,M,None,,,,,,,,,0,0,0,0,0,8,8,8,,,,,,,,,,,,,,,,,,,,,,,,,,,,,,,,,,,,,,,,,,,,,,,,,,,,,,,,,,,,,,,,,,,,,1.4936,476.3743893,None,None,1,476.3743893,None,,P030,FENCOG,1,Post,2022_Mar_18_1053,N-Back (New Version 2021),2021.1.4,120.0360588
,,,,Conditions/Version_1/zeroback(1)_v1.xlsx,Rule: Press 'space' when you see the letter 'x' or 'X'.,a,None,,,,,,,,,0,0,0,0,0,9,9,9,,,,,,,,,,,,,,,,,,,,,,,,,,,,,,,,,,,,,,,,,,,,,,,,,,,,,,,,,,,,,,,,,,,,,1.444,479.8224938,None,None,1,479.8224938,None,,P030,FENCOG,1,Post,2022_Mar_18_1053,N-Back (New Version 2021),2021.1.4,120.0360588
,,,,Conditions/Version_1/zeroback(1)_v1.xlsx,Rule: Press 'space' when you see the letter 'x' or 'X'.,,,,,,,,,,,0,0,0,0,,,,,,,,,,,,,,,,,,,,,,,,,,,,,,,,,,,,,,,,,,,,,,,,,,,,,,,,,,,,,,,,,,,,,,,,,,,,,,,,,P030,FENCOG,1,Post,2022_Mar_18_1053,N-Back (New Version 2021),2021.1.4,120.0360588
,,,,Conditions/Version_1/oneback(1)_v1.xlsx,New rule: Press 'space' when you see 1-back (i.e. the same letter as the one that appeared 1 letter ago.),b,None,,,,,,,,,0,1,1,1,0,0,0,0,,,,,,,,,,,,,,,,,,,,,,,,,,,,,,,,,,,,,,,,,,,,,,,,,,,,,,,,,,,481.8440544,None,484.8317173,None,space,1.2568228,484.8317173,None,481.8440544,None,1.0348,487.1574995,None,None,1,487.1574995,None,,P030,FENCOG,1,Post,2022_Mar_18_1053,N-Back (New Version 2021),2021.1.4,120.0360588
,,,,Conditions/Version_1/oneback(1)_v1.xlsx,New rule: Press 'space' when you see 1-back (i.e. the same letter as the one that appeared 1 letter ago.),p,None,,,,,,,,,0,1,1,1,0,1,1,1,,,,,,,,,,,,,,,,,,,,,,,,,,,,,,,,,,,,,,,,,,,,,,,,,,,,,,,,,,,,,,,,,,,,,1.2704,490.4360337,None,None,1,490.4360337,None,,P030,FENCOG,1,Post,2022_Mar_18_1053,N-Back (New Version 2021),2021.1.4,120.0360588
,,,,Conditions/Version_1/oneback(1)_v1.xlsx,New rule: Press 'space' when you see 1-back (i.e. the same letter as the one that appeared 1 letter ago.),M,None,,,,,,,,,0,1,1,1,0,2,2,2,,,,,,,,,,,,,,,,,,,,,,,,,,,,,,,,,,,,,,,,,,,,,,,,,,,,,,,,,,,,,,,,,,,,,1.1278,493.5684449,None,None,1,493.5684449,None,,P030,FENCOG,1,Post,2022_Mar_18_1053,N-Back (New Version 2021),2021.1.4,120.0360588
,,,,Conditions/Version_1/oneback(1)_v1.xlsx,New rule: Press 'space' when you see 1-back (i.e. the same letter as the one that appeared 1 letter ago.),M,space,,,,,,,,,0,1,1,1,0,3,3,3,,,,,,,,,,,,,,,,,,,,,,,,,,,,,,,,,,,,,,,,,,,,,,,,,,,,,,,,,,,,,,,,,,,,,1.3386,496.9174122,None,space,1,496.9174122,None,0.6431294,P030,FENCOG,1,Post,2022_Mar_18_1053,N-Back (New Version 2021),2021.1.4,120.0360588
,,,,Conditions/Version_1/oneback(1)_v1.xlsx,New rule: Press 'space' when you see 1-back (i.e. the same letter as the one that appeared 1 letter ago.),n,None,,,,,,,,,0,1,1,1,0,4,4,4,,,,,,,,,,,,,,,,,,,,,,,,,,,,,,,,,,,,,,,,,,,,,,,,,,,,,,,,,,,,,,,,,,,,,1.5122,500.4451417,None,None,1,500.4451417,None,,P030,FENCOG,1,Post,2022_Mar_18_1053,N-Back (New Version 2021),2021.1.4,120.0360588
,,,,Conditions/Version_1/oneback(1)_v1.xlsx,New rule: Press 'space' when you see 1-back (i.e. the same letter as the one that appeared 1 letter ago.),g,None,,,,,,,,,0,1,1,1,0,5,5,5,,,,,,,,,,,,,,,,,,,,,,,,,,,,,,,,,,,,,,,,,,,,,,,,,,,,,,,,,,,,,,,,,,,,,1.9462,504.3995686,None,None,1,504.3995686,None,,P030,FENCOG,1,Post,2022_Mar_18_1053,N-Back (New Version 2021),2021.1.4,120.0360588
,,,,Conditions/Version_1/oneback(1)_v1.xlsx,New rule: Press 'space' when you see 1-back (i.e. the same letter as the one that appeared 1 letter ago.),P,None,,,,,,,,,0,1,1,1,0,6,6,6,,,,,,,,,,,,,,,,,,,,,,,,,,,,,,,,,,,,,,,,,,,,,,,,,,,,,,,,,,,,,,,,,,,,,1.7974,508.2060138,None,None,1,508.2060138,None,,P030,FENCOG,1,Post,2022_Mar_18_1053,N-Back (New Version 2021),2021.1.4,120.0360588
,,,,Conditions/Version_1/oneback(1)_v1.xlsx,New rule: Press 'space' when you see 1-back (i.e. the same letter as the one that appeared 1 letter ago.),o,None,,,,,,,,,0,1,1,1,0,7,7,7,,,,,,,,,,,,,,,,,,,,,,,,,,,,,,,,,,,,,,,,,,,,,,,,,,,,,,,,,,,,,,,,,,,,,1.1526,511.3636148,None,None,1,511.3636148,None,,P030,FENCOG,1,Post,2022_Mar_18_1053,N-Back (New Version 2021),2021.1.4,120.0360588
,,,,Conditions/Version_1/oneback(1)_v1.xlsx,New rule: Press 'space' when you see 1-back (i.e. the same letter as the one that appeared 1 letter ago.),f,None,,,,,,,,,0,1,1,1,0,8,8,8,,,,,,,,,,,,,,,,,,,,,,,,,,,,,,,,,,,,,,,,,,,,,,,,,,,,,,,,,,,,,,,,,,,,,1.816,515.2049358,None,None,1,515.2049358,None,,P030,FENCOG,1,Post,2022_Mar_18_1053,N-Back (New Version 2021),2021.1.4,120.0360588
,,,,Conditions/Version_1/oneback(1)_v1.xlsx,New rule: Press 'space' when you see 1-back (i.e. the same letter as the one that appeared 1 letter ago.),F,space,,,,,,,,,0,1,1,1,0,9,9,9,,,,,,,,,,,,,,,,,,,,,,,,,,,,,,,,,,,,,,,,,,,,,,,,,,,,,,,,,,,,,,,,,,,,,1.165,518.3705349,None,space,1,518.3705349,None,0.5501072,P030,FENCOG,1,Post,2022_Mar_18_1053,N-Back (New Version 2021),2021.1.4,120.0360588
,,,,Conditions/Version_1/oneback(1)_v1.xlsx,New rule: Press 'space' when you see 1-back (i.e. the same letter as the one that appeared 1 letter ago.),,,,,,,,,,,0,1,1,1,,,,,,,,,,,,,,,,,,,,,,,,,,,,,,,,,,,,,,,,,,,,,,,,,,,,,,,,,,,,,,,,,,,,,,,,,,,,,,,,,P030,FENCOG,1,Post,2022_Mar_18_1053,N-Back (New Version 2021),2021.1.4,120.0360588
,,,,Conditions/Version_1/twoback(1)_v1.xlsx,New rule: Press 'space' when you see 2-back (i.e. the same letter as the one that appeared 2 letters ago.),b,None,,,,,,,,,0,2,2,2,0,0,0,0,,,,,,,,,,,,,,,,,,,,,,,,,,,,,,,,,,,,,,,,,,,,,,,,,,,,,,,,,,,520.4007065,None,523.3794571,None,space,4.1169157,523.3794571,None,520.4007065,None,1.4564,528.9829819,None,None,1,528.9829819,None,,P030,FENCOG,1,Post,2022_Mar_18_1053,N-Back (New Version 2021),2021.1.4,120.0360588
,,,,Conditions/Version_1/twoback(1)_v1.xlsx,New rule: Press 'space' when you see 2-back (i.e. the same letter as the one that appeared 2 letters ago.),h,None,,,,,,,,,0,2,2,2,0,1,1,1,,,,,,,,,,,,,,,,,,,,,,,,,,,,,,,,,,,,,,,,,,,,,,,,,,,,,,,,,,,,,,,,,,,,,1.8532,532.8493372,None,None,1,532.8493372,None,,P030,FENCOG,1,Post,2022_Mar_18_1053,N-Back (New Version 2021),2021.1.4,120.0360588
,,,,Conditions/Version_1/twoback(1)_v1.xlsx,New rule: Press 'space' when you see 2-back (i.e. the same letter as the one that appeared 2 letters ago.),j,None,,,,,,,,,0,2,2,2,0,2,2,2,,,,,,,,,,,,,,,,,,,,,,,,,,,,,,,,,,,,,,,,,,,,,,,,,,,,,,,,,,,,,,,,,,,,,1.5122,536.3741802,None,None,1,536.3741802,None,,P030,FENCOG,1,Post,2022_Mar_18_1053,N-Back (New Version 2021),2021.1.4,120.0360588
,,,,Conditions/Version_1/twoback(1)_v1.xlsx,New rule: Press 'space' when you see 2-back (i.e. the same letter as the one that appeared 2 letters ago.),H,space,,,,,,,,,0,2,2,2,0,3,3,3,,,,,,,,,,,,,,,,,,,,,,,,,,,,,,,,,,,,,,,,,,,,,,,,,,,,,,,,,,,,,,,,,,,,,1.8966,540.2875992,None,None,0,540.2875992,None,,P030,FENCOG,1,Post,2022_Mar_18_1053,N-Back (New Version 2021),2021.1.4,120.0360588
,,,,Conditions/Version_1/twoback(1)_v1.xlsx,New rule: Press 'space' when you see 2-back (i.e. the same letter as the one that appeared 2 letters ago.),p,None,,,,,,,,,0,2,2,2,0,4,4,4,,,,,,,,,,,,,,,,,,,,,,,,,,,,,,,,,,,,,,,,,,,,,,,,,,,,,,,,,,,,,,,,,,,,,1.8842,544.1710639,None,None,1,544.1710639,None,,P030,FENCOG,1,Post,2022_Mar_18_1053,N-Back (New Version 2021),2021.1.4,120.0360588
,,,,Conditions/Version_1/twoback(1)_v1.xlsx,New rule: Press 'space' when you see 2-back (i.e. the same letter as the one that appeared 2 letters ago.),p,None,,,,,,,,,0,2,2,2,0,5,5,5,,,,,,,,,,,,,,,,,,,,,,,,,,,,,,,,,,,,,,,,,,,,,,,,,,,,,,,,,,,,,,,,,,,,,1.3014,547.485994,None,None,1,547.485994,None,,P030,FENCOG,1,Post,2022_Mar_18_1053,N-Back (New Version 2021),2021.1.4,120.0360588
,,,,Conditions/Version_1/twoback(1)_v1.xlsx,New rule: Press 'space' when you see 2-back (i.e. the same letter as the one that appeared 2 letters ago.),w,None,,,,,,,,,0,2,2,2,0,6,6,6,,,,,,,,,,,,,,,,,,,,,,,,,,,,,,,,,,,,,,,,,,,,,,,,,,,,,,,,,,,,,,,,,,,,,1.506,550.99432,None,None,1,550.99432,None,,P030,FENCOG,1,Post,2022_Mar_18_1053,N-Back (New Version 2021),2021.1.4,120.0360588
,,,,Conditions/Version_1/twoback(1)_v1.xlsx,New rule: Press 'space' when you see 2-back (i.e. the same letter as the one that appeared 2 letters ago.),R,None,,,,,,,,,0,2,2,2,0,7,7,7,,,,,,,,,,,,,,,,,,,,,,,,,,,,,,,,,,,,,,,,,,,,,,,,,,,,,,,,,,,,,,,,,,,,,1.7354,554.7435864,None,None,1,554.7435864,None,,P030,FENCOG,1,Post,2022_Mar_18_1053,N-Back (New Version 2021),2021.1.4,120.0360588
,,,,Conditions/Version_1/twoback(1)_v1.xlsx,New rule: Press 'space' when you see 2-back (i.e. the same letter as the one that appeared 2 letters ago.),a,None,,,,,,,,,0,2,2,2,0,8,8,8,,,,,,,,,,,,,,,,,,,,,,,,,,,,,,,,,,,,,,,,,,,,,,,,,,,,,,,,,,,,,,,,,,,,,1.2704,558.02553,None,None,1,558.02553,None,,P030,FENCOG,1,Post,2022_Mar_18_1053,N-Back (New Version 2021),2021.1.4,120.0360588
,,,,Conditions/Version_1/twoback(1)_v1.xlsx,New rule: Press 'space' when you see 2-back (i.e. the same letter as the one that appeared 2 letters ago.),r,space,,,,,,,,,0,2,2,2,0,9,9,9,,,,,,,,,,,,,,,,,,,,,,,,,,,,,,,,,,,,,,,,,,,,,,,,,,,,,,,,,,,,,,,,,,,,,1.1774,561.2149315,None,space,1,561.2149315,None,1.2574023,P030,FENCOG,1,Post,2022_Mar_18_1053,N-Back (New Version 2021),2021.1.4,120.0360588
,,,,Conditions/Version_1/twoback(1)_v1.xlsx,New rule: Press 'space' when you see 2-back (i.e. the same letter as the one that appeared 2 letters ago.),,,,,,,,,,,0,2,2,2,,,,,,,,,,,,,,,,,,,,,,,,,,,,,,,,,,,,,,,,,,,,,,,,,,,,,,,,,,,,,,,,,,,,,,,,,,,,,,,,,P030,FENCOG,1,Post,2022_Mar_18_1053,N-Back (New Version 2021),2021.1.4,120.0360588
,,,,Conditions/Version_1/threeback(1)_v1.xlsx,New rule: Press 'space' when you see 3-back (i.e. the same letter as the one that appeared 3 letters ago.),r,None,,,,,,,,,0,3,3,3,0,0,0,0,,,,,,,,,,,,,,,,,,,,,,,,,,,,,,,,,,,,,,,,,,,,,,,,,,,,,,,,,,,563.2353825,None,566.2242623,None,space,1.3441132,566.2242623,None,563.2353825,None,1.3386,568.9377127,None,None,1,568.9377127,None,,P030,FENCOG,1,Post,2022_Mar_18_1053,N-Back (New Version 2021),2021.1.4,120.0360588
,,,,Conditions/Version_1/threeback(1)_v1.xlsx,New rule: Press 'space' when you see 3-back (i.e. the same letter as the one that appeared 3 letters ago.),o,None,,,,,,,,,0,3,3,3,0,1,1,1,,,,,,,,,,,,,,,,,,,,,,,,,,,,,,,,,,,,,,,,,,,,,,,,,,,,,,,,,,,,,,,,,,,,,1.413,572.3546009,None,None,1,572.3546009,None,,P030,FENCOG,1,Post,2022_Mar_18_1053,N-Back (New Version 2021),2021.1.4,120.0360588
,,,,Conditions/Version_1/threeback(1)_v1.xlsx,New rule: Press 'space' when you see 3-back (i.e. the same letter as the one that appeared 3 letters ago.),P,None,,,,,,,,,0,3,3,3,0,2,2,2,,,,,,,,,,,,,,,,,,,,,,,,,,,,,,,,,,,,,,,,,,,,,,,,,,,,,,,,,,,,,,,,,,,,,1.32,575.6868027,None,None,1,575.6868027,None,,P030,FENCOG,1,Post,2022_Mar_18_1053,N-Back (New Version 2021),2021.1.4,120.0360588
,,,,Conditions/Version_1/threeback(1)_v1.xlsx,New rule: Press 'space' when you see 3-back (i.e. the same letter as the one that appeared 3 letters ago.),R,space,,,,,,,,,0,3,3,3,0,3,3,3,,,,,,,,,,,,,,,,,,,,,,,,,,,,,,,,,,,,,,,,,,,,,,,,,,,,,,,,,,,,,,,,,,,,,1.475,579.1753913,None,space,1,579.1753913,None,0.8329337,P030,FENCOG,1,Post,2022_Mar_18_1053,N-Back (New Version 2021),2021.1.4,120.0360588
,,,,Conditions/Version_1/threeback(1)_v1.xlsx,New rule: Press 'space' when you see 3-back (i.e. the same letter as the one that appeared 3 letters ago.),p,None,,,,,,,,,0,3,3,3,0,4,4,4,,,,,,,,,,,,,,,,,,,,,,,,,,,,,,,,,,,,,,,,,,,,,,,,,,,,,,,,,,,,,,,,,,,,,1.1712,582.3505779,None,None,1,582.3505779,None,,P030,FENCOG,1,Post,2022_Mar_18_1053,N-Back (New Version 2021),2021.1.4,120.0360588
,,,,Conditions/Version_1/threeback(1)_v1.xlsx,New rule: Press 'space' when you see 3-back (i.e. the same letter as the one that appeared 3 letters ago.),E,None,,,,,,,,,0,3,3,3,0,5,5,5,,,,,,,,,,,,,,,,,,,,,,,,,,,,,,,,,,,,,,,,,,,,,,,,,,,,,,,,,,,,,,,,,,,,,1.847,586.2036707,None,space,0,586.2036707,None,1.500595,P030,FENCOG,1,Post,2022_Mar_18_1053,N-Back (New Version 2021),2021.1.4,120.0360588
,,,,Conditions/Version_1/threeback(1)_v1.xlsx,New rule: Press 'space' when you see 3-back (i.e. the same letter as the one that appeared 3 letters ago.),e,None,,,,,,,,,0,3,3,3,0,6,6,6,,,,,,,,,,,,,,,,,,,,,,,,,,,,,,,,,,,,,,,,,,,,,,,,,,,,,,,,,,,,,,,,,,,,,1.7788,589.9897937,None,None,1,589.9897937,None,,P030,FENCOG,1,Post,2022_Mar_18_1053,N-Back (New Version 2021),2021.1.4,120.0360588
,,,,Conditions/Version_1/threeback(1)_v1.xlsx,New rule: Press 'space' when you see 3-back (i.e. the same letter as the one that appeared 3 letters ago.),m,None,,,,,,,,,0,3,3,3,0,7,7,7,,,,,,,,,,,,,,,,,,,,,,,,,,,,,,,,,,,,,,,,,,,,,,,,,,,,,,,,,,,,,,,,,,,,,1.5928,593.5907085,None,None,1,593.5907085,None,,P030,FENCOG,1,Post,2022_Mar_18_1053,N-Back (New Version 2021),2021.1.4,120.0360588
,,,,Conditions/Version_1/threeback(1)_v1.xlsx,New rule: Press 'space' when you see 3-back (i.e. the same letter as the one that appeared 3 letters ago.),n,None,,,,,,,,,0,3,3,3,0,8,8,8,,,,,,,,,,,,,,,,,,,,,,,,,,,,,,,,,,,,,,,,,,,,,,,,,,,,,,,,,,,,,,,,,,,,,1.692,597.2877179,None,None,1,597.2877179,None,,P030,FENCOG,1,Post,2022_Mar_18_1053,N-Back (New Version 2021),2021.1.4,120.0360588
,,,,Conditions/Version_1/threeback(1)_v1.xlsx,New rule: Press 'space' when you see 3-back (i.e. the same letter as the one that appeared 3 letters ago.),e,space,,,,,,,,,0,3,3,3,0,9,9,9,,,,,,,,,,,,,,,,,,,,,,,,,,,,,,,,,,,,,,,,,,,,,,,,,,,,,,,,,,,,,,,,,,,,,1.7168,601.0033321,None,space,1,601.0033321,None,0.5890769,P030,FENCOG,1,Post,2022_Mar_18_1053,N-Back (New Version 2021),2021.1.4,120.0360588
,,,,Conditions/Version_1/threeback(1)_v1.xlsx,New rule: Press 'space' when you see 3-back (i.e. the same letter as the one that appeared 3 letters ago.),,,,,,,,,,,0,3,3,3,,,,,,,,,,,,,,,,,,,,,,,,,,,,,,,,,,,,,,,,,,,,,,,,,,,,,,,,,,,,,,,,,,,,,,,,,,,,,,,,,P030,FENCOG,1,Post,2022_Mar_18_1053,N-Back (New Version 2021),2021.1.4,120.0360588
,,,,Conditions/Version_1/oneback(2)_v1.xlsx,New rule: Press 'space' when you see 1-back (i.e. the same letter as the one that appeared 1 letter ago.),q,None,,,,,,,,,0,4,4,4,0,0,0,0,,,,,,,,,,,,,,,,,,,,,,,,,,,,,,,,,,,,,,,,,,,,,,,,,,,,,,,,,,,603.0267116,None,606.0122513,None,space,7.2679259,606.0122513,None,603.0267116,None,1.3076,614.61817,None,None,1,614.61817,None,,P030,FENCOG,1,Post,2022_Mar_18_1053,N-Back (New Version 2021),2021.1.4,120.0360588
,,,,Conditions/Version_1/oneback(2)_v1.xlsx,New rule: Press 'space' when you see 1-back (i.e. the same letter as the one that appeared 1 letter ago.),Q,space,,,,,,,,,0,4,4,4,0,1,1,1,,,,,,,,,,,,,,,,,,,,,,,,,,,,,,,,,,,,,,,,,,,,,,,,,,,,,,,,,,,,,,,,,,,,,1.9462,618.5752064,None,space,1,618.5752064,None,0.5929891,P030,FENCOG,1,Post,2022_Mar_18_1053,N-Back (New Version 2021),2021.1.4,120.0360588
,,,,Conditions/Version_1/oneback(2)_v1.xlsx,New rule: Press 'space' when you see 1-back (i.e. the same letter as the one that appeared 1 letter ago.),P,None,,,,,,,,,0,4,4,4,0,2,2,2,,,,,,,,,,,,,,,,,,,,,,,,,,,,,,,,,,,,,,,,,,,,,,,,,,,,,,,,,,,,,,,,,,,,,1.7788,622.3639245,None,None,1,622.3639245,None,,P030,FENCOG,1,Post,2022_Mar_18_1053,N-Back (New Version 2021),2021.1.4,120.0360588
,,,,Conditions/Version_1/oneback(2)_v1.xlsx,New rule: Press 'space' when you see 1-back (i.e. the same letter as the one that appeared 1 letter ago.),o,None,,,,,,,,,0,4,4,4,0,3,3,3,,,,,,,,,,,,,,,,,,,,,,,,,,,,,,,,,,,,,,,,,,,,,,,,,,,,,,,,,,,,,,,,,,,,,1.2456,625.6234595,None,None,1,625.6234595,None,,P030,FENCOG,1,Post,2022_Mar_18_1053,N-Back (New Version 2021),2021.1.4,120.0360588
,,,,Conditions/Version_1/oneback(2)_v1.xlsx,New rule: Press 'space' when you see 1-back (i.e. the same letter as the one that appeared 1 letter ago.),m,None,,,,,,,,,0,4,4,4,0,4,4,4,,,,,,,,,,,,,,,,,,,,,,,,,,,,,,,,,,,,,,,,,,,,,,,,,,,,,,,,,,,,,,,,,,,,,1.6486,629.2781679,None,space,0,629.2781679,None,0.9700238,P030,FENCOG,1,Post,2022_Mar_18_1053,N-Back (New Version 2021),2021.1.4,120.0360588
,,,,Conditions/Version_1/oneback(2)_v1.xlsx,New rule: Press 'space' when you see 1-back (i.e. the same letter as the one that appeared 1 letter ago.),Z,None,,,,,,,,,0,4,4,4,0,5,5,5,,,,,,,,,,,,,,,,,,,,,,,,,,,,,,,,,,,,,,,,,,,,,,,,,,,,,,,,,,,,,,,,,,,,,1.1216,632.4081786,None,None,1,632.4081786,None,,P030,FENCOG,1,Post,2022_Mar_18_1053,N-Back (New Version 2021),2021.1.4,120.0360588
,,,,Conditions/Version_1/oneback(2)_v1.xlsx,New rule: Press 'space' when you see 1-back (i.e. the same letter as the one that appeared 1 letter ago.),c,None,,,,,,,,,0,4,4,4,0,6,6,6,,,,,,,,,,,,,,,,,,,,,,,,,,,,,,,,,,,,,,,,,,,,,,,,,,,,,,,,,,,,,,,,,,,,,1.9524,636.3680996,None,None,1,636.3680996,None,,P030,FENCOG,1,Post,2022_Mar_18_1053,N-Back (New Version 2021),2021.1.4,120.0360588
,,,,Conditions/Version_1/oneback(2)_v1.xlsx,New rule: Press 'space' when you see 1-back (i.e. the same letter as the one that appeared 1 letter ago.),c,space,,,,,,,,,0,4,4,4,0,7,7,7,,,,,,,,,,,,,,,,,,,,,,,,,,,,,,,,,,,,,,,,,,,,,,,,,,,,,,,,,,,,,,,,,,,,,1.4688,639.8419177,None,space,1,639.8419177,None,1.7262814,P030,FENCOG,1,Post,2022_Mar_18_1053,N-Back (New Version 2021),2021.1.4,120.0360588
,,,,Conditions/Version_1/oneback(2)_v1.xlsx,New rule: Press 'space' when you see 1-back (i.e. the same letter as the one that appeared 1 letter ago.),P,None,,,,,,,,,0,4,4,4,0,8,8,8,,,,,,,,,,,,,,,,,,,,,,,,,,,,,,,,,,,,,,,,,,,,,,,,,,,,,,,,,,,,,,,,,,,,,1.7726,643.6156859,None,None,1,643.6156859,None,,P030,FENCOG,1,Post,2022_Mar_18_1053,N-Back (New Version 2021),2021.1.4,120.0360588
,,,,Conditions/Version_1/oneback(2)_v1.xlsx,New rule: Press 'space' when you see 1-back (i.e. the same letter as the one that appeared 1 letter ago.),p,space,,,,,,,,,0,4,4,4,0,9,9,9,,,,,,,,,,,,,,,,,,,,,,,,,,,,,,,,,,,,,,,,,,,,,,,,,,,,,,,,,,,,,,,,,,,,,1.134,646.7561964,None,space,1,646.7561964,None,0.7079541,P030,FENCOG,1,Post,2022_Mar_18_1053,N-Back (New Version 2021),2021.1.4,120.0360588
,,,,Conditions/Version_1/oneback(2)_v1.xlsx,New rule: Press 'space' when you see 1-back (i.e. the same letter as the one that appeared 1 letter ago.),,,,,,,,,,,0,4,4,4,,,,,,,,,,,,,,,,,,,,,,,,,,,,,,,,,,,,,,,,,,,,,,,,,,,,,,,,,,,,,,,,,,,,,,,,,,,,,,,,,P030,FENCOG,1,Post,2022_Mar_18_1053,N-Back (New Version 2021),2021.1.4,120.0360588
,,,,Conditions/Version_1/zeroback(2)_v1.xlsx,New rule: Press 'space' when you see the letter 'x' or 'X'.,p,None,,,,,,,,,0,5,5,5,0,0,0,0,,,,,,,,,,,,,,,,,,,,,,,,,,,,,,,,,,,,,,,,,,,,,,,,,,,,,,,,,,,648.7749617,None,651.7654275,None,space,0.0347342,651.7654275,None,648.7749617,None,1.072,652.8975146,None,None,1,652.8975146,None,,P030,FENCOG,1,Post,2022_Mar_18_1053,N-Back (New Version 2021),2021.1.4,120.0360588
,,,,Conditions/Version_1/zeroback(2)_v1.xlsx,New rule: Press 'space' when you see the letter 'x' or 'X'.,L,None,,,,,,,,,0,5,5,5,0,1,1,1,,,,,,,,,,,,,,,,,,,,,,,,,,,,,,,,,,,,,,,,,,,,,,,,,,,,,,,,,,,,,,,,,,,,,1.9276,656.8366746,None,None,1,656.8366746,None,,P030,FENCOG,1,Post,2022_Mar_18_1053,N-Back (New Version 2021),2021.1.4,120.0360588
,,,,Conditions/Version_1/zeroback(2)_v1.xlsx,New rule: Press 'space' when you see the letter 'x' or 'X'.,G,None,,,,,,,,,0,5,5,5,0,2,2,2,,,,,,,,,,,,,,,,,,,,,,,,,,,,,,,,,,,,,,,,,,,,,,,,,,,,,,,,,,,,,,,,,,,,,1.0782,659.9233364,None,None,1,659.9233364,None,,P030,FENCOG,1,Post,2022_Mar_18_1053,N-Back (New Version 2021),2021.1.4,120.0360588
,,,,Conditions/Version_1/zeroback(2)_v1.xlsx,New rule: Press 'space' when you see the letter 'x' or 'X'.,y,None,,,,,,,,,0,5,5,5,0,3,3,3,,,,,,,,,,,,,,,,,,,,,,,,,,,,,,,,,,,,,,,,,,,,,,,,,,,,,,,,,,,,,,,,,,,,,1.8284,663.7595567,None,None,1,663.7595567,None,,P030,FENCOG,1,Post,2022_Mar_18_1053,N-Back (New Version 2021),2021.1.4,120.0360588
,,,,Conditions/Version_1/zeroback(2)_v1.xlsx,New rule: Press 'space' when you see the letter 'x' or 'X'.,Y,None,,,,,,,,,0,5,5,5,0,4,4,4,,,,,,,,,,,,,,,,,,,,,,,,,,,,,,,,,,,,,,,,,,,,,,,,,,,,,,,,,,,,,,,,,,,,,1.9586,667.7275206,None,None,1,667.7275206,None,,P030,FENCOG,1,Post,2022_Mar_18_1053,N-Back (New Version 2021),2021.1.4,120.0360588
,,,,Conditions/Version_1/zeroback(2)_v1.xlsx,New rule: Press 'space' when you see the letter 'x' or 'X'.,W,None,,,,,,,,,0,5,5,5,0,5,5,5,,,,,,,,,,,,,,,,,,,,,,,,,,,,,,,,,,,,,,,,,,,,,,,,,,,,,,,,,,,,,,,,,,,,,1.7912,671.5332169,None,None,1,671.5332169,None,,P030,FENCOG,1,Post,2022_Mar_18_1053,N-Back (New Version 2021),2021.1.4,120.0360588
,,,,Conditions/Version_1/zeroback(2)_v1.xlsx,New rule: Press 'space' when you see the letter 'x' or 'X'.,x,space,,,,,,,,,0,5,5,5,0,6,6,6,,,,,,,,,,,,,,,,,,,,,,,,,,,,,,,,,,,,,,,,,,,,,,,,,,,,,,,,,,,,,,,,,,,,,1.971,675.5107379,None,space,1,675.5107379,None,0.4661276,P030,FENCOG,1,Post,2022_Mar_18_1053,N-Back (New Version 2021),2021.1.4,120.0360588
,,,,Conditions/Version_1/zeroback(2)_v1.xlsx,New rule: Press 'space' when you see the letter 'x' or 'X'.,X,space,,,,,,,,,0,5,5,5,0,7,7,7,,,,,,,,,,,,,,,,,,,,,,,,,,,,,,,,,,,,,,,,,,,,,,,,,,,,,,,,,,,,,,,,,,,,,1.506,679.02245,None,space,1,679.02245,None,0.4175925,P030,FENCOG,1,Post,2022_Mar_18_1053,N-Back (New Version 2021),2021.1.4,120.0360588
,,,,Conditions/Version_1/zeroback(2)_v1.xlsx,New rule: Press 'space' when you see the letter 'x' or 'X'.,p,None,,,,,,,,,0,5,5,5,0,8,8,8,,,,,,,,,,,,,,,,,,,,,,,,,,,,,,,,,,,,,,,,,,,,,,,,,,,,,,,,,,,,,,,,,,,,,1.568,682.5958213,None,None,1,682.5958213,None,,P030,FENCOG,1,Post,2022_Mar_18_1053,N-Back (New Version 2021),2021.1.4,120.0360588
,,,,Conditions/Version_1/zeroback(2)_v1.xlsx,New rule: Press 'space' when you see the letter 'x' or 'X'.,h,None,,,,,,,,,0,5,5,5,0,9,9,9,,,,,,,,,,,,,,,,,,,,,,,,,,,,,,,,,,,,,,,,,,,,,,,,,,,,,,,,,,,,,,,,,,,,,1.0162,685.6114788,None,None,1,685.6114788,None,,P030,FENCOG,1,Post,2022_Mar_18_1053,N-Back (New Version 2021),2021.1.4,120.0360588
,,,,Conditions/Version_1/zeroback(2)_v1.xlsx,New rule: Press 'space' when you see the letter 'x' or 'X'.,,,,,,,,,,,0,5,5,5,,,,,,,,,,,,,,,,,,,,,,,,,,,,,,,,,,,,,,,,,,,,,,,,,,,,,,,,,,,,,,,,,,,,,,,,,,,,,,,,,P030,FENCOG,1,Post,2022_Mar_18_1053,N-Back (New Version 2021),2021.1.4,120.0360588
,,,,Conditions/Version_1/threeback(2)_v1.xlsx,New rule: Press 'space' when you see 3-back (i.e. the same letter as the one that appeared 3 letters ago.),q,None,,,,,,,,,0,6,6,6,0,0,0,0,,,,,,,,,,,,,,,,,,,,,,,,,,,,,,,,,,,,,,,,,,,,,,,,,,,,,,,,,,,687.6329141,None,690.6217044,None,space,86.0420151,690.6217044,None,687.6329141,None,1.63,778.3268707,None,None,1,778.3268707,None,,P030,FENCOG,1,Post,2022_Mar_18_1053,N-Back (New Version 2021),2021.1.4,120.0360588
,,,,Conditions/Version_1/threeback(2)_v1.xlsx,New rule: Press 'space' when you see 3-back (i.e. the same letter as the one that appeared 3 letters ago.),Y,None,,,,,,,,,0,6,6,6,0,1,1,1,,,,,,,,,,,,,,,,,,,,,,,,,,,,,,,,,,,,,,,,,,,,,,,,,,,,,,,,,,,,,,,,,,,,,1.134,781.4782641,None,None,1,781.4782641,None,,P030,FENCOG,1,Post,2022_Mar_18_1053,N-Back (New Version 2021),2021.1.4,120.0360588
,,,,Conditions/Version_1/threeback(2)_v1.xlsx,New rule: Press 'space' when you see 3-back (i.e. the same letter as the one that appeared 3 letters ago.),p,None,,,,,,,,,0,6,6,6,0,2,2,2,,,,,,,,,,,,,,,,,,,,,,,,,,,,,,,,,,,,,,,,,,,,,,,,,,,,,,,,,,,,,,,,,,,,,1.7416,785.223531,None,None,1,785.223531,None,,P030,FENCOG,1,Post,2022_Mar_18_1053,N-Back (New Version 2021),2021.1.4,120.0360588
,,,,Conditions/Version_1/threeback(2)_v1.xlsx,New rule: Press 'space' when you see 3-back (i.e. the same letter as the one that appeared 3 letters ago.),p,None,,,,,,,,,0,6,6,6,0,3,3,3,,,,,,,,,,,,,,,,,,,,,,,,,,,,,,,,,,,,,,,,,,,,,,,,,,,,,,,,,,,,,,,,,,,,,1.1526,788.3827737,None,None,1,788.3827737,None,,P030,FENCOG,1,Post,2022_Mar_18_1053,N-Back (New Version 2021),2021.1.4,120.0360588
,,,,Conditions/Version_1/threeback(2)_v1.xlsx,New rule: Press 'space' when you see 3-back (i.e. the same letter as the one that appeared 3 letters ago.),y,space,,,,,,,,,0,6,6,6,0,4,4,4,,,,,,,,,,,,,,,,,,,,,,,,,,,,,,,,,,,,,,,,,,,,,,,,,,,,,,,,,,,,,,,,,,,,,1.7106,792.1114784,None,space,1,792.1114784,None,0.8162587,P030,FENCOG,1,Post,2022_Mar_18_1053,N-Back (New Version 2021),2021.1.4,120.0360588
,,,,Conditions/Version_1/threeback(2)_v1.xlsx,New rule: Press 'space' when you see 3-back (i.e. the same letter as the one that appeared 3 letters ago.),u,None,,,,,,,,,0,6,6,6,0,5,5,5,,,,,,,,,,,,,,,,,,,,,,,,,,,,,,,,,,,,,,,,,,,,,,,,,,,,,,,,,,,,,,,,,,,,,1.196,795.3135207,None,None,1,795.3135207,None,,P030,FENCOG,1,Post,2022_Mar_18_1053,N-Back (New Version 2021),2021.1.4,120.0360588
,,,,Conditions/Version_1/threeback(2)_v1.xlsx,New rule: Press 'space' when you see 3-back (i.e. the same letter as the one that appeared 3 letters ago.),P,space,,,,,,,,,0,6,6,6,0,6,6,6,,,,,,,,,,,,,,,,,,,,,,,,,,,,,,,,,,,,,,,,,,,,,,,,,,,,,,,,,,,,,,,,,,,,,1.5618,798.8863045,None,space,1,798.8863045,None,1.8973757,P030,FENCOG,1,Post,2022_Mar_18_1053,N-Back (New Version 2021),2021.1.4,120.0360588
,,,,Conditions/Version_1/threeback(2)_v1.xlsx,New rule: Press 'space' when you see 3-back (i.e. the same letter as the one that appeared 3 letters ago.),a,None,,,,,,,,,0,6,6,6,0,7,7,7,,,,,,,,,,,,,,,,,,,,,,,,,,,,,,,,,,,,,,,,,,,,,,,,,,,,,,,,,,,,,,,,,,,,,1.2704,802.1612072,None,None,1,802.1612072,None,,P030,FENCOG,1,Post,2022_Mar_18_1053,N-Back (New Version 2021),2021.1.4,120.0360588
,,,,Conditions/Version_1/threeback(2)_v1.xlsx,New rule: Press 'space' when you see 3-back (i.e. the same letter as the one that appeared 3 letters ago.),U,space,,,,,,,,,0,6,6,6,0,8,8,8,,,,,,,,,,,,,,,,,,,,,,,,,,,,,,,,,,,,,,,,,,,,,,,,,,,,,,,,,,,,,,,,,,,,,1.9462,806.119625,None,None,0,806.119625,None,,P030,FENCOG,1,Post,2022_Mar_18_1053,N-Back (New Version 2021),2021.1.4,120.0360588
,,,,Conditions/Version_1/threeback(2)_v1.xlsx,New rule: Press 'space' when you see 3-back (i.e. the same letter as the one that appeared 3 letters ago.),q,None,,,,,,,,,0,6,6,6,0,9,9,9,,,,,,,,,,,,,,,,,,,,,,,,,,,,,,,,,,,,,,,,,,,,,,,,,,,,,,,,,,,,,,,,,,,,,1.8532,809.9870231,None,None,1,809.9870231,None,,P030,FENCOG,1,Post,2022_Mar_18_1053,N-Back (New Version 2021),2021.1.4,120.0360588
,,,,Conditions/Version_1/threeback(2)_v1.xlsx,New rule: Press 'space' when you see 3-back (i.e. the same letter as the one that appeared 3 letters ago.),,,,,,,,,,,0,6,6,6,,,,,,,,,,,,,,,,,,,,,,,,,,,,,,,,,,,,,,,,,,,,,,,,,,,,,,,,,,,,,,,,,,,,,,,,,,,,,,,,,P030,FENCOG,1,Post,2022_Mar_18_1053,N-Back (New Version 2021),2021.1.4,120.0360588
,,,,Conditions/Version_1/twoback(2)_v1.xlsx,New rule: Press 'space' when you see 2-back (i.e. the same letter as the one that appeared 2 letters ago.),q,None,,,,,,,,,0,7,7,7,0,0,0,0,,,,,,,,,,,,,,,,,,,,,,,,,,,,,,,,,,,,,,,,,,,,,,,,,,,,,,,,,,,812.0193162,None,815.0089214,None,space,24.3347858,815.0089214,None,812.0193162,None,1.63,840.9989243,None,None,1,840.9989243,None,,P030,FENCOG,1,Post,2022_Mar_18_1053,N-Back (New Version 2021),2021.1.4,120.0360588
,,,,Conditions/Version_1/twoback(2)_v1.xlsx,New rule: Press 'space' when you see 2-back (i.e. the same letter as the one that appeared 2 letters ago.),r,None,,,,,,,,,0,7,7,7,0,1,1,1,,,,,,,,,,,,,,,,,,,,,,,,,,,,,,,,,,,,,,,,,,,,,,,,,,,,,,,,,,,,,,,,,,,,,1.8842,844.8891219,None,None,1,844.8891219,None,,P030,FENCOG,1,Post,2022_Mar_18_1053,N-Back (New Version 2021),2021.1.4,120.0360588
,,,,Conditions/Version_1/twoback(2)_v1.xlsx,New rule: Press 'space' when you see 2-back (i.e. the same letter as the one that appeared 2 letters ago.),q,space,,,,,,,,,0,7,7,7,0,2,2,2,,,,,,,,,,,,,,,,,,,,,,,,,,,,,,,,,,,,,,,,,,,,,,,,,,,,,,,,,,,,,,,,,,,,,1.5184,848.4184485,None,None,0,848.4184485,None,,P030,FENCOG,1,Post,2022_Mar_18_1053,N-Back (New Version 2021),2021.1.4,120.0360588
,,,,Conditions/Version_1/twoback(2)_v1.xlsx,New rule: Press 'space' when you see 2-back (i.e. the same letter as the one that appeared 2 letters ago.),P,None,,,,,,,,,0,7,7,7,0,3,3,3,,,,,,,,,,,,,,,,,,,,,,,,,,,,,,,,,,,,,,,,,,,,,,,,,,,,,,,,,,,,,,,,,,,,,1.1774,851.6039206,None,None,1,851.6039206,None,,P030,FENCOG,1,Post,2022_Mar_18_1053,N-Back (New Version 2021),2021.1.4,120.0360588
,,,,Conditions/Version_1/twoback(2)_v1.xlsx,New rule: Press 'space' when you see 2-back (i.e. the same letter as the one that appeared 2 letters ago.),p,None,,,,,,,,,0,7,7,7,0,4,4,4,,,,,,,,,,,,,,,,,,,,,,,,,,,,,,,,,,,,,,,,,,,,,,,,,,,,,,,,,,,,,,,,,,,,,1.878,855.4860315,None,None,1,855.4860315,None,,P030,FENCOG,1,Post,2022_Mar_18_1053,N-Back (New Version 2021),2021.1.4,120.0360588
,,,,Conditions/Version_1/twoback(2)_v1.xlsx,New rule: Press 'space' when you see 2-back (i.e. the same letter as the one that appeared 2 letters ago.),H,None,,,,,,,,,0,7,7,7,0,5,5,5,,,,,,,,,,,,,,,,,,,,,,,,,,,,,,,,,,,,,,,,,,,,,,,,,,,,,,,,,,,,,,,,,,,,,1.6052,859.1016352,None,None,1,859.1016352,None,,P030,FENCOG,1,Post,2022_Mar_18_1053,N-Back (New Version 2021),2021.1.4,120.0360588
,,,,Conditions/Version_1/twoback(2)_v1.xlsx,New rule: Press 'space' when you see 2-back (i.e. the same letter as the one that appeared 2 letters ago.),g,None,,,,,,,,,0,7,7,7,0,6,6,6,,,,,,,,,,,,,,,,,,,,,,,,,,,,,,,,,,,,,,,,,,,,,,,,,,,,,,,,,,,,,,,,,,,,,1.506,862.6089816,None,None,1,862.6089816,None,,P030,FENCOG,1,Post,2022_Mar_18_1053,N-Back (New Version 2021),2021.1.4,120.0360588
,,,,Conditions/Version_1/twoback(2)_v1.xlsx,New rule: Press 'space' when you see 2-back (i.e. the same letter as the one that appeared 2 letters ago.),j,None,,,,,,,,,0,7,7,7,0,7,7,7,,,,,,,,,,,,,,,,,,,,,,,,,,,,,,,,,,,,,,,,,,,,,,,,,,,,,,,,,,,,,,,,,,,,,1.9896,866.5997736,None,None,1,866.5997736,None,,P030,FENCOG,1,Post,2022_Mar_18_1053,N-Back (New Version 2021),2021.1.4,120.0360588
,,,,Conditions/Version_1/twoback(2)_v1.xlsx,New rule: Press 'space' when you see 2-back (i.e. the same letter as the one that appeared 2 letters ago.),g,space,,,,,,,,,0,7,7,7,0,8,8,8,,,,,,,,,,,,,,,,,,,,,,,,,,,,,,,,,,,,,,,,,,,,,,,,,,,,,,,,,,,,,,,,,,,,,1.5804,870.1817053,None,space,1,870.1817053,None,0.8419797,P030,FENCOG,1,Post,2022_Mar_18_1053,N-Back (New Version 2021),2021.1.4,120.0360588
,,,,Conditions/Version_1/twoback(2)_v1.xlsx,New rule: Press 'space' when you see 2-back (i.e. the same letter as the one that appeared 2 letters ago.),G,None,,,,,,,,,0,7,7,7,0,9,9,9,,,,,,,,,,,,,,,,,,,,,,,,,,,,,,,,,,,,,,,,,,,,,,,,,,,,,,,,,,,,,,,,,,,,,1.8036,873.9889375,None,None,1,873.9889375,None,,P030,FENCOG,1,Post,2022_Mar_18_1053,N-Back (New Version 2021),2021.1.4,120.0360588
,,,,Conditions/Version_1/twoback(2)_v1.xlsx,New rule: Press 'space' when you see 2-back (i.e. the same letter as the one that appeared 2 letters ago.),,,,,,,,,,,0,7,7,7,,,,,,,,,,,,,,,,,,,,,,,,,,,,,,,,,,,,,,,,,,,,,,,,,,,,,,,,,,,,,,,,,,,,,,,,,,,,,,,,,P030,FENCOG,1,Post,2022_Mar_18_1053,N-Back (New Version 2021),2021.1.4,120.0360588
,,,,Conditions/Version_1/threeback(3)_v1.xlsx,New rule: Press 'space' when you see 3-back (i.e. the same letter as the one that appeared 3 letters ago.),w,None,,,,,,,,,0,8,8,8,0,0,0,0,,,,,,,,,,,,,,,,,,,,,,,,,,,,,,,,,,,,,,,,,,,,,,,,,,,,,,,,,,,876.0293945,None,879.0065501,None,space,117.2327833,879.0065501,None,876.0293945,None,1.8284,998.0985798,None,None,1,998.0985798,None,,P030,FENCOG,1,Post,2022_Mar_18_1053,N-Back (New Version 2021),2021.1.4,120.0360588
,,,,Conditions/Version_1/threeback(3)_v1.xlsx,New rule: Press 'space' when you see 3-back (i.e. the same letter as the one that appeared 3 letters ago.),p,None,,,,,,,,,0,8,8,8,0,1,1,1,,,,,,,,,,,,,,,,,,,,,,,,,,,,,,,,,,,,,,,,,,,,,,,,,,,,,,,,,,,,,,,,,,,,,1.5928,1001.701137,None,None,1,1001.701137,None,,P030,FENCOG,1,Post,2022_Mar_18_1053,N-Back (New Version 2021),2021.1.4,120.0360588
,,,,Conditions/Version_1/threeback(3)_v1.xlsx,New rule: Press 'space' when you see 3-back (i.e. the same letter as the one that appeared 3 letters ago.),P,None,,,,,,,,,0,8,8,8,0,2,2,2,,,,,,,,,,,,,,,,,,,,,,,,,,,,,,,,,,,,,,,,,,,,,,,,,,,,,,,,,,,,,,,,,,,,,1.7292,1005.434438,None,None,1,1005.434438,None,,P030,FENCOG,1,Post,2022_Mar_18_1053,N-Back (New Version 2021),2021.1.4,120.0360588
,,,,Conditions/Version_1/threeback(3)_v1.xlsx,New rule: Press 'space' when you see 3-back (i.e. the same letter as the one that appeared 3 letters ago.),i,None,,,,,,,,,0,8,8,8,0,3,3,3,,,,,,,,,,,,,,,,,,,,,,,,,,,,,,,,,,,,,,,,,,,,,,,,,,,,,,,,,,,,,,,,,,,,,1.3386,1008.784,None,None,1,1008.784,None,,P030,FENCOG,1,Post,2022_Mar_18_1053,N-Back (New Version 2021),2021.1.4,120.0360588
,,,,Conditions/Version_1/threeback(3)_v1.xlsx,New rule: Press 'space' when you see 3-back (i.e. the same letter as the one that appeared 3 letters ago.),f,None,,,,,,,,,0,8,8,8,0,4,4,4,,,,,,,,,,,,,,,,,,,,,,,,,,,,,,,,,,,,,,,,,,,,,,,,,,,,,,,,,,,,,,,,,,,,,1.9028,1012.697774,None,None,1,1012.697774,None,,P030,FENCOG,1,Post,2022_Mar_18_1053,N-Back (New Version 2021),2021.1.4,120.0360588
,,,,Conditions/Version_1/threeback(3)_v1.xlsx,New rule: Press 'space' when you see 3-back (i.e. the same letter as the one that appeared 3 letters ago.),o,None,,,,,,,,,0,8,8,8,0,5,5,5,,,,,,,,,,,,,,,,,,,,,,,,,,,,,,,,,,,,,,,,,,,,,,,,,,,,,,,,,,,,,,,,,,,,,1.3324,1016.030138,None,None,1,1016.030138,None,,P030,FENCOG,1,Post,2022_Mar_18_1053,N-Back (New Version 2021),2021.1.4,120.0360588
,,,,Conditions/Version_1/threeback(3)_v1.xlsx,New rule: Press 'space' when you see 3-back (i.e. the same letter as the one that appeared 3 letters ago.),w,None,,,,,,,,,0,8,8,8,0,6,6,6,,,,,,,,,,,,,,,,,,,,,,,,,,,,,,,,,,,,,,,,,,,,,,,,,,,,,,,,,,,,,,,,,,,,,1.32,1019.363375,None,None,1,1019.363375,None,,P030,FENCOG,1,Post,2022_Mar_18_1053,N-Back (New Version 2021),2021.1.4,120.0360588
,,,,Conditions/Version_1/threeback(3)_v1.xlsx,New rule: Press 'space' when you see 3-back (i.e. the same letter as the one that appeared 3 letters ago.),F,space,,,,,,,,,0,8,8,8,0,7,7,7,,,,,,,,,,,,,,,,,,,,,,,,,,,,,,,,,,,,,,,,,,,,,,,,,,,,,,,,,,,,,,,,,,,,,1.4812,1022.853001,None,None,0,1022.853001,None,,P030,FENCOG,1,Post,2022_Mar_18_1053,N-Back (New Version 2021),2021.1.4,120.0360588
,,,,Conditions/Version_1/threeback(3)_v1.xlsx,New rule: Press 'space' when you see 3-back (i.e. the same letter as the one that appeared 3 letters ago.),p,None,,,,,,,,,0,8,8,8,0,8,8,8,,,,,,,,,,,,,,,,,,,,,,,,,,,,,,,,,,,,,,,,,,,,,,,,,,,,,,,,,,,,,,,,,,,,,1.6424,1026.502102,None,None,1,1026.502102,None,,P030,FENCOG,1,Post,2022_Mar_18_1053,N-Back (New Version 2021),2021.1.4,120.0360588
,,,,Conditions/Version_1/threeback(3)_v1.xlsx,New rule: Press 'space' when you see 3-back (i.e. the same letter as the one that appeared 3 letters ago.),W,space,,,,,,,,,0,8,8,8,0,9,9,9,,,,,,,,,,,,,,,,,,,,,,,,,,,,,,,,,,,,,,,,,,,,,,,,,,,,,,,,,,,,,,,,,,,,,1.754,1030.259187,None,space,1,1030.259187,None,1.5722299,P030,FENCOG,1,Post,2022_Mar_18_1053,N-Back (New Version 2021),2021.1.4,120.0360588
,,,,Conditions/Version_1/threeback(3)_v1.xlsx,New rule: Press 'space' when you see 3-back (i.e. the same letter as the one that appeared 3 letters ago.),,,,,,,,,,,0,8,8,8,,,,,,,,,,,,,,,,,,,,,,,,,,,,,,,,,,,,,,,,,,,,,,,,,,,,,,,,,,,,,,,,,,,,,,,,,,,,,,,,,P030,FENCOG,1,Post,2022_Mar_18_1053,N-Back (New Version 2021),2021.1.4,120.0360588
,,,,Conditions/Version_1/zeroback(3)_v1.xlsx,New rule: Press 'space' when you see the letter 'x' or 'X'.,X,space,,,,,,,,,0,9,9,9,0,0,0,0,,,,,,,,,,,,,,,,,,,,,,,,,,,,,,,,,,,,,,,,,,,,,,,,,,,,,,,,,,,1032.278974,None,1035.267531,None,space,0.5316627,1035.267531,None,1032.278974,None,1.5742,1037.39876,None,space,1,1037.39876,None,0.6164218,P030,FENCOG,1,Post,2022_Mar_18_1053,N-Back (New Version 2021),2021.1.4,120.0360588
,,,,Conditions/Version_1/zeroback(3)_v1.xlsx,New rule: Press 'space' when you see the letter 'x' or 'X'.,B,None,,,,,,,,,0,9,9,9,0,1,1,1,,,,,,,,,,,,,,,,,,,,,,,,,,,,,,,,,,,,,,,,,,,,,,,,,,,,,,,,,,,,,,,,,,,,,1.01,1040.415752,None,None,1,1040.415752,None,,P030,FENCOG,1,Post,2022_Mar_18_1053,N-Back (New Version 2021),2021.1.4,120.0360588
,,,,Conditions/Version_1/zeroback(3)_v1.xlsx,New rule: Press 'space' when you see the letter 'x' or 'X'.,m,None,,,,,,,,,0,9,9,9,0,2,2,2,,,,,,,,,,,,,,,,,,,,,,,,,,,,,,,,,,,,,,,,,,,,,,,,,,,,,,,,,,,,,,,,,,,,,1.7974,1044.222949,None,None,1,1044.222949,None,,P030,FENCOG,1,Post,2022_Mar_18_1053,N-Back (New Version 2021),2021.1.4,120.0360588
,,,,Conditions/Version_1/zeroback(3)_v1.xlsx,New rule: Press 'space' when you see the letter 'x' or 'X'.,m,None,,,,,,,,,0,9,9,9,0,3,3,3,,,,,,,,,,,,,,,,,,,,,,,,,,,,,,,,,,,,,,,,,,,,,,,,,,,,,,,,,,,,,,,,,,,,,1.6486,1047.879192,None,None,1,1047.879192,None,,P030,FENCOG,1,Post,2022_Mar_18_1053,N-Back (New Version 2021),2021.1.4,120.0360588
,,,,Conditions/Version_1/zeroback(3)_v1.xlsx,New rule: Press 'space' when you see the letter 'x' or 'X'.,o,None,,,,,,,,,0,9,9,9,0,4,4,4,,,,,,,,,,,,,,,,,,,,,,,,,,,,,,,,,,,,,,,,,,,,,,,,,,,,,,,,,,,,,,,,,,,,,1.3882,1051.269652,None,None,1,1051.269652,None,,P030,FENCOG,1,Post,2022_Mar_18_1053,N-Back (New Version 2021),2021.1.4,120.0360588
,,,,Conditions/Version_1/zeroback(3)_v1.xlsx,New rule: Press 'space' when you see the letter 'x' or 'X'.,p,None,,,,,,,,,0,9,9,9,0,5,5,5,,,,,,,,,,,,,,,,,,,,,,,,,,,,,,,,,,,,,,,,,,,,,,,,,,,,,,,,,,,,,,,,,,,,,1.4874,1054.760129,None,None,1,1054.760129,None,,P030,FENCOG,1,Post,2022_Mar_18_1053,N-Back (New Version 2021),2021.1.4,120.0360588
,,,,Conditions/Version_1/zeroback(3)_v1.xlsx,New rule: Press 'space' when you see the letter 'x' or 'X'.,G,None,,,,,,,,,0,9,9,9,0,6,6,6,,,,,,,,,,,,,,,,,,,,,,,,,,,,,,,,,,,,,,,,,,,,,,,,,,,,,,,,,,,,,,,,,,,,,1.8532,1058.62685,None,None,1,1058.62685,None,,P030,FENCOG,1,Post,2022_Mar_18_1053,N-Back (New Version 2021),2021.1.4,120.0360588
,,,,Conditions/Version_1/zeroback(3)_v1.xlsx,New rule: Press 'space' when you see the letter 'x' or 'X'.,X,space,,,,,,,,,0,9,9,9,0,7,7,7,,,,,,,,,,,,,,,,,,,,,,,,,,,,,,,,,,,,,,,,,,,,,,,,,,,,,,,,,,,,,,,,,,,,,1.2146,1061.849789,None,space,1,1061.849789,None,0.461483,P030,FENCOG,1,Post,2022_Mar_18_1053,N-Back (New Version 2021),2021.1.4,120.0360588
,,,,Conditions/Version_1/zeroback(3)_v1.xlsx,New rule: Press 'space' when you see the letter 'x' or 'X'.,p,None,,,,,,,,,0,9,9,9,0,8,8,8,,,,,,,,,,,,,,,,,,,,,,,,,,,,,,,,,,,,,,,,,,,,,,,,,,,,,,,,,,,,,,,,,,,,,1.4192,1065.277592,None,None,1,1065.277592,None,,P030,FENCOG,1,Post,2022_Mar_18_1053,N-Back (New Version 2021),2021.1.4,120.0360588
,,,,Conditions/Version_1/zeroback(3)_v1.xlsx,New rule: Press 'space' when you see the letter 'x' or 'X'.,x,space,,,,,,,,,0,9,9,9,0,9,9,9,,,,,,,,,,,,,,,,,,,,,,,,,,,,,,,,,,,,,,,,,,,,,,,,,,,,,,,,,,,,,,,,,,,,,1.5246,1068.808833,None,None,0,1068.808833,None,,P030,FENCOG,1,Post,2022_Mar_18_1053,N-Back (New Version 2021),2021.1.4,120.0360588
,,,,Conditions/Version_1/zeroback(3)_v1.xlsx,New rule: Press 'space' when you see the letter 'x' or 'X'.,,,,,,,,,,,0,9,9,9,,,,,,,,,,,,,,,,,,,,,,,,,,,,,,,,,,,,,,,,,,,,,,,,,,,,,,,,,,,,,,,,,,,,,,,,,,,,,,,,,P030,FENCOG,1,Post,2022_Mar_18_1053,N-Back (New Version 2021),2021.1.4,120.0360588
,,,,Conditions/Version_1/twoback(3)_v1.xlsx,New rule: Press 'space' when you see 2-back (i.e. the same letter as the one that appeared 2 letters ago.),e,None,,,,,,,,,0,10,10,10,0,0,0,0,,,,,,,,,,,,,,,,,,,,,,,,,,,,,,,,,,,,,,,,,,,,,,,,,,,,,,,,,,,1070.84495,None,1073.82418,None,space,4.9671348,1073.82418,None,1070.84495,None,1.8346,1080.652563,None,None,1,1080.652563,None,,P030,FENCOG,1,Post,2022_Mar_18_1053,N-Back (New Version 2021),2021.1.4,120.0360588
,,,,Conditions/Version_1/twoback(3)_v1.xlsx,New rule: Press 'space' when you see 2-back (i.e. the same letter as the one that appeared 2 letters ago.),o,None,,,,,,,,,0,10,10,10,0,1,1,1,,,,,,,,,,,,,,,,,,,,,,,,,,,,,,,,,,,,,,,,,,,,,,,,,,,,,,,,,,,,,,,,,,,,,1.5928,1084.253565,None,None,1,1084.253565,None,,P030,FENCOG,1,Post,2022_Mar_18_1053,N-Back (New Version 2021),2021.1.4,120.0360588
,,,,Conditions/Version_1/twoback(3)_v1.xlsx,New rule: Press 'space' when you see 2-back (i.e. the same letter as the one that appeared 2 letters ago.),P,None,,,,,,,,,0,10,10,10,0,2,2,2,,,,,,,,,,,,,,,,,,,,,,,,,,,,,,,,,,,,,,,,,,,,,,,,,,,,,,,,,,,,,,,,,,,,,1.413,1087.667975,None,None,1,1087.667975,None,,P030,FENCOG,1,Post,2022_Mar_18_1053,N-Back (New Version 2021),2021.1.4,120.0360588
,,,,Conditions/Version_1/twoback(3)_v1.xlsx,New rule: Press 'space' when you see 2-back (i.e. the same letter as the one that appeared 2 letters ago.),z,None,,,,,,,,,0,10,10,10,0,3,3,3,,,,,,,,,,,,,,,,,,,,,,,,,,,,,,,,,,,,,,,,,,,,,,,,,,,,,,,,,,,,,,,,,,,,,1.9524,1091.63478,None,None,1,1091.63478,None,,P030,FENCOG,1,Post,2022_Mar_18_1053,N-Back (New Version 2021),2021.1.4,120.0360588
,,,,Conditions/Version_1/twoback(3)_v1.xlsx,New rule: Press 'space' when you see 2-back (i.e. the same letter as the one that appeared 2 letters ago.),X,None,,,,,,,,,0,10,10,10,0,4,4,4,,,,,,,,,,,,,,,,,,,,,,,,,,,,,,,,,,,,,,,,,,,,,,,,,,,,,,,,,,,,,,,,,,,,,1.1092,1094.761296,None,None,1,1094.761296,None,,P030,FENCOG,1,Post,2022_Mar_18_1053,N-Back (New Version 2021),2021.1.4,120.0360588
,,,,Conditions/Version_1/twoback(3)_v1.xlsx,New rule: Press 'space' when you see 2-back (i.e. the same letter as the one that appeared 2 letters ago.),z,space,,,,,,,,,0,10,10,10,0,5,5,5,,,,,,,,,,,,,,,,,,,,,,,,,,,,,,,,,,,,,,,,,,,,,,,,,,,,,,,,,,,,,,,,,,,,,1.9586,1098.722181,None,space,1,1098.722181,None,0.4128694,P030,FENCOG,1,Post,2022_Mar_18_1053,N-Back (New Version 2021),2021.1.4,120.0360588
,,,,Conditions/Version_1/twoback(3)_v1.xlsx,New rule: Press 'space' when you see 2-back (i.e. the same letter as the one that appeared 2 letters ago.),x,space,,,,,,,,,0,10,10,10,0,6,6,6,,,,,,,,,,,,,,,,,,,,,,,,,,,,,,,,,,,,,,,,,,,,,,,,,,,,,,,,,,,,,,,,,,,,,1.3138,1102.046238,None,None,0,1102.046238,None,,P030,FENCOG,1,Post,2022_Mar_18_1053,N-Back (New Version 2021),2021.1.4,120.0360588
,,,,Conditions/Version_1/twoback(3)_v1.xlsx,New rule: Press 'space' when you see 2-back (i.e. the same letter as the one that appeared 2 letters ago.),c,None,,,,,,,,,0,10,10,10,0,7,7,7,,,,,,,,,,,,,,,,,,,,,,,,,,,,,,,,,,,,,,,,,,,,,,,,,,,,,,,,,,,,,,,,,,,,,1.1898,1105.238312,None,None,1,1105.238312,None,,P030,FENCOG,1,Post,2022_Mar_18_1053,N-Back (New Version 2021),2021.1.4,120.0360588
,,,,Conditions/Version_1/twoback(3)_v1.xlsx,New rule: Press 'space' when you see 2-back (i.e. the same letter as the one that appeared 2 letters ago.),i,None,,,,,,,,,0,10,10,10,0,8,8,8,,,,,,,,,,,,,,,,,,,,,,,,,,,,,,,,,,,,,,,,,,,,,,,,,,,,,,,,,,,,,,,,,,,,,1.3386,1108.588757,None,None,1,1108.588757,None,,P030,FENCOG,1,Post,2022_Mar_18_1053,N-Back (New Version 2021),2021.1.4,120.0360588
,,,,Conditions/Version_1/twoback(3)_v1.xlsx,New rule: Press 'space' when you see 2-back (i.e. the same letter as the one that appeared 2 letters ago.),C,space,,,,,,,,,0,10,10,10,0,9,9,9,,,,,,,,,,,,,,,,,,,,,,,,,,,,,,,,,,,,,,,,,,,,,,,,,,,,,,,,,,,,,,,,,,,,,1.661,1112.259841,None,space,1,1112.259841,None,0.3952897,P030,FENCOG,1,Post,2022_Mar_18_1053,N-Back (New Version 2021),2021.1.4,120.0360588
,,,,Conditions/Version_1/twoback(3)_v1.xlsx,New rule: Press 'space' when you see 2-back (i.e. the same letter as the one that appeared 2 letters ago.),,,,,,,,,,,0,10,10,10,,,,,,,,,,,,,,,,,,,,,,,,,,,,,,,,,,,,,,,,,,,,,,,,,,,,,,,,,,,,,,,,,,,,,,,,,,,,,,,,,P030,FENCOG,1,Post,2022_Mar_18_1053,N-Back (New Version 2021),2021.1.4,120.0360588
,,,,Conditions/Version_1/oneback(3)_v1.xlsx,New rule: Press 'space' when you see 1-back (i.e. the same letter as the one that appeared 1 letter ago.),o,None,,,,,,,,,0,11,11,11,0,0,0,0,,,,,,,,,,,,,,,,,,,,,,,,,,,,,,,,,,,,,,,,,,,,,,,,,,,,,,,,,,,1114.281472,None,1117.269016,None,space,0.4899282,1117.269016,None,1114.281472,None,1.444,1119.267242,None,None,1,1119.267242,None,,P030,FENCOG,1,Post,2022_Mar_18_1053,N-Back (New Version 2021),2021.1.4,120.0360588
,,,,Conditions/Version_1/oneback(3)_v1.xlsx,New rule: Press 'space' when you see 1-back (i.e. the same letter as the one that appeared 1 letter ago.),O,space,,,,,,,,,0,11,11,11,0,1,1,1,,,,,,,,,,,,,,,,,,,,,,,,,,,,,,,,,,,,,,,,,,,,,,,,,,,,,,,,,,,,,,,,,,,,,1.9834,1123.260379,None,None,0,1123.260379,None,,P030,FENCOG,1,Post,2022_Mar_18_1053,N-Back (New Version 2021),2021.1.4,120.0360588
,,,,Conditions/Version_1/oneback(3)_v1.xlsx,New rule: Press 'space' when you see 1-back (i.e. the same letter as the one that appeared 1 letter ago.),h,None,,,,,,,,,0,11,11,11,0,2,2,2,,,,,,,,,,,,,,,,,,,,,,,,,,,,,,,,,,,,,,,,,,,,,,,,,,,,,,,,,,,,,,,,,,,,,1.2704,1126.539585,None,None,1,1126.539585,None,,P030,FENCOG,1,Post,2022_Mar_18_1053,N-Back (New Version 2021),2021.1.4,120.0360588
,,,,Conditions/Version_1/oneback(3)_v1.xlsx,New rule: Press 'space' when you see 1-back (i.e. the same letter as the one that appeared 1 letter ago.),g,None,,,,,,,,,0,11,11,11,0,3,3,3,,,,,,,,,,,,,,,,,,,,,,,,,,,,,,,,,,,,,,,,,,,,,,,,,,,,,,,,,,,,,,,,,,,,,1.4998,1130.048373,None,None,1,1130.048373,None,,P030,FENCOG,1,Post,2022_Mar_18_1053,N-Back (New Version 2021),2021.1.4,120.0360588
,,,,Conditions/Version_1/oneback(3)_v1.xlsx,New rule: Press 'space' when you see 1-back (i.e. the same letter as the one that appeared 1 letter ago.),n,None,,,,,,,,,0,11,11,11,0,4,4,4,,,,,,,,,,,,,,,,,,,,,,,,,,,,,,,,,,,,,,,,,,,,,,,,,,,,,,,,,,,,,,,,,,,,,1.6672,1133.732397,None,None,1,1133.732397,None,,P030,FENCOG,1,Post,2022_Mar_18_1053,N-Back (New Version 2021),2021.1.4,120.0360588
,,,,Conditions/Version_1/oneback(3)_v1.xlsx,New rule: Press 'space' when you see 1-back (i.e. the same letter as the one that appeared 1 letter ago.),z,None,,,,,,,,,0,11,11,11,0,5,5,5,,,,,,,,,,,,,,,,,,,,,,,,,,,,,,,,,,,,,,,,,,,,,,,,,,,,,,,,,,,,,,,,,,,,,1.2456,1136.977659,None,None,1,1136.977659,None,,P030,FENCOG,1,Post,2022_Mar_18_1053,N-Back (New Version 2021),2021.1.4,120.0360588
,,,,Conditions/Version_1/oneback(3)_v1.xlsx,New rule: Press 'space' when you see 1-back (i.e. the same letter as the one that appeared 1 letter ago.),X,None,,,,,,,,,0,11,11,11,0,6,6,6,,,,,,,,,,,,,,,,,,,,,,,,,,,,,,,,,,,,,,,,,,,,,,,,,,,,,,,,,,,,,,,,,,,,,1.9214,1140.905045,None,None,1,1140.905045,None,,P030,FENCOG,1,Post,2022_Mar_18_1053,N-Back (New Version 2021),2021.1.4,120.0360588
,,,,Conditions/Version_1/oneback(3)_v1.xlsx,New rule: Press 'space' when you see 1-back (i.e. the same letter as the one that appeared 1 letter ago.),r,None,,,,,,,,,0,11,11,11,0,7,7,7,,,,,,,,,,,,,,,,,,,,,,,,,,,,,,,,,,,,,,,,,,,,,,,,,,,,,,,,,,,,,,,,,,,,,1.3076,1144.217038,None,None,1,1144.217038,None,,P030,FENCOG,1,Post,2022_Mar_18_1053,N-Back (New Version 2021),2021.1.4,120.0360588
,,,,Conditions/Version_1/oneback(3)_v1.xlsx,New rule: Press 'space' when you see 1-back (i.e. the same letter as the one that appeared 1 letter ago.),r,space,,,,,,,,,0,11,11,11,0,8,8,8,,,,,,,,,,,,,,,,,,,,,,,,,,,,,,,,,,,,,,,,,,,,,,,,,,,,,,,,,,,,,,,,,,,,,1.4254,1147.649335,None,space,1,1147.649335,None,0.3817668,P030,FENCOG,1,Post,2022_Mar_18_1053,N-Back (New Version 2021),2021.1.4,120.0360588
,,,,Conditions/Version_1/oneback(3)_v1.xlsx,New rule: Press 'space' when you see 1-back (i.e. the same letter as the one that appeared 1 letter ago.),P,None,,,,,,,,,0,11,11,11,0,9,9,9,,,,,,,,,,,,,,,,,,,,,,,,,,,,,,,,,,,,,,,,,,,,,,,,,,,,,,,,,,,,,,,,,,,,,1.8842,1151.540214,None,None,1,1151.540214,None,,P030,FENCOG,1,Post,2022_Mar_18_1053,N-Back (New Version 2021),2021.1.4,120.0360588
,,,,Conditions/Version_1/oneback(3)_v1.xlsx,New rule: Press 'space' when you see 1-back (i.e. the same letter as the one that appeared 1 letter ago.),,,,,,,,,,,0,11,11,11,,,,,,,,,,,,,,,,,,,,,,,,,,,,,,,,,,,,,,,,,,,,,,,,,,,,,,,,,,,,,,,,,,,,,,,,,,,,,,,,,P030,FENCOG,1,Post,2022_Mar_18_1053,N-Back (New Version 2021),2021.1.4,120.0360588
,,,,Conditions/Version_1/twoback(4)_v1.xlsx,New rule: Press 'space' when you see 2-back (i.e. the same letter as the one that appeared 2 letters ago.),r,None,,,,,,,,,0,12,12,12,0,0,0,0,,,,,,,,,,,,,,,,,,,,,,,,,,,,,,,,,,,,,,,,,,,,,,,,,,,,,,,,,,,1153.561031,None,1156.551999,None,space,55.1268638,1156.551999,None,1153.561031,None,1.2642,1212.972916,None,None,1,1212.972916,None,,P030,FENCOG,1,Post,2022_Mar_18_1053,N-Back (New Version 2021),2021.1.4,120.0360588
,,,,Conditions/Version_1/twoback(4)_v1.xlsx,New rule: Press 'space' when you see 2-back (i.e. the same letter as the one that appeared 2 letters ago.),T,None,,,,,,,,,0,12,12,12,0,1,1,1,,,,,,,,,,,,,,,,,,,,,,,,,,,,,,,,,,,,,,,,,,,,,,,,,,,,,,,,,,,,,,,,,,,,,1.7292,1216.715787,None,None,1,1216.715787,None,,P030,FENCOG,1,Post,2022_Mar_18_1053,N-Back (New Version 2021),2021.1.4,120.0360588
,,,,Conditions/Version_1/twoback(4)_v1.xlsx,New rule: Press 'space' when you see 2-back (i.e. the same letter as the one that appeared 2 letters ago.),o,None,,,,,,,,,0,12,12,12,0,2,2,2,,,,,,,,,,,,,,,,,,,,,,,,,,,,,,,,,,,,,,,,,,,,,,,,,,,,,,,,,,,,,,,,,,,,,1.506,1220.228886,None,None,1,1220.228886,None,,P030,FENCOG,1,Post,2022_Mar_18_1053,N-Back (New Version 2021),2021.1.4,120.0360588
,,,,Conditions/Version_1/twoback(4)_v1.xlsx,New rule: Press 'space' when you see 2-back (i.e. the same letter as the one that appeared 2 letters ago.),p,None,,,,,,,,,0,12,12,12,0,3,3,3,,,,,,,,,,,,,,,,,,,,,,,,,,,,,,,,,,,,,,,,,,,,,,,,,,,,,,,,,,,,,,,,,,,,,1.8408,1224.076706,None,None,1,1224.076706,None,,P030,FENCOG,1,Post,2022_Mar_18_1053,N-Back (New Version 2021),2021.1.4,120.0360588
,,,,Conditions/Version_1/twoback(4)_v1.xlsx,New rule: Press 'space' when you see 2-back (i.e. the same letter as the one that appeared 2 letters ago.),p,None,,,,,,,,,0,12,12,12,0,4,4,4,,,,,,,,,,,,,,,,,,,,,,,,,,,,,,,,,,,,,,,,,,,,,,,,,,,,,,,,,,,,,,,,,,,,,1.5618,1227.642477,None,None,1,1227.642477,None,,P030,FENCOG,1,Post,2022_Mar_18_1053,N-Back (New Version 2021),2021.1.4,120.0360588
,,,,Conditions/Version_1/twoback(4)_v1.xlsx,New rule: Press 'space' when you see 2-back (i.e. the same letter as the one that appeared 2 letters ago.),y,None,,,,,,,,,0,12,12,12,0,5,5,5,,,,,,,,,,,,,,,,,,,,,,,,,,,,,,,,,,,,,,,,,,,,,,,,,,,,,,,,,,,,,,,,,,,,,1.0286,1230.674747,None,None,1,1230.674747,None,,P030,FENCOG,1,Post,2022_Mar_18_1053,N-Back (New Version 2021),2021.1.4,120.0360588
,,,,Conditions/Version_1/twoback(4)_v1.xlsx,New rule: Press 'space' when you see 2-back (i.e. the same letter as the one that appeared 2 letters ago.),P,space,,,,,,,,,0,12,12,12,0,6,6,6,,,,,,,,,,,,,,,,,,,,,,,,,,,,,,,,,,,,,,,,,,,,,,,,,,,,,,,,,,,,,,,,,,,,,1.2084,1233.882218,None,space,1,1233.882218,None,1.0125119,P030,FENCOG,1,Post,2022_Mar_18_1053,N-Back (New Version 2021),2021.1.4,120.0360588
,,,,Conditions/Version_1/twoback(4)_v1.xlsx,New rule: Press 'space' when you see 2-back (i.e. the same letter as the one that appeared 2 letters ago.),y,None,,,,,,,,,0,12,12,12,0,7,7,7,,,,,,,,,,,,,,,,,,,,,,,,,,,,,,,,,,,,,,,,,,,,,,,,,,,,,,,,,,,,,,,,,,,,,1.8346,1237.72264,None,space,0,1237.72264,None,1.780298,P030,FENCOG,1,Post,2022_Mar_18_1053,N-Back (New Version 2021),2021.1.4,120.0360588
,,,,Conditions/Version_1/twoback(4)_v1.xlsx,New rule: Press 'space' when you see 2-back (i.e. the same letter as the one that appeared 2 letters ago.),y,space,,,,,,,,,0,12,12,12,0,8,8,8,,,,,,,,,,,,,,,,,,,,,,,,,,,,,,,,,,,,,,,,,,,,,,,,,,,,,,,,,,,,,,,,,,,,,1.4874,1241.213488,None,space,1,1241.213488,None,0.3934501,P030,FENCOG,1,Post,2022_Mar_18_1053,N-Back (New Version 2021),2021.1.4,120.0360588
,,,,Conditions/Version_1/twoback(4)_v1.xlsx,New rule: Press 'space' when you see 2-back (i.e. the same letter as the one that appeared 2 letters ago.),,,,,,,,,,,0,12,12,12,,,,,,,,,,,,,,,,,,,,,,,,,,,,,,,,,,,,,,,,,,,,,,,,,,,,,,,,,,,,,,,,,,,,,,,,,,,,,,,,,P030,FENCOG,1,Post,2022_Mar_18_1053,N-Back (New Version 2021),2021.1.4,120.0360588
,,,,Conditions/Version_1/zeroback(4)_v1.xlsx,New rule: Press 'space' when you see the letter 'x' or 'X'.,o,None,,,,,,,,,0,13,13,13,0,0,0,0,,,,,,,,,,,,,,,,,,,,,,,,,,,,,,,,,,,,,,,,,,,,,,,,,,,,,,,,,,,1243.231352,None,1246.213965,None,space,0.872776,1246.213965,None,1243.231352,None,1.258,1248.369422,None,None,1,1248.369422,None,,P030,FENCOG,1,Post,2022_Mar_18_1053,N-Back (New Version 2021),2021.1.4,120.0360588
,,,,Conditions/Version_1/zeroback(4)_v1.xlsx,New rule: Press 'space' when you see the letter 'x' or 'X'.,X,space,,,,,,,,,0,13,13,13,0,1,1,1,,,,,,,,,,,,,,,,,,,,,,,,,,,,,,,,,,,,,,,,,,,,,,,,,,,,,,,,,,,,,,,,,,,,,1.475,1251.854642,None,space,1,1251.854642,None,0.4961759,P030,FENCOG,1,Post,2022_Mar_18_1053,N-Back (New Version 2021),2021.1.4,120.0360588
,,,,Conditions/Version_1/zeroback(4)_v1.xlsx,New rule: Press 'space' when you see the letter 'x' or 'X'.,p,None,,,,,,,,,0,13,13,13,0,2,2,2,,,,,,,,,,,,,,,,,,,,,,,,,,,,,,,,,,,,,,,,,,,,,,,,,,,,,,,,,,,,,,,,,,,,,1.5184,1255.385268,None,None,1,1255.385268,None,,P030,FENCOG,1,Post,2022_Mar_18_1053,N-Back (New Version 2021),2021.1.4,120.0360588
,,,,Conditions/Version_1/zeroback(4)_v1.xlsx,New rule: Press 'space' when you see the letter 'x' or 'X'.,m,None,,,,,,,,,0,13,13,13,0,3,3,3,,,,,,,,,,,,,,,,,,,,,,,,,,,,,,,,,,,,,,,,,,,,,,,,,,,,,,,,,,,,,,,,,,,,,1.4378,1258.833576,None,None,1,1258.833576,None,,P030,FENCOG,1,Post,2022_Mar_18_1053,N-Back (New Version 2021),2021.1.4,120.0360588
,,,,Conditions/Version_1/zeroback(4)_v1.xlsx,New rule: Press 'space' when you see the letter 'x' or 'X'.,n,None,,,,,,,,,0,13,13,13,0,4,4,4,,,,,,,,,,,,,,,,,,,,,,,,,,,,,,,,,,,,,,,,,,,,,,,,,,,,,,,,,,,,,,,,,,,,,1.103,1261.952454,None,None,1,1261.952454,None,,P030,FENCOG,1,Post,2022_Mar_18_1053,N-Back (New Version 2021),2021.1.4,120.0360588
,,,,Conditions/Version_1/zeroback(4)_v1.xlsx,New rule: Press 'space' when you see the letter 'x' or 'X'.,m,None,,,,,,,,,0,13,13,13,0,5,5,5,,,,,,,,,,,,,,,,,,,,,,,,,,,,,,,,,,,,,,,,,,,,,,,,,,,,,,,,,,,,,,,,,,,,,1.6052,1265.564325,None,None,1,1265.564325,None,,P030,FENCOG,1,Post,2022_Mar_18_1053,N-Back (New Version 2021),2021.1.4,120.0360588
,,,,Conditions/Version_1/zeroback(4)_v1.xlsx,New rule: Press 'space' when you see the letter 'x' or 'X'.,C,None,,,,,,,,,0,13,13,13,0,6,6,6,,,,,,,,,,,,,,,,,,,,,,,,,,,,,,,,,,,,,,,,,,,,,,,,,,,,,,,,,,,,,,,,,,,,,1.134,1268.707153,None,None,1,1268.707153,None,,P030,FENCOG,1,Post,2022_Mar_18_1053,N-Back (New Version 2021),2021.1.4,120.0360588
,,,,Conditions/Version_1/zeroback(4)_v1.xlsx,New rule: Press 'space' when you see the letter 'x' or 'X'.,m,None,,,,,,,,,0,13,13,13,0,7,7,7,,,,,,,,,,,,,,,,,,,,,,,,,,,,,,,,,,,,,,,,,,,,,,,,,,,,,,,,,,,,,,,,,,,,,1.0162,1271.738769,None,None,1,1271.738769,None,,P030,FENCOG,1,Post,2022_Mar_18_1053,N-Back (New Version 2021),2021.1.4,120.0360588
,,,,Conditions/Version_1/zeroback(4)_v1.xlsx,New rule: Press 'space' when you see the letter 'x' or 'X'.,p,None,,,,,,,,,0,13,13,13,0,8,8,8,,,,,,,,,,,,,,,,,,,,,,,,,,,,,,,,,,,,,,,,,,,,,,,,,,,,,,,,,,,,,,,,,,,,,1.9834,1275.728028,None,None,1,1275.728028,None,,P030,FENCOG,1,Post,2022_Mar_18_1053,N-Back (New Version 2021),2021.1.4,120.0360588
,,,,Conditions/Version_1/zeroback(4)_v1.xlsx,New rule: Press 'space' when you see the letter 'x' or 'X'.,X,space,,,,,,,,,0,13,13,13,0,9,9,9,,,,,,,,,,,,,,,,,,,,,,,,,,,,,,,,,,,,,,,,,,,,,,,,,,,,,,,,,,,,,,,,,,,,,1.7478,1279.482421,None,space,1,1279.482421,None,0.6763907,P030,FENCOG,1,Post,2022_Mar_18_1053,N-Back (New Version 2021),2021.1.4,120.0360588
,,,,Conditions/Version_1/zeroback(4)_v1.xlsx,New rule: Press 'space' when you see the letter 'x' or 'X'.,,,,,,,,,,,0,13,13,13,,,,,,,,,,,,,,,,,,,,,,,,,,,,,,,,,,,,,,,,,,,,,,,,,,,,,,,,,,,,,,,,,,,,,,,,,,,,,,,,,P030,FENCOG,1,Post,2022_Mar_18_1053,N-Back (New Version 2021),2021.1.4,120.0360588
,,,,Conditions/Version_1/oneback(4)_v1.xlsx,New rule: Press 'space' when you see 1-back (i.e. the same letter as the one that appeared 1 letter ago.),w,None,,,,,,,,,0,14,14,14,0,0,0,0,,,,,,,,,,,,,,,,,,,,,,,,,,,,,,,,,,,,,,,,,,,,,,,,,,,,,,,,,,,1281.518815,None,1284.508834,None,space,1.7057907,1284.508834,None,1281.518815,None,1.3138,1287.557849,None,None,1,1287.557849,None,,P030,FENCOG,1,Post,2022_Mar_18_1053,N-Back (New Version 2021),2021.1.4,120.0360588
,,,,Conditions/Version_1/oneback(4)_v1.xlsx,New rule: Press 'space' when you see 1-back (i.e. the same letter as the one that appeared 1 letter ago.),q,None,,,,,,,,,0,14,14,14,0,1,1,1,,,,,,,,,,,,,,,,,,,,,,,,,,,,,,,,,,,,,,,,,,,,,,,,,,,,,,,,,,,,,,,,,,,,,1.2704,1290.831859,None,None,1,1290.831859,None,,P030,FENCOG,1,Post,2022_Mar_18_1053,N-Back (New Version 2021),2021.1.4,120.0360588
,,,,Conditions/Version_1/oneback(4)_v1.xlsx,New rule: Press 'space' when you see 1-back (i.e. the same letter as the one that appeared 1 letter ago.),i,None,,,,,,,,,0,14,14,14,0,2,2,2,,,,,,,,,,,,,,,,,,,,,,,,,,,,,,,,,,,,,,,,,,,,,,,,,,,,,,,,,,,,,,,,,,,,,1.8284,1294.668678,None,None,1,1294.668678,None,,P030,FENCOG,1,Post,2022_Mar_18_1053,N-Back (New Version 2021),2021.1.4,120.0360588
,,,,Conditions/Version_1/oneback(4)_v1.xlsx,New rule: Press 'space' when you see 1-back (i.e. the same letter as the one that appeared 1 letter ago.),t,None,,,,,,,,,0,14,14,14,0,3,3,3,,,,,,,,,,,,,,,,,,,,,,,,,,,,,,,,,,,,,,,,,,,,,,,,,,,,,,,,,,,,,,,,,,,,,1.971,1298.646531,None,None,1,1298.646531,None,,P030,FENCOG,1,Post,2022_Mar_18_1053,N-Back (New Version 2021),2021.1.4,120.0360588
,,,,Conditions/Version_1/oneback(4)_v1.xlsx,New rule: Press 'space' when you see 1-back (i.e. the same letter as the one that appeared 1 letter ago.),v,None,,,,,,,,,0,14,14,14,0,4,4,4,,,,,,,,,,,,,,,,,,,,,,,,,,,,,,,,,,,,,,,,,,,,,,,,,,,,,,,,,,,,,,,,,,,,,1.537,1302.187281,None,None,1,1302.187281,None,,P030,FENCOG,1,Post,2022_Mar_18_1053,N-Back (New Version 2021),2021.1.4,120.0360588
,,,,Conditions/Version_1/oneback(4)_v1.xlsx,New rule: Press 'space' when you see 1-back (i.e. the same letter as the one that appeared 1 letter ago.),V,space,,,,,,,,,0,14,14,14,0,5,5,5,,,,,,,,,,,,,,,,,,,,,,,,,,,,,,,,,,,,,,,,,,,,,,,,,,,,,,,,,,,,,,,,,,,,,1.289,1305.479888,None,space,1,1305.479888,None,0.8787822,P030,FENCOG,1,Post,2022_Mar_18_1053,N-Back (New Version 2021),2021.1.4,120.0360588
,,,,Conditions/Version_1/oneback(4)_v1.xlsx,New rule: Press 'space' when you see 1-back (i.e. the same letter as the one that appeared 1 letter ago.),v,space,,,,,,,,,0,14,14,14,0,6,6,6,,,,,,,,,,,,,,,,,,,,,,,,,,,,,,,,,,,,,,,,,,,,,,,,,,,,,,,,,,,,,,,,,,,,,1.227,1308.718265,None,space,1,1308.718265,None,1.2649295,P030,FENCOG,1,Post,2022_Mar_18_1053,N-Back (New Version 2021),2021.1.4,120.0360588
,,,,Conditions/Version_1/oneback(4)_v1.xlsx,New rule: Press 'space' when you see 1-back (i.e. the same letter as the one that appeared 1 letter ago.),p,None,,,,,,,,,0,14,14,14,0,7,7,7,,,,,,,,,,,,,,,,,,,,,,,,,,,,,,,,,,,,,,,,,,,,,,,,,,,,,,,,,,,,,,,,,,,,,1.6734,1312.400471,None,None,1,1312.400471,None,,P030,FENCOG,1,Post,2022_Mar_18_1053,N-Back (New Version 2021),2021.1.4,120.0360588
,,,,Conditions/Version_1/oneback(4)_v1.xlsx,New rule: Press 'space' when you see 1-back (i.e. the same letter as the one that appeared 1 letter ago.),w,None,,,,,,,,,0,14,14,14,0,8,8,8,,,,,,,,,,,,,,,,,,,,,,,,,,,,,,,,,,,,,,,,,,,,,,,,,,,,,,,,,,,,,,,,,,,,,1.5494,1315.958686,None,None,1,1315.958686,None,,P030,FENCOG,1,Post,2022_Mar_18_1053,N-Back (New Version 2021),2021.1.4,120.0360588
,,,,Conditions/Version_1/oneback(4)_v1.xlsx,New rule: Press 'space' when you see 1-back (i.e. the same letter as the one that appeared 1 letter ago.),W,space,,,,,,,,,0,14,14,14,0,9,9,9,,,,,,,,,,,,,,,,,,,,,,,,,,,,,,,,,,,,,,,,,,,,,,,,,,,,,,,,,,,,,,,,,,,,,1.4068,1319.373413,None,space,1,1319.373413,None,0.8654382,P030,FENCOG,1,Post,2022_Mar_18_1053,N-Back (New Version 2021),2021.1.4,120.0360588
,,,,Conditions/Version_1/oneback(4)_v1.xlsx,New rule: Press 'space' when you see 1-back (i.e. the same letter as the one that appeared 1 letter ago.),,,,,,,,,,,0,14,14,14,,,,,,,,,,,,,,,,,,,,,,,,,,,,,,,,,,,,,,,,,,,,,,,,,,,,,,,,,,,,,,,,,,,,,,,,,,,,,,,,,P030,FENCOG,1,Post,2022_Mar_18_1053,N-Back (New Version 2021),2021.1.4,120.0360588
,,,,Conditions/Version_1/threeback(4)_v1.xlsx,New rule: Press 'space' when you see 3-back (i.e. the same letter as the one that appeared 3 letters ago.),A,None,,,,,,,,,0,15,15,15,0,0,0,0,,,,,,,,,,,,,,,,,,,,,,,,,,,,,,,,,,,,,,,,,,,,,,,,,,,,,,,,,,,1321.39118,None,1324.3759,None,space,3.8228439,1324.3759,None,1321.39118,None,1.165,1329.409635,None,None,1,1329.409635,None,,P030,FENCOG,1,Post,2022_Mar_18_1053,N-Back (New Version 2021),2021.1.4,120.0360588
,,,,Conditions/Version_1/threeback(4)_v1.xlsx,New rule: Press 'space' when you see 3-back (i.e. the same letter as the one that appeared 3 letters ago.),n,None,,,,,,,,,0,15,15,15,0,1,1,1,,,,,,,,,,,,,,,,,,,,,,,,,,,,,,,,,,,,,,,,,,,,,,,,,,,,,,,,,,,,,,,,,,,,,1.227,1332.644898,None,None,1,1332.644898,None,,P030,FENCOG,1,Post,2022_Mar_18_1053,N-Back (New Version 2021),2021.1.4,120.0360588
,,,,Conditions/Version_1/threeback(4)_v1.xlsx,New rule: Press 'space' when you see 3-back (i.e. the same letter as the one that appeared 3 letters ago.),g,None,,,,,,,,,0,15,15,15,0,2,2,2,,,,,,,,,,,,,,,,,,,,,,,,,,,,,,,,,,,,,,,,,,,,,,,,,,,,,,,,,,,,,,,,,,,,,1.475,1336.126893,None,None,1,1336.126893,None,,P030,FENCOG,1,Post,2022_Mar_18_1053,N-Back (New Version 2021),2021.1.4,120.0360588
,,,,Conditions/Version_1/threeback(4)_v1.xlsx,New rule: Press 'space' when you see 3-back (i.e. the same letter as the one that appeared 3 letters ago.),A,space,,,,,,,,,0,15,15,15,0,3,3,3,,,,,,,,,,,,,,,,,,,,,,,,,,,,,,,,,,,,,,,,,,,,,,,,,,,,,,,,,,,,,,,,,,,,,1.7416,1339.867417,None,space,1,1339.867417,None,0.5231463,P030,FENCOG,1,Post,2022_Mar_18_1053,N-Back (New Version 2021),2021.1.4,120.0360588
,,,,Conditions/Version_1/threeback(4)_v1.xlsx,New rule: Press 'space' when you see 3-back (i.e. the same letter as the one that appeared 3 letters ago.),p,None,,,,,,,,,0,15,15,15,0,4,4,4,,,,,,,,,,,,,,,,,,,,,,,,,,,,,,,,,,,,,,,,,,,,,,,,,,,,,,,,,,,,,,,,,,,,,1.1402,1343.010133,None,None,1,1343.010133,None,,P030,FENCOG,1,Post,2022_Mar_18_1053,N-Back (New Version 2021),2021.1.4,120.0360588
,,,,Conditions/Version_1/threeback(4)_v1.xlsx,New rule: Press 'space' when you see 3-back (i.e. the same letter as the one that appeared 3 letters ago.),O,None,,,,,,,,,0,15,15,15,0,5,5,5,,,,,,,,,,,,,,,,,,,,,,,,,,,,,,,,,,,,,,,,,,,,,,,,,,,,,,,,,,,,,,,,,,,,,1.8594,1346.873593,None,None,1,1346.873593,None,,P030,FENCOG,1,Post,2022_Mar_18_1053,N-Back (New Version 2021),2021.1.4,120.0360588
,,,,Conditions/Version_1/threeback(4)_v1.xlsx,New rule: Press 'space' when you see 3-back (i.e. the same letter as the one that appeared 3 letters ago.),a,space,,,,,,,,,0,15,15,15,0,6,6,6,,,,,,,,,,,,,,,,,,,,,,,,,,,,,,,,,,,,,,,,,,,,,,,,,,,,,,,,,,,,,,,,,,,,,1.63,1350.509784,None,None,0,1350.509784,None,,P030,FENCOG,1,Post,2022_Mar_18_1053,N-Back (New Version 2021),2021.1.4,120.0360588
,,,,Conditions/Version_1/threeback(4)_v1.xlsx,New rule: Press 'space' when you see 3-back (i.e. the same letter as the one that appeared 3 letters ago.),p,space,,,,,,,,,0,15,15,15,0,7,7,7,,,,,,,,,,,,,,,,,,,,,,,,,,,,,,,,,,,,,,,,,,,,,,,,,,,,,,,,,,,,,,,,,,,,,1.382,1353.900749,None,None,0,1353.900749,None,,P030,FENCOG,1,Post,2022_Mar_18_1053,N-Back (New Version 2021),2021.1.4,120.0360588
,,,,Conditions/Version_1/threeback(4)_v1.xlsx,New rule: Press 'space' when you see 3-back (i.e. the same letter as the one that appeared 3 letters ago.),x,None,,,,,,,,,0,15,15,15,0,8,8,8,,,,,,,,,,,,,,,,,,,,,,,,,,,,,,,,,,,,,,,,,,,,,,,,,,,,,,,,,,,,,,,,,,,,,1.2642,1357.173138,None,None,1,1357.173138,None,,P030,FENCOG,1,Post,2022_Mar_18_1053,N-Back (New Version 2021),2021.1.4,120.0360588
,,,,Conditions/Version_1/threeback(4)_v1.xlsx,New rule: Press 'space' when you see 3-back (i.e. the same letter as the one that appeared 3 letters ago.),X,None,,,,,,,,,0,15,15,15,0,9,9,9,,,,,,,,,,,,,,,,,,,,,,,,,,,,,,,,,,,,,,,,,,,,,,,,,,,,,,,,,,,,,,,,,,,,,1.2394,1360.421875,None,None,1,1360.421875,None,,P030,FENCOG,1,Post,2022_Mar_18_1053,N-Back (New Version 2021),2021.1.4,120.0360588
,,,,Conditions/Version_1/threeback(4)_v1.xlsx,New rule: Press 'space' when you see 3-back (i.e. the same letter as the one that appeared 3 letters ago.),,,,,,,,,,,0,15,15,15,,,,,,,,,,,,,,,,,,,,,,,,,,,,,,,,,,,,,,,,,,,,,,,,,,,,,,,,,,,,,,,,,,,,,,,,,,,,,,,,,P030,FENCOG,1,Post,2022_Mar_18_1053,N-Back (New Version 2021),2021.1.4,120.0360588
