CondFileP,InstructionsP,LettersDisplayedP,CorrectnessP,CondFile,Instructions,LettersDisplayed,Correctness,practicetrials.thisRepN,practicetrials.thisTrialN,practicetrials.thisN,practicetrials.thisIndex,InnerLoopPractice.thisRepN,InnerLoopPractice.thisTrialN,InnerLoopPractice.thisN,InnerLoopPractice.thisIndex,trials.thisRepN,trials.thisTrialN,trials.thisN,trials.thisIndex,InnerLoop.thisRepN,InnerLoop.thisTrialN,InnerLoop.thisN,InnerLoop.thisIndex,TaskVersionText.started,TaskVersionText.stopped,InstrKey1.keys,InstrKey1.rt,InstrKey1.started,InstrKey1.stopped,text.started,text.stopped,key_resp_4.keys,key_resp_4.rt,key_resp_4.started,key_resp_4.stopped,text_2.started,text_2.stopped,key_resp_3.keys,key_resp_3.rt,key_resp_3.started,key_resp_3.stopped,text_3.started,text_3.stopped,key_resp_2.keys,key_resp_2.rt,key_resp_2.started,key_resp_2.stopped,PractIn1.started,PractIn1.stopped,PractIn2.started,PractIn2.stopped,PractInstructionPass.keys,PractInstructionPass.rt,PractInstructionPass.started,PractInstructionPass.stopped,PractBlock1.started,PractBlock1.stopped,ISIjitterPractice,ISI_Pract_Fixation.started,ISI_Pract_Fixation.stopped,N_backP.started,N_backP.stopped,KeyPractice.keys,KeyPractice.corr,KeyPractice.started,KeyPractice.stopped,text_4.started,text_4.stopped,KeyPractice.rt,TransitionText.started,TransitionText.stopped,key_resp_6.keys,key_resp_6.rt,key_resp_6.started,key_resp_6.stopped,text_5.started,text_5.stopped,key_resp_5.keys,key_resp_5.rt,key_resp_5.started,key_resp_5.stopped,MainInt1.started,MainInt1.stopped,MainInt2.started,MainInt2.stopped,InstructionPass.keys,InstructionPass.rt,InstructionPass.started,InstructionPass.stopped,Blocks1.started,Blocks1.stopped,ISIjitter,N_backD.started,N_backD.stopped,key_resp.keys,key_resp.corr,key_resp.started,key_resp.stopped,key_resp.rt,participant,Study Name,Task Version (required to run),PRE/POST,date,expName,psychopyVersion,frameRate
,,,,,,,,,,,,,,,,,,,,,,,,22.4850066,None,space,31.8793155,22.9816853,None,,,,,,,,,,,,,,,,,,,,,,,,,,,,,,,,,,,,,,,,,,,,,,,,,,,,,,,,,,,,,,,,,,,,,,,P031,FENCOG,1,Post,2022_Mar_29_1208,N-Back (New Version 2021),2021.1.4,120.1181001
,,,,,,,,,,,,,,,,,,,,,,,,,,,,,,54.8936765,None,space,1.2475695,55.389263,None,,,,,,,,,,,,,,,,,,,,,,,,,,,,,,,,,,,,,,,,,,,,,,,,,,,,,,,,,,,,,,,,,P031,FENCOG,1,Post,2022_Mar_29_1208,N-Back (New Version 2021),2021.1.4,120.1181001
,,,,,,,,,,,,,,,,,,,,,,,,,,,,,,,,,,,,56.6729276,None,space,0.4089456,57.1638988,None,,,,,,,,,,,,,,,,,,,,,,,,,,,,,,,,,,,,,,,,,,,,,,,,,,,,,,,,,,,P031,FENCOG,1,Post,2022_Mar_29_1208,N-Back (New Version 2021),2021.1.4,120.1181001
,,,,,,,,,,,,,,,,,,,,,,,,,,,,,,,,,,,,,,,,,,57.5967479,None,space,0.7561685,58.088516,None,,,,,,,,,,,,,,,,,,,,,,,,,,,,,,,,,,,,,,,,,,,,,,,,,,,,,P031,FENCOG,1,Post,2022_Mar_29_1208,N-Back (New Version 2021),2021.1.4,120.1181001
Conditions/Version_1Pr/zeroback(1)_v1.xlsx,Rule: Press 'space' when you see the letter 'x' or 'X'.,Z,None,,,,,0,0,0,0,0,0,0,0,,,,,,,,,,,,,,,,,,,,,,,,,,,,,,,,,60.2254299,None,63.2129501,None,space,0.6720277,63.2129501,None,60.2254299,None,1.99,63.9155993,None,65.9153998,None,None,1,65.9153998,None,67.9197003,None,,,,,,,,,,,,,,,,,,,,,,,,,,,,,,,,P031,FENCOG,1,Post,2022_Mar_29_1208,N-Back (New Version 2021),2021.1.4,120.1181001
Conditions/Version_1Pr/zeroback(1)_v1.xlsx,Rule: Press 'space' when you see the letter 'x' or 'X'.,r,None,,,,,0,0,0,0,0,1,1,1,,,,,,,,,,,,,,,,,,,,,,,,,,,,,,,,,,,,,,,,,,,1.815,69.4177136,None,71.2344439,None,None,1,71.2344439,None,73.2415566,None,,,,,,,,,,,,,,,,,,,,,,,,,,,,,,,,P031,FENCOG,1,Post,2022_Mar_29_1208,N-Back (New Version 2021),2021.1.4,120.1181001
Conditions/Version_1Pr/zeroback(1)_v1.xlsx,Rule: Press 'space' when you see the letter 'x' or 'X'.,X,space,,,,,0,0,0,0,0,2,2,2,,,,,,,,,,,,,,,,,,,,,,,,,,,,,,,,,,,,,,,,,,,1.215,74.7411295,None,75.9601258,None,space,1,75.9601258,None,76.3214612,None,0.3487341,,,,,,,,,,,,,,,,,,,,,,,,,,,,,,,P031,FENCOG,1,Post,2022_Mar_29_1208,N-Back (New Version 2021),2021.1.4,120.1181001
Conditions/Version_1Pr/zeroback(1)_v1.xlsx,Rule: Press 'space' when you see the letter 'x' or 'X'.,p,None,,,,,0,0,0,0,0,3,3,3,,,,,,,,,,,,,,,,,,,,,,,,,,,,,,,,,,,,,,,,,,,1.465,77.8235795,None,79.2963894,None,None,1,79.2963894,None,81.2975598,None,,,,,,,,,,,,,,,,,,,,,,,,,,,,,,,,P031,FENCOG,1,Post,2022_Mar_29_1208,N-Back (New Version 2021),2021.1.4,120.1181001
Conditions/Version_1Pr/zeroback(1)_v1.xlsx,Rule: Press 'space' when you see the letter 'x' or 'X'.,w,None,,,,,0,0,0,0,0,4,4,4,,,,,,,,,,,,,,,,,,,,,,,,,,,,,,,,,,,,,,,,,,,1.115,82.7971129,None,83.9150779,None,None,1,83.9150779,None,85.9211782,None,,,,,,,,,,,,,,,,,,,,,,,,,,,,,,,,P031,FENCOG,1,Post,2022_Mar_29_1208,N-Back (New Version 2021),2021.1.4,120.1181001
Conditions/Version_1Pr/zeroback(1)_v1.xlsx,Rule: Press 'space' when you see the letter 'x' or 'X'.,e,None,,,,,0,0,0,0,0,5,5,5,,,,,,,,,,,,,,,,,,,,,,,,,,,,,,,,,,,,,,,,,,,1.94,87.4207016,None,89.3632892,None,None,1,89.3632892,None,91.3695755,None,,,,,,,,,,,,,,,,,,,,,,,,,,,,,,,,P031,FENCOG,1,Post,2022_Mar_29_1208,N-Back (New Version 2021),2021.1.4,120.1181001
Conditions/Version_1Pr/zeroback(1)_v1.xlsx,Rule: Press 'space' when you see the letter 'x' or 'X'.,X,space,,,,,0,0,0,0,0,6,6,6,,,,,,,,,,,,,,,,,,,,,,,,,,,,,,,,,,,,,,,,,,,1.715,92.8691981,None,94.5869711,None,space,1,94.5869711,None,94.8953361,None,0.297792,,,,,,,,,,,,,,,,,,,,,,,,,,,,,,,P031,FENCOG,1,Post,2022_Mar_29_1208,N-Back (New Version 2021),2021.1.4,120.1181001
Conditions/Version_1Pr/zeroback(1)_v1.xlsx,Rule: Press 'space' when you see the letter 'x' or 'X'.,x,space,,,,,0,0,0,0,0,7,7,7,,,,,,,,,,,,,,,,,,,,,,,,,,,,,,,,,,,,,,,,,,,1.065,96.4014002,None,97.4701924,None,space,1,97.4701924,None,97.7850988,None,0.3026818,,,,,,,,,,,,,,,,,,,,,,,,,,,,,,,P031,FENCOG,1,Post,2022_Mar_29_1208,N-Back (New Version 2021),2021.1.4,120.1181001
Conditions/Version_1Pr/zeroback(1)_v1.xlsx,Rule: Press 'space' when you see the letter 'x' or 'X'.,p,None,,,,,0,0,0,0,0,8,8,8,,,,,,,,,,,,,,,,,,,,,,,,,,,,,,,,,,,,,,,,,,,1.79,99.2920229,None,101.0842096,None,space,0,101.0842096,None,101.439236,None,0.3364735,,,,,,,,,,,,,,,,,,,,,,,,,,,,,,,P031,FENCOG,1,Post,2022_Mar_29_1208,N-Back (New Version 2021),2021.1.4,120.1181001
Conditions/Version_1Pr/zeroback(1)_v1.xlsx,Rule: Press 'space' when you see the letter 'x' or 'X'.,r,None,,,,,0,0,0,0,0,9,9,9,,,,,,,,,,,,,,,,,,,,,,,,,,,,,,,,,,,,,,,,,,,2.015,102.9411341,None,104.958966,None,None,1,104.958966,None,106.9647225,None,,,,,,,,,,,,,,,,,,,,,,,,,,,,,,,,P031,FENCOG,1,Post,2022_Mar_29_1208,N-Back (New Version 2021),2021.1.4,120.1181001
Conditions/Version_1Pr/zeroback(1)_v1.xlsx,Rule: Press 'space' when you see the letter 'x' or 'X'.,,,,,,,0,0,0,0,,,,,,,,,,,,,,,,,,,,,,,,,,,,,,,,,,,,,,,,,,,,,,,,,,,,,,,,,,,,,,,,,,,,,,,,,,,,,,,,,,,,,,,,,P031,FENCOG,1,Post,2022_Mar_29_1208,N-Back (New Version 2021),2021.1.4,120.1181001
Conditions/Version_1Pr/oneback(1)_v1.xlsx,New rule: Press 'space' when you see 1-back (i.e. the same letter as the one that appeared 1 letter ago.),a,None,,,,,0,1,1,1,0,0,0,0,,,,,,,,,,,,,,,,,,,,,,,,,,,,,,,,,108.4833082,None,111.4652869,None,space,0.4593908,111.4652869,None,108.4833082,None,1.29,111.953912,None,113.2485449,None,None,1,113.2485449,None,115.2541801,None,,,,,,,,,,,,,,,,,,,,,,,,,,,,,,,,P031,FENCOG,1,Post,2022_Mar_29_1208,N-Back (New Version 2021),2021.1.4,120.1181001
Conditions/Version_1Pr/oneback(1)_v1.xlsx,New rule: Press 'space' when you see 1-back (i.e. the same letter as the one that appeared 1 letter ago.),x,None,,,,,0,1,1,1,0,1,1,1,,,,,,,,,,,,,,,,,,,,,,,,,,,,,,,,,,,,,,,,,,,1.79,116.7537362,None,118.5446695,None,None,1,118.5446695,None,120.5443081,None,,,,,,,,,,,,,,,,,,,,,,,,,,,,,,,,P031,FENCOG,1,Post,2022_Mar_29_1208,N-Back (New Version 2021),2021.1.4,120.1181001
Conditions/Version_1Pr/oneback(1)_v1.xlsx,New rule: Press 'space' when you see 1-back (i.e. the same letter as the one that appeared 1 letter ago.),g,None,,,,,0,1,1,1,0,2,2,2,,,,,,,,,,,,,,,,,,,,,,,,,,,,,,,,,,,,,,,,,,,1.39,122.0450861,None,123.4365394,None,None,1,123.4365394,None,125.44283,None,,,,,,,,,,,,,,,,,,,,,,,,,,,,,,,,P031,FENCOG,1,Post,2022_Mar_29_1208,N-Back (New Version 2021),2021.1.4,120.1181001
Conditions/Version_1Pr/oneback(1)_v1.xlsx,New rule: Press 'space' when you see 1-back (i.e. the same letter as the one that appeared 1 letter ago.),G,space,,,,,0,1,1,1,0,3,3,3,,,,,,,,,,,,,,,,,,,,,,,,,,,,,,,,,,,,,,,,,,,1.34,126.9423939,None,128.286704,None,space,1,128.286704,None,128.6683168,None,0.3662301,,,,,,,,,,,,,,,,,,,,,,,,,,,,,,,P031,FENCOG,1,Post,2022_Mar_29_1208,N-Back (New Version 2021),2021.1.4,120.1181001
Conditions/Version_1Pr/oneback(1)_v1.xlsx,New rule: Press 'space' when you see 1-back (i.e. the same letter as the one that appeared 1 letter ago.),u,None,,,,,0,1,1,1,0,4,4,4,,,,,,,,,,,,,,,,,,,,,,,,,,,,,,,,,,,,,,,,,,,1.615,130.1745362,None,131.7926398,None,None,1,131.7926398,None,133.798726,None,,,,,,,,,,,,,,,,,,,,,,,,,,,,,,,,P031,FENCOG,1,Post,2022_Mar_29_1208,N-Back (New Version 2021),2021.1.4,120.1181001
Conditions/Version_1Pr/oneback(1)_v1.xlsx,New rule: Press 'space' when you see 1-back (i.e. the same letter as the one that appeared 1 letter ago.),y,None,,,,,0,1,1,1,0,5,5,5,,,,,,,,,,,,,,,,,,,,,,,,,,,,,,,,,,,,,,,,,,,1.765,135.2982984,None,137.0662357,None,None,1,137.0662357,None,139.0721188,None,,,,,,,,,,,,,,,,,,,,,,,,,,,,,,,,P031,FENCOG,1,Post,2022_Mar_29_1208,N-Back (New Version 2021),2021.1.4,120.1181001
Conditions/Version_1Pr/oneback(1)_v1.xlsx,New rule: Press 'space' when you see 1-back (i.e. the same letter as the one that appeared 1 letter ago.),y,space,,,,,0,1,1,1,0,6,6,6,,,,,,,,,,,,,,,,,,,,,,,,,,,,,,,,,,,,,,,,,,,1.99,140.5722908,None,142.5627604,None,space,1,142.5627604,None,142.9307338,None,0.3539637,,,,,,,,,,,,,,,,,,,,,,,,,,,,,,,P031,FENCOG,1,Post,2022_Mar_29_1208,N-Back (New Version 2021),2021.1.4,120.1181001
Conditions/Version_1Pr/oneback(1)_v1.xlsx,New rule: Press 'space' when you see 1-back (i.e. the same letter as the one that appeared 1 letter ago.),k,None,,,,,0,1,1,1,0,7,7,7,,,,,,,,,,,,,,,,,,,,,,,,,,,,,,,,,,,,,,,,,,,1.24,144.437259,None,145.6813147,None,None,1,145.6813147,None,147.6863102,None,,,,,,,,,,,,,,,,,,,,,,,,,,,,,,,,P031,FENCOG,1,Post,2022_Mar_29_1208,N-Back (New Version 2021),2021.1.4,120.1181001
Conditions/Version_1Pr/oneback(1)_v1.xlsx,New rule: Press 'space' when you see 1-back (i.e. the same letter as the one that appeared 1 letter ago.),c,None,,,,,0,1,1,1,0,8,8,8,,,,,,,,,,,,,,,,,,,,,,,,,,,,,,,,,,,,,,,,,,,1.69,149.1857903,None,150.878452,None,None,1,150.878452,None,152.8806972,None,,,,,,,,,,,,,,,,,,,,,,,,,,,,,,,,P031,FENCOG,1,Post,2022_Mar_29_1208,N-Back (New Version 2021),2021.1.4,120.1181001
Conditions/Version_1Pr/oneback(1)_v1.xlsx,New rule: Press 'space' when you see 1-back (i.e. the same letter as the one that appeared 1 letter ago.),r,None,,,,,0,1,1,1,0,9,9,9,,,,,,,,,,,,,,,,,,,,,,,,,,,,,,,,,,,,,,,,,,,1.565,154.3841976,None,155.9546019,None,None,1,155.9546019,None,157.9581901,None,,,,,,,,,,,,,,,,,,,,,,,,,,,,,,,,P031,FENCOG,1,Post,2022_Mar_29_1208,N-Back (New Version 2021),2021.1.4,120.1181001
Conditions/Version_1Pr/oneback(1)_v1.xlsx,New rule: Press 'space' when you see 1-back (i.e. the same letter as the one that appeared 1 letter ago.),,,,,,,0,1,1,1,,,,,,,,,,,,,,,,,,,,,,,,,,,,,,,,,,,,,,,,,,,,,,,,,,,,,,,,,,,,,,,,,,,,,,,,,,,,,,,,,,,,,,,,,P031,FENCOG,1,Post,2022_Mar_29_1208,N-Back (New Version 2021),2021.1.4,120.1181001
Conditions/Version_1Pr/twoback(1)_v1.xlsx,New rule: Press 'space' when you see 2-back (i.e. the same letter as the one that appeared 2 letters ago.),E,None,,,,,0,2,2,2,0,0,0,0,,,,,,,,,,,,,,,,,,,,,,,,,,,,,,,,,159.4864629,None,162.46736,None,space,0.0094043,162.46736,None,159.4864629,None,1.99,162.5014128,None,164.5009402,None,None,1,164.5009402,None,166.505715,None,,,,,,,,,,,,,,,,,,,,,,,,,,,,,,,,P031,FENCOG,1,Post,2022_Mar_29_1208,N-Back (New Version 2021),2021.1.4,120.1181001
Conditions/Version_1Pr/twoback(1)_v1.xlsx,New rule: Press 'space' when you see 2-back (i.e. the same letter as the one that appeared 2 letters ago.),p,None,,,,,0,2,2,2,0,1,1,1,,,,,,,,,,,,,,,,,,,,,,,,,,,,,,,,,,,,,,,,,,,1.54,168.0052868,None,169.5471089,None,None,1,169.5471089,None,171.5542535,None,,,,,,,,,,,,,,,,,,,,,,,,,,,,,,,,P031,FENCOG,1,Post,2022_Mar_29_1208,N-Back (New Version 2021),2021.1.4,120.1181001
Conditions/Version_1Pr/twoback(1)_v1.xlsx,New rule: Press 'space' when you see 2-back (i.e. the same letter as the one that appeared 2 letters ago.),e,space,,,,,0,2,2,2,0,2,2,2,,,,,,,,,,,,,,,,,,,,,,,,,,,,,,,,,,,,,,,,,,,1.14,173.0537532,None,174.194889,None,space,1,174.194889,None,174.8309571,None,0.6259813,,,,,,,,,,,,,,,,,,,,,,,,,,,,,,,P031,FENCOG,1,Post,2022_Mar_29_1208,N-Back (New Version 2021),2021.1.4,120.1181001
Conditions/Version_1Pr/twoback(1)_v1.xlsx,New rule: Press 'space' when you see 2-back (i.e. the same letter as the one that appeared 2 letters ago.),s,None,,,,,0,2,2,2,0,3,3,3,,,,,,,,,,,,,,,,,,,,,,,,,,,,,,,,,,,,,,,,,,,1.915,176.3361275,None,178.2537335,None,None,1,178.2537335,None,180.2600962,None,,,,,,,,,,,,,,,,,,,,,,,,,,,,,,,,P031,FENCOG,1,Post,2022_Mar_29_1208,N-Back (New Version 2021),2021.1.4,120.1181001
Conditions/Version_1Pr/twoback(1)_v1.xlsx,New rule: Press 'space' when you see 2-back (i.e. the same letter as the one that appeared 2 letters ago.),S,None,,,,,0,2,2,2,0,4,4,4,,,,,,,,,,,,,,,,,,,,,,,,,,,,,,,,,,,,,,,,,,,1.34,181.7596322,None,183.1045329,None,None,1,183.1045329,None,185.1086203,None,,,,,,,,,,,,,,,,,,,,,,,,,,,,,,,,P031,FENCOG,1,Post,2022_Mar_29_1208,N-Back (New Version 2021),2021.1.4,120.1181001
Conditions/Version_1Pr/twoback(1)_v1.xlsx,New rule: Press 'space' when you see 2-back (i.e. the same letter as the one that appeared 2 letters ago.),s,space,,,,,0,2,2,2,0,5,5,5,,,,,,,,,,,,,,,,,,,,,,,,,,,,,,,,,,,,,,,,,,,1.365,186.6081342,None,187.9749955,None,space,1,187.9749955,None,188.5185424,None,0.5338493,,,,,,,,,,,,,,,,,,,,,,,,,,,,,,,P031,FENCOG,1,Post,2022_Mar_29_1208,N-Back (New Version 2021),2021.1.4,120.1181001
Conditions/Version_1Pr/twoback(1)_v1.xlsx,New rule: Press 'space' when you see 2-back (i.e. the same letter as the one that appeared 2 letters ago.),P,None,,,,,0,2,2,2,0,6,6,6,,,,,,,,,,,,,,,,,,,,,,,,,,,,,,,,,,,,,,,,,,,1.715,190.0237499,None,191.7416279,None,None,1,191.7416279,None,193.7433079,None,,,,,,,,,,,,,,,,,,,,,,,,,,,,,,,,P031,FENCOG,1,Post,2022_Mar_29_1208,N-Back (New Version 2021),2021.1.4,120.1181001
Conditions/Version_1Pr/twoback(1)_v1.xlsx,New rule: Press 'space' when you see 2-back (i.e. the same letter as the one that appeared 2 letters ago.),C,None,,,,,0,2,2,2,0,7,7,7,,,,,,,,,,,,,,,,,,,,,,,,,,,,,,,,,,,,,,,,,,,2.015,195.2472253,None,197.2648291,None,None,1,197.2648291,None,199.2709716,None,,,,,,,,,,,,,,,,,,,,,,,,,,,,,,,,P031,FENCOG,1,Post,2022_Mar_29_1208,N-Back (New Version 2021),2021.1.4,120.1181001
Conditions/Version_1Pr/twoback(1)_v1.xlsx,New rule: Press 'space' when you see 2-back (i.e. the same letter as the one that appeared 2 letters ago.),x,None,,,,,0,2,2,2,0,8,8,8,,,,,,,,,,,,,,,,,,,,,,,,,,,,,,,,,,,,,,,,,,,1.865,200.7706235,None,202.6380163,None,None,1,202.6380163,None,204.6442688,None,,,,,,,,,,,,,,,,,,,,,,,,,,,,,,,,P031,FENCOG,1,Post,2022_Mar_29_1208,N-Back (New Version 2021),2021.1.4,120.1181001
Conditions/Version_1Pr/twoback(1)_v1.xlsx,New rule: Press 'space' when you see 2-back (i.e. the same letter as the one that appeared 2 letters ago.),Z,None,,,,,0,2,2,2,0,9,9,9,,,,,,,,,,,,,,,,,,,,,,,,,,,,,,,,,,,,,,,,,,,1.265,206.1436151,None,207.4112617,None,None,1,207.4112617,None,209.4180123,None,,,,,,,,,,,,,,,,,,,,,,,,,,,,,,,,P031,FENCOG,1,Post,2022_Mar_29_1208,N-Back (New Version 2021),2021.1.4,120.1181001
Conditions/Version_1Pr/twoback(1)_v1.xlsx,New rule: Press 'space' when you see 2-back (i.e. the same letter as the one that appeared 2 letters ago.),,,,,,,0,2,2,2,,,,,,,,,,,,,,,,,,,,,,,,,,,,,,,,,,,,,,,,,,,,,,,,,,,,,,,,,,,,,,,,,,,,,,,,,,,,,,,,,,,,,,,,,P031,FENCOG,1,Post,2022_Mar_29_1208,N-Back (New Version 2021),2021.1.4,120.1181001
Conditions/Version_1Pr/threeback(1)_v1.xlsx,New rule: Press 'space' when you see 3-back (i.e. the same letter as the one that appeared 3 letters ago.),r,None,,,,,0,3,3,3,0,0,0,0,,,,,,,,,,,,,,,,,,,,,,,,,,,,,,,,,210.9432608,None,213.9274464,None,space,0.6293412,213.9274464,None,210.9432608,None,1.715,214.5792158,None,216.3001942,None,None,1,216.3001942,None,218.3070182,None,,,,,,,,,,,,,,,,,,,,,,,,,,,,,,,,P031,FENCOG,1,Post,2022_Mar_29_1208,N-Back (New Version 2021),2021.1.4,120.1181001
Conditions/Version_1Pr/threeback(1)_v1.xlsx,New rule: Press 'space' when you see 3-back (i.e. the same letter as the one that appeared 3 letters ago.),a,None,,,,,0,3,3,3,0,1,1,1,,,,,,,,,,,,,,,,,,,,,,,,,,,,,,,,,,,,,,,,,,,1.615,219.8067112,None,221.4228417,None,None,1,221.4228417,None,223.4222257,None,,,,,,,,,,,,,,,,,,,,,,,,,,,,,,,,P031,FENCOG,1,Post,2022_Mar_29_1208,N-Back (New Version 2021),2021.1.4,120.1181001
Conditions/Version_1Pr/threeback(1)_v1.xlsx,New rule: Press 'space' when you see 3-back (i.e. the same letter as the one that appeared 3 letters ago.),t,None,,,,,0,3,3,3,0,2,2,2,,,,,,,,,,,,,,,,,,,,,,,,,,,,,,,,,,,,,,,,,,,1.19,224.9217839,None,226.114632,None,None,1,226.114632,None,228.1208918,None,,,,,,,,,,,,,,,,,,,,,,,,,,,,,,,,P031,FENCOG,1,Post,2022_Mar_29_1208,N-Back (New Version 2021),2021.1.4,120.1181001
Conditions/Version_1Pr/threeback(1)_v1.xlsx,New rule: Press 'space' when you see 3-back (i.e. the same letter as the one that appeared 3 letters ago.),r,space,,,,,0,3,3,3,0,3,3,3,,,,,,,,,,,,,,,,,,,,,,,,,,,,,,,,,,,,,,,,,,,1.24,229.6200029,None,230.8625047,None,space,1,230.8625047,None,231.2880613,None,0.4141663,,,,,,,,,,,,,,,,,,,,,,,,,,,,,,,P031,FENCOG,1,Post,2022_Mar_29_1208,N-Back (New Version 2021),2021.1.4,120.1181001
Conditions/Version_1Pr/threeback(1)_v1.xlsx,New rule: Press 'space' when you see 3-back (i.e. the same letter as the one that appeared 3 letters ago.),a,None,,,,,0,3,3,3,0,4,4,4,,,,,,,,,,,,,,,,,,,,,,,,,,,,,,,,,,,,,,,,,,,1.065,232.7944492,None,233.8624996,None,space,0,233.8624996,None,234.9729829,None,1.0941403,,,,,,,,,,,,,,,,,,,,,,,,,,,,,,,P031,FENCOG,1,Post,2022_Mar_29_1208,N-Back (New Version 2021),2021.1.4,120.1181001
Conditions/Version_1Pr/threeback(1)_v1.xlsx,New rule: Press 'space' when you see 3-back (i.e. the same letter as the one that appeared 3 letters ago.),Y,None,,,,,0,3,3,3,0,5,5,5,,,,,,,,,,,,,,,,,,,,,,,,,,,,,,,,,,,,,,,,,,,1.965,236.476657,None,238.4458437,None,None,1,238.4458437,None,240.4506139,None,,,,,,,,,,,,,,,,,,,,,,,,,,,,,,,,P031,FENCOG,1,Post,2022_Mar_29_1208,N-Back (New Version 2021),2021.1.4,120.1181001
Conditions/Version_1Pr/threeback(1)_v1.xlsx,New rule: Press 'space' when you see 3-back (i.e. the same letter as the one that appeared 3 letters ago.),q,None,,,,,0,3,3,3,0,6,6,6,,,,,,,,,,,,,,,,,,,,,,,,,,,,,,,,,,,,,,,,,,,1.765,241.9500948,None,243.7175747,None,None,1,243.7175747,None,245.7239608,None,,,,,,,,,,,,,,,,,,,,,,,,,,,,,,,,P031,FENCOG,1,Post,2022_Mar_29_1208,N-Back (New Version 2021),2021.1.4,120.1181001
Conditions/Version_1Pr/threeback(1)_v1.xlsx,New rule: Press 'space' when you see 3-back (i.e. the same letter as the one that appeared 3 letters ago.),A,space,,,,,0,3,3,3,0,7,7,7,,,,,,,,,,,,,,,,,,,,,,,,,,,,,,,,,,,,,,,,,,,1.89,247.2231472,None,249.115851,None,space,1,249.115851,None,249.5241805,None,0.3927213,,,,,,,,,,,,,,,,,,,,,,,,,,,,,,,P031,FENCOG,1,Post,2022_Mar_29_1208,N-Back (New Version 2021),2021.1.4,120.1181001
Conditions/Version_1Pr/threeback(1)_v1.xlsx,New rule: Press 'space' when you see 3-back (i.e. the same letter as the one that appeared 3 letters ago.),y,None,,,,,0,3,3,3,0,8,8,8,,,,,,,,,,,,,,,,,,,,,,,,,,,,,,,,,,,,,,,,,,,1.915,251.030721,None,252.9487259,None,space,0,252.9487259,None,253.6170539,None,0.6559699,,,,,,,,,,,,,,,,,,,,,,,,,,,,,,,P031,FENCOG,1,Post,2022_Mar_29_1208,N-Back (New Version 2021),2021.1.4,120.1181001
Conditions/Version_1Pr/threeback(1)_v1.xlsx,New rule: Press 'space' when you see 3-back (i.e. the same letter as the one that appeared 3 letters ago.),r,None,,,,,0,3,3,3,0,9,9,9,,,,,,,,,,,,,,,,,,,,,,,,,,,,,,,,,,,,,,,,,,,1.59,255.1211837,None,256.7121644,None,None,1,256.7121644,None,258.714737,None,,,,,,,,,,,,,,,,,,,,,,,,,,,,,,,,P031,FENCOG,1,Post,2022_Mar_29_1208,N-Back (New Version 2021),2021.1.4,120.1181001
Conditions/Version_1Pr/threeback(1)_v1.xlsx,New rule: Press 'space' when you see 3-back (i.e. the same letter as the one that appeared 3 letters ago.),,,,,,,0,3,3,3,,,,,,,,,,,,,,,,,,,,,,,,,,,,,,,,,,,,,,,,,,,,,,,,,,,,,,,,,,,,,,,,,,,,,,,,,,,,,,,,,,,,,,,,,P031,FENCOG,1,Post,2022_Mar_29_1208,N-Back (New Version 2021),2021.1.4,120.1181001
,,,,,,,,,,,,,,,,,,,,,,,,,,,,,,,,,,,,,,,,,,,,,,,,,,,,,,,,,,,,,,,,,,,,,,260.228019,None,space,11.0929334,260.7197955,None,,,,,,,,,,,,,,,,,,,,,,,,,P031,FENCOG,1,Post,2022_Mar_29_1208,N-Back (New Version 2021),2021.1.4,120.1181001
,,,,,,,,,,,,,,,,,,,,,,,,,,,,,,,,,,,,,,,,,,,,,,,,,,,,,,,,,,,,,,,,,,,,,,,,,,,,271.8383726,None,space,2.591376,272.3333035,None,,,,,,,,,,,,,,,,,,,P031,FENCOG,1,Post,2022_Mar_29_1208,N-Back (New Version 2021),2021.1.4,120.1181001
,,,,Conditions/Version_1/zeroback(1)_v1.xlsx,Rule: Press 'space' when you see the letter 'x' or 'X'.,b,None,,,,,,,,,0,0,0,0,0,0,0,0,,,,,,,,,,,,,,,,,,,,,,,,,,,,,,,,,,,,,,,,,,,,,,,,,,,,,,,,,,,275.0338203,None,278.0245881,None,space,0.4040142,278.0245881,None,275.0338203,None,1.8656,280.3313516,None,None,1,280.3313516,None,,P031,FENCOG,1,Post,2022_Mar_29_1208,N-Back (New Version 2021),2021.1.4,120.1181001
,,,,Conditions/Version_1/zeroback(1)_v1.xlsx,Rule: Press 'space' when you see the letter 'x' or 'X'.,T,None,,,,,,,,,0,0,0,0,0,1,1,1,,,,,,,,,,,,,,,,,,,,,,,,,,,,,,,,,,,,,,,,,,,,,,,,,,,,,,,,,,,,,,,,,,,,,1.8594,284.2063969,None,None,1,284.2063969,None,,P031,FENCOG,1,Post,2022_Mar_29_1208,N-Back (New Version 2021),2021.1.4,120.1181001
,,,,Conditions/Version_1/zeroback(1)_v1.xlsx,Rule: Press 'space' when you see the letter 'x' or 'X'.,L,None,,,,,,,,,0,0,0,0,0,2,2,2,,,,,,,,,,,,,,,,,,,,,,,,,,,,,,,,,,,,,,,,,,,,,,,,,,,,,,,,,,,,,,,,,,,,,1.4502,287.6641936,None,None,1,287.6641936,None,,P031,FENCOG,1,Post,2022_Mar_29_1208,N-Back (New Version 2021),2021.1.4,120.1181001
,,,,Conditions/Version_1/zeroback(1)_v1.xlsx,Rule: Press 'space' when you see the letter 'x' or 'X'.,x,space,,,,,,,,,0,0,0,0,0,3,3,3,,,,,,,,,,,,,,,,,,,,,,,,,,,,,,,,,,,,,,,,,,,,,,,,,,,,,,,,,,,,,,,,,,,,,1.7974,291.4686265,None,space,1,291.4686265,None,1.7038487,P031,FENCOG,1,Post,2022_Mar_29_1208,N-Back (New Version 2021),2021.1.4,120.1181001
,,,,Conditions/Version_1/zeroback(1)_v1.xlsx,Rule: Press 'space' when you see the letter 'x' or 'X'.,o,None,,,,,,,,,0,0,0,0,0,4,4,4,,,,,,,,,,,,,,,,,,,,,,,,,,,,,,,,,,,,,,,,,,,,,,,,,,,,,,,,,,,,,,,,,,,,,1.754,295.227286,None,None,1,295.227286,None,,P031,FENCOG,1,Post,2022_Mar_29_1208,N-Back (New Version 2021),2021.1.4,120.1181001
,,,,Conditions/Version_1/zeroback(1)_v1.xlsx,Rule: Press 'space' when you see the letter 'x' or 'X'.,P,None,,,,,,,,,0,0,0,0,0,5,5,5,,,,,,,,,,,,,,,,,,,,,,,,,,,,,,,,,,,,,,,,,,,,,,,,,,,,,,,,,,,,,,,,,,,,,1.909,299.1537318,None,None,1,299.1537318,None,,P031,FENCOG,1,Post,2022_Mar_29_1208,N-Back (New Version 2021),2021.1.4,120.1181001
,,,,Conditions/Version_1/zeroback(1)_v1.xlsx,Rule: Press 'space' when you see the letter 'x' or 'X'.,X,space,,,,,,,,,0,0,0,0,0,6,6,6,,,,,,,,,,,,,,,,,,,,,,,,,,,,,,,,,,,,,,,,,,,,,,,,,,,,,,,,,,,,,,,,,,,,,1.01,302.1660416,None,space,1,302.1660416,None,0.5906191,P031,FENCOG,1,Post,2022_Mar_29_1208,N-Back (New Version 2021),2021.1.4,120.1181001
,,,,Conditions/Version_1/zeroback(1)_v1.xlsx,Rule: Press 'space' when you see the letter 'x' or 'X'.,n,None,,,,,,,,,0,0,0,0,0,7,7,7,,,,,,,,,,,,,,,,,,,,,,,,,,,,,,,,,,,,,,,,,,,,,,,,,,,,,,,,,,,,,,,,,,,,,1.165,305.3409714,None,None,1,305.3409714,None,,P031,FENCOG,1,Post,2022_Mar_29_1208,N-Back (New Version 2021),2021.1.4,120.1181001
,,,,Conditions/Version_1/zeroback(1)_v1.xlsx,Rule: Press 'space' when you see the letter 'x' or 'X'.,M,None,,,,,,,,,0,0,0,0,0,8,8,8,,,,,,,,,,,,,,,,,,,,,,,,,,,,,,,,,,,,,,,,,,,,,,,,,,,,,,,,,,,,,,,,,,,,,1.0596,308.4157239,None,None,1,308.4157239,None,,P031,FENCOG,1,Post,2022_Mar_29_1208,N-Back (New Version 2021),2021.1.4,120.1181001
,,,,Conditions/Version_1/zeroback(1)_v1.xlsx,Rule: Press 'space' when you see the letter 'x' or 'X'.,a,None,,,,,,,,,0,0,0,0,0,9,9,9,,,,,,,,,,,,,,,,,,,,,,,,,,,,,,,,,,,,,,,,,,,,,,,,,,,,,,,,,,,,,,,,,,,,,1.8284,312.2540778,None,None,1,312.2540778,None,,P031,FENCOG,1,Post,2022_Mar_29_1208,N-Back (New Version 2021),2021.1.4,120.1181001
,,,,Conditions/Version_1/zeroback(1)_v1.xlsx,Rule: Press 'space' when you see the letter 'x' or 'X'.,,,,,,,,,,,0,0,0,0,,,,,,,,,,,,,,,,,,,,,,,,,,,,,,,,,,,,,,,,,,,,,,,,,,,,,,,,,,,,,,,,,,,,,,,,,,,,,,,,,P031,FENCOG,1,Post,2022_Mar_29_1208,N-Back (New Version 2021),2021.1.4,120.1181001
,,,,Conditions/Version_1/oneback(1)_v1.xlsx,New rule: Press 'space' when you see 1-back (i.e. the same letter as the one that appeared 1 letter ago.),b,None,,,,,,,,,0,1,1,1,0,0,0,0,,,,,,,,,,,,,,,,,,,,,,,,,,,,,,,,,,,,,,,,,,,,,,,,,,,,,,,,,,,314.2774216,None,317.2633056,None,space,0.373178,317.2633056,None,314.2774216,None,1.165,318.8287545,None,None,1,318.8287545,None,,P031,FENCOG,1,Post,2022_Mar_29_1208,N-Back (New Version 2021),2021.1.4,120.1181001
,,,,Conditions/Version_1/oneback(1)_v1.xlsx,New rule: Press 'space' when you see 1-back (i.e. the same letter as the one that appeared 1 letter ago.),p,None,,,,,,,,,0,1,1,1,0,1,1,1,,,,,,,,,,,,,,,,,,,,,,,,,,,,,,,,,,,,,,,,,,,,,,,,,,,,,,,,,,,,,,,,,,,,,1.4564,322.2928762,None,None,1,322.2928762,None,,P031,FENCOG,1,Post,2022_Mar_29_1208,N-Back (New Version 2021),2021.1.4,120.1181001
,,,,Conditions/Version_1/oneback(1)_v1.xlsx,New rule: Press 'space' when you see 1-back (i.e. the same letter as the one that appeared 1 letter ago.),M,None,,,,,,,,,0,1,1,1,0,2,2,2,,,,,,,,,,,,,,,,,,,,,,,,,,,,,,,,,,,,,,,,,,,,,,,,,,,,,,,,,,,,,,,,,,,,,1.9648,326.2667652,None,None,1,326.2667652,None,,P031,FENCOG,1,Post,2022_Mar_29_1208,N-Back (New Version 2021),2021.1.4,120.1181001
,,,,Conditions/Version_1/oneback(1)_v1.xlsx,New rule: Press 'space' when you see 1-back (i.e. the same letter as the one that appeared 1 letter ago.),M,space,,,,,,,,,0,1,1,1,0,3,3,3,,,,,,,,,,,,,,,,,,,,,,,,,,,,,,,,,,,,,,,,,,,,,,,,,,,,,,,,,,,,,,,,,,,,,1.847,330.1156866,None,space,1,330.1156866,None,0.4648128,P031,FENCOG,1,Post,2022_Mar_29_1208,N-Back (New Version 2021),2021.1.4,120.1181001
,,,,Conditions/Version_1/oneback(1)_v1.xlsx,New rule: Press 'space' when you see 1-back (i.e. the same letter as the one that appeared 1 letter ago.),n,None,,,,,,,,,0,1,1,1,0,4,4,4,,,,,,,,,,,,,,,,,,,,,,,,,,,,,,,,,,,,,,,,,,,,,,,,,,,,,,,,,,,,,,,,,,,,,1.2456,333.3664202,None,None,1,333.3664202,None,,P031,FENCOG,1,Post,2022_Mar_29_1208,N-Back (New Version 2021),2021.1.4,120.1181001
,,,,Conditions/Version_1/oneback(1)_v1.xlsx,New rule: Press 'space' when you see 1-back (i.e. the same letter as the one that appeared 1 letter ago.),g,None,,,,,,,,,0,1,1,1,0,5,5,5,,,,,,,,,,,,,,,,,,,,,,,,,,,,,,,,,,,,,,,,,,,,,,,,,,,,,,,,,,,,,,,,,,,,,1.0224,336.3971181,None,None,1,336.3971181,None,,P031,FENCOG,1,Post,2022_Mar_29_1208,N-Back (New Version 2021),2021.1.4,120.1181001
,,,,Conditions/Version_1/oneback(1)_v1.xlsx,New rule: Press 'space' when you see 1-back (i.e. the same letter as the one that appeared 1 letter ago.),P,None,,,,,,,,,0,1,1,1,0,6,6,6,,,,,,,,,,,,,,,,,,,,,,,,,,,,,,,,,,,,,,,,,,,,,,,,,,,,,,,,,,,,,,,,,,,,,1.6114,340.0125428,None,None,1,340.0125428,None,,P031,FENCOG,1,Post,2022_Mar_29_1208,N-Back (New Version 2021),2021.1.4,120.1181001
,,,,Conditions/Version_1/oneback(1)_v1.xlsx,New rule: Press 'space' when you see 1-back (i.e. the same letter as the one that appeared 1 letter ago.),o,None,,,,,,,,,0,1,1,1,0,7,7,7,,,,,,,,,,,,,,,,,,,,,,,,,,,,,,,,,,,,,,,,,,,,,,,,,,,,,,,,,,,,,,,,,,,,,1.1898,343.2032938,None,None,1,343.2032938,None,,P031,FENCOG,1,Post,2022_Mar_29_1208,N-Back (New Version 2021),2021.1.4,120.1181001
,,,,Conditions/Version_1/oneback(1)_v1.xlsx,New rule: Press 'space' when you see 1-back (i.e. the same letter as the one that appeared 1 letter ago.),f,None,,,,,,,,,0,1,1,1,0,8,8,8,,,,,,,,,,,,,,,,,,,,,,,,,,,,,,,,,,,,,,,,,,,,,,,,,,,,,,,,,,,,,,,,,,,,,1.4254,346.6280719,None,None,1,346.6280719,None,,P031,FENCOG,1,Post,2022_Mar_29_1208,N-Back (New Version 2021),2021.1.4,120.1181001
,,,,Conditions/Version_1/oneback(1)_v1.xlsx,New rule: Press 'space' when you see 1-back (i.e. the same letter as the one that appeared 1 letter ago.),F,space,,,,,,,,,0,1,1,1,0,9,9,9,,,,,,,,,,,,,,,,,,,,,,,,,,,,,,,,,,,,,,,,,,,,,,,,,,,,,,,,,,,,,,,,,,,,,1.1774,349.8211486,None,space,1,349.8211486,None,0.35933,P031,FENCOG,1,Post,2022_Mar_29_1208,N-Back (New Version 2021),2021.1.4,120.1181001
,,,,Conditions/Version_1/oneback(1)_v1.xlsx,New rule: Press 'space' when you see 1-back (i.e. the same letter as the one that appeared 1 letter ago.),,,,,,,,,,,0,1,1,1,,,,,,,,,,,,,,,,,,,,,,,,,,,,,,,,,,,,,,,,,,,,,,,,,,,,,,,,,,,,,,,,,,,,,,,,,,,,,,,,,P031,FENCOG,1,Post,2022_Mar_29_1208,N-Back (New Version 2021),2021.1.4,120.1181001
,,,,Conditions/Version_1/twoback(1)_v1.xlsx,New rule: Press 'space' when you see 2-back (i.e. the same letter as the one that appeared 2 letters ago.),b,None,,,,,,,,,0,2,2,2,0,0,0,0,,,,,,,,,,,,,,,,,,,,,,,,,,,,,,,,,,,,,,,,,,,,,,,,,,,,,,,,,,,351.8485376,None,354.8356075,None,space,0.3688306,354.8356075,None,351.8485376,None,1.1588,356.3919576,None,None,1,356.3919576,None,,P031,FENCOG,1,Post,2022_Mar_29_1208,N-Back (New Version 2021),2021.1.4,120.1181001
,,,,Conditions/Version_1/twoback(1)_v1.xlsx,New rule: Press 'space' when you see 2-back (i.e. the same letter as the one that appeared 2 letters ago.),h,None,,,,,,,,,0,2,2,2,0,1,1,1,,,,,,,,,,,,,,,,,,,,,,,,,,,,,,,,,,,,,,,,,,,,,,,,,,,,,,,,,,,,,,,,,,,,,1.2022,359.6086349,None,None,1,359.6086349,None,,P031,FENCOG,1,Post,2022_Mar_29_1208,N-Back (New Version 2021),2021.1.4,120.1181001
,,,,Conditions/Version_1/twoback(1)_v1.xlsx,New rule: Press 'space' when you see 2-back (i.e. the same letter as the one that appeared 2 letters ago.),j,None,,,,,,,,,0,2,2,2,0,2,2,2,,,,,,,,,,,,,,,,,,,,,,,,,,,,,,,,,,,,,,,,,,,,,,,,,,,,,,,,,,,,,,,,,,,,,1.7354,363.3582002,None,None,1,363.3582002,None,,P031,FENCOG,1,Post,2022_Mar_29_1208,N-Back (New Version 2021),2021.1.4,120.1181001
,,,,Conditions/Version_1/twoback(1)_v1.xlsx,New rule: Press 'space' when you see 2-back (i.e. the same letter as the one that appeared 2 letters ago.),H,space,,,,,,,,,0,2,2,2,0,3,3,3,,,,,,,,,,,,,,,,,,,,,,,,,,,,,,,,,,,,,,,,,,,,,,,,,,,,,,,,,,,,,,,,,,,,,1.1092,366.4828526,None,space,1,366.4828526,None,0.6338139,P031,FENCOG,1,Post,2022_Mar_29_1208,N-Back (New Version 2021),2021.1.4,120.1181001
,,,,Conditions/Version_1/twoback(1)_v1.xlsx,New rule: Press 'space' when you see 2-back (i.e. the same letter as the one that appeared 2 letters ago.),p,None,,,,,,,,,0,2,2,2,0,4,4,4,,,,,,,,,,,,,,,,,,,,,,,,,,,,,,,,,,,,,,,,,,,,,,,,,,,,,,,,,,,,,,,,,,,,,1.5556,370.0462131,None,space,0,370.0462131,None,1.0624762,P031,FENCOG,1,Post,2022_Mar_29_1208,N-Back (New Version 2021),2021.1.4,120.1181001
,,,,Conditions/Version_1/twoback(1)_v1.xlsx,New rule: Press 'space' when you see 2-back (i.e. the same letter as the one that appeared 2 letters ago.),p,None,,,,,,,,,0,2,2,2,0,5,5,5,,,,,,,,,,,,,,,,,,,,,,,,,,,,,,,,,,,,,,,,,,,,,,,,,,,,,,,,,,,,,,,,,,,,,1.599,373.6528449,None,None,1,373.6528449,None,,P031,FENCOG,1,Post,2022_Mar_29_1208,N-Back (New Version 2021),2021.1.4,120.1181001
,,,,Conditions/Version_1/twoback(1)_v1.xlsx,New rule: Press 'space' when you see 2-back (i.e. the same letter as the one that appeared 2 letters ago.),w,None,,,,,,,,,0,2,2,2,0,6,6,6,,,,,,,,,,,,,,,,,,,,,,,,,,,,,,,,,,,,,,,,,,,,,,,,,,,,,,,,,,,,,,,,,,,,,1.5432,377.2017658,None,None,1,377.2017658,None,,P031,FENCOG,1,Post,2022_Mar_29_1208,N-Back (New Version 2021),2021.1.4,120.1181001
,,,,Conditions/Version_1/twoback(1)_v1.xlsx,New rule: Press 'space' when you see 2-back (i.e. the same letter as the one that appeared 2 letters ago.),R,None,,,,,,,,,0,2,2,2,0,7,7,7,,,,,,,,,,,,,,,,,,,,,,,,,,,,,,,,,,,,,,,,,,,,,,,,,,,,,,,,,,,,,,,,,,,,,1.8842,381.0927448,None,None,1,381.0927448,None,,P031,FENCOG,1,Post,2022_Mar_29_1208,N-Back (New Version 2021),2021.1.4,120.1181001
,,,,Conditions/Version_1/twoback(1)_v1.xlsx,New rule: Press 'space' when you see 2-back (i.e. the same letter as the one that appeared 2 letters ago.),a,None,,,,,,,,,0,2,2,2,0,8,8,8,,,,,,,,,,,,,,,,,,,,,,,,,,,,,,,,,,,,,,,,,,,,,,,,,,,,,,,,,,,,,,,,,,,,,1.196,384.3005929,None,None,1,384.3005929,None,,P031,FENCOG,1,Post,2022_Mar_29_1208,N-Back (New Version 2021),2021.1.4,120.1181001
,,,,Conditions/Version_1/twoback(1)_v1.xlsx,New rule: Press 'space' when you see 2-back (i.e. the same letter as the one that appeared 2 letters ago.),r,space,,,,,,,,,0,2,2,2,0,9,9,9,,,,,,,,,,,,,,,,,,,,,,,,,,,,,,,,,,,,,,,,,,,,,,,,,,,,,,,,,,,,,,,,,,,,,1.6052,387.9160306,None,space,1,387.9160306,None,0.3924937,P031,FENCOG,1,Post,2022_Mar_29_1208,N-Back (New Version 2021),2021.1.4,120.1181001
,,,,Conditions/Version_1/twoback(1)_v1.xlsx,New rule: Press 'space' when you see 2-back (i.e. the same letter as the one that appeared 2 letters ago.),,,,,,,,,,,0,2,2,2,,,,,,,,,,,,,,,,,,,,,,,,,,,,,,,,,,,,,,,,,,,,,,,,,,,,,,,,,,,,,,,,,,,,,,,,,,,,,,,,,P031,FENCOG,1,Post,2022_Mar_29_1208,N-Back (New Version 2021),2021.1.4,120.1181001
,,,,Conditions/Version_1/threeback(1)_v1.xlsx,New rule: Press 'space' when you see 3-back (i.e. the same letter as the one that appeared 3 letters ago.),r,None,,,,,,,,,0,3,3,3,0,0,0,0,,,,,,,,,,,,,,,,,,,,,,,,,,,,,,,,,,,,,,,,,,,,,,,,,,,,,,,,,,,389.9467903,None,392.9326494,None,space,0.5600678,392.9326494,None,389.9467903,None,1.4688,394.9882371,None,None,1,394.9882371,None,,P031,FENCOG,1,Post,2022_Mar_29_1208,N-Back (New Version 2021),2021.1.4,120.1181001
,,,,Conditions/Version_1/threeback(1)_v1.xlsx,New rule: Press 'space' when you see 3-back (i.e. the same letter as the one that appeared 3 letters ago.),o,None,,,,,,,,,0,3,3,3,0,1,1,1,,,,,,,,,,,,,,,,,,,,,,,,,,,,,,,,,,,,,,,,,,,,,,,,,,,,,,,,,,,,,,,,,,,,,1.506,398.495327,None,None,1,398.495327,None,,P031,FENCOG,1,Post,2022_Mar_29_1208,N-Back (New Version 2021),2021.1.4,120.1181001
,,,,Conditions/Version_1/threeback(1)_v1.xlsx,New rule: Press 'space' when you see 3-back (i.e. the same letter as the one that appeared 3 letters ago.),P,None,,,,,,,,,0,3,3,3,0,2,2,2,,,,,,,,,,,,,,,,,,,,,,,,,,,,,,,,,,,,,,,,,,,,,,,,,,,,,,,,,,,,,,,,,,,,,1.444,401.9443432,None,None,1,401.9443432,None,,P031,FENCOG,1,Post,2022_Mar_29_1208,N-Back (New Version 2021),2021.1.4,120.1181001
,,,,Conditions/Version_1/threeback(1)_v1.xlsx,New rule: Press 'space' when you see 3-back (i.e. the same letter as the one that appeared 3 letters ago.),R,space,,,,,,,,,0,3,3,3,0,3,3,3,,,,,,,,,,,,,,,,,,,,,,,,,,,,,,,,,,,,,,,,,,,,,,,,,,,,,,,,,,,,,,,,,,,,,1.0906,405.0351419,None,space,1,405.0351419,None,0.3774323,P031,FENCOG,1,Post,2022_Mar_29_1208,N-Back (New Version 2021),2021.1.4,120.1181001
,,,,Conditions/Version_1/threeback(1)_v1.xlsx,New rule: Press 'space' when you see 3-back (i.e. the same letter as the one that appeared 3 letters ago.),p,None,,,,,,,,,0,3,3,3,0,4,4,4,,,,,,,,,,,,,,,,,,,,,,,,,,,,,,,,,,,,,,,,,,,,,,,,,,,,,,,,,,,,,,,,,,,,,1.1526,408.1924363,None,None,1,408.1924363,None,,P031,FENCOG,1,Post,2022_Mar_29_1208,N-Back (New Version 2021),2021.1.4,120.1181001
,,,,Conditions/Version_1/threeback(1)_v1.xlsx,New rule: Press 'space' when you see 3-back (i.e. the same letter as the one that appeared 3 letters ago.),E,None,,,,,,,,,0,3,3,3,0,5,5,5,,,,,,,,,,,,,,,,,,,,,,,,,,,,,,,,,,,,,,,,,,,,,,,,,,,,,,,,,,,,,,,,,,,,,1.1712,411.3663067,None,None,1,411.3663067,None,,P031,FENCOG,1,Post,2022_Mar_29_1208,N-Back (New Version 2021),2021.1.4,120.1181001
,,,,Conditions/Version_1/threeback(1)_v1.xlsx,New rule: Press 'space' when you see 3-back (i.e. the same letter as the one that appeared 3 letters ago.),e,None,,,,,,,,,0,3,3,3,0,6,6,6,,,,,,,,,,,,,,,,,,,,,,,,,,,,,,,,,,,,,,,,,,,,,,,,,,,,,,,,,,,,,,,,,,,,,1.5742,414.9405283,None,None,1,414.9405283,None,,P031,FENCOG,1,Post,2022_Mar_29_1208,N-Back (New Version 2021),2021.1.4,120.1181001
,,,,Conditions/Version_1/threeback(1)_v1.xlsx,New rule: Press 'space' when you see 3-back (i.e. the same letter as the one that appeared 3 letters ago.),m,None,,,,,,,,,0,3,3,3,0,7,7,7,,,,,,,,,,,,,,,,,,,,,,,,,,,,,,,,,,,,,,,,,,,,,,,,,,,,,,,,,,,,,,,,,,,,,1.4006,418.3413658,None,None,1,418.3413658,None,,P031,FENCOG,1,Post,2022_Mar_29_1208,N-Back (New Version 2021),2021.1.4,120.1181001
,,,,Conditions/Version_1/threeback(1)_v1.xlsx,New rule: Press 'space' when you see 3-back (i.e. the same letter as the one that appeared 3 letters ago.),n,None,,,,,,,,,0,3,3,3,0,8,8,8,,,,,,,,,,,,,,,,,,,,,,,,,,,,,,,,,,,,,,,,,,,,,,,,,,,,,,,,,,,,,,,,,,,,,1.8036,422.1550619,None,None,1,422.1550619,None,,P031,FENCOG,1,Post,2022_Mar_29_1208,N-Back (New Version 2021),2021.1.4,120.1181001
,,,,Conditions/Version_1/threeback(1)_v1.xlsx,New rule: Press 'space' when you see 3-back (i.e. the same letter as the one that appeared 3 letters ago.),e,space,,,,,,,,,0,3,3,3,0,9,9,9,,,,,,,,,,,,,,,,,,,,,,,,,,,,,,,,,,,,,,,,,,,,,,,,,,,,,,,,,,,,,,,,,,,,,1.6486,425.8059224,None,space,1,425.8059224,None,0.3904528,P031,FENCOG,1,Post,2022_Mar_29_1208,N-Back (New Version 2021),2021.1.4,120.1181001
,,,,Conditions/Version_1/threeback(1)_v1.xlsx,New rule: Press 'space' when you see 3-back (i.e. the same letter as the one that appeared 3 letters ago.),,,,,,,,,,,0,3,3,3,,,,,,,,,,,,,,,,,,,,,,,,,,,,,,,,,,,,,,,,,,,,,,,,,,,,,,,,,,,,,,,,,,,,,,,,,,,,,,,,,P031,FENCOG,1,Post,2022_Mar_29_1208,N-Back (New Version 2021),2021.1.4,120.1181001
,,,,Conditions/Version_1/oneback(2)_v1.xlsx,New rule: Press 'space' when you see 1-back (i.e. the same letter as the one that appeared 1 letter ago.),q,None,,,,,,,,,0,4,4,4,0,0,0,0,,,,,,,,,,,,,,,,,,,,,,,,,,,,,,,,,,,,,,,,,,,,,,,,,,,,,,,,,,,427.8355253,None,430.821509,None,space,0.8310697,430.821509,None,427.8355253,None,1.7416,433.4183615,None,None,1,433.4183615,None,,P031,FENCOG,1,Post,2022_Mar_29_1208,N-Back (New Version 2021),2021.1.4,120.1181001
,,,,Conditions/Version_1/oneback(2)_v1.xlsx,New rule: Press 'space' when you see 1-back (i.e. the same letter as the one that appeared 1 letter ago.),Q,space,,,,,,,,,0,4,4,4,0,1,1,1,,,,,,,,,,,,,,,,,,,,,,,,,,,,,,,,,,,,,,,,,,,,,,,,,,,,,,,,,,,,,,,,,,,,,1.2332,436.6550663,None,space,1,436.6550663,None,0.4694538,P031,FENCOG,1,Post,2022_Mar_29_1208,N-Back (New Version 2021),2021.1.4,120.1181001
,,,,Conditions/Version_1/oneback(2)_v1.xlsx,New rule: Press 'space' when you see 1-back (i.e. the same letter as the one that appeared 1 letter ago.),P,None,,,,,,,,,0,4,4,4,0,2,2,2,,,,,,,,,,,,,,,,,,,,,,,,,,,,,,,,,,,,,,,,,,,,,,,,,,,,,,,,,,,,,,,,,,,,,1.103,439.7676058,None,None,1,439.7676058,None,,P031,FENCOG,1,Post,2022_Mar_29_1208,N-Back (New Version 2021),2021.1.4,120.1181001
,,,,Conditions/Version_1/oneback(2)_v1.xlsx,New rule: Press 'space' when you see 1-back (i.e. the same letter as the one that appeared 1 letter ago.),o,None,,,,,,,,,0,4,4,4,0,3,3,3,,,,,,,,,,,,,,,,,,,,,,,,,,,,,,,,,,,,,,,,,,,,,,,,,,,,,,,,,,,,,,,,,,,,,1.7788,443.5495476,None,None,1,443.5495476,None,,P031,FENCOG,1,Post,2022_Mar_29_1208,N-Back (New Version 2021),2021.1.4,120.1181001
,,,,Conditions/Version_1/oneback(2)_v1.xlsx,New rule: Press 'space' when you see 1-back (i.e. the same letter as the one that appeared 1 letter ago.),m,None,,,,,,,,,0,4,4,4,0,4,4,4,,,,,,,,,,,,,,,,,,,,,,,,,,,,,,,,,,,,,,,,,,,,,,,,,,,,,,,,,,,,,,,,,,,,,1.0162,446.5728563,None,None,1,446.5728563,None,,P031,FENCOG,1,Post,2022_Mar_29_1208,N-Back (New Version 2021),2021.1.4,120.1181001
,,,,Conditions/Version_1/oneback(2)_v1.xlsx,New rule: Press 'space' when you see 1-back (i.e. the same letter as the one that appeared 1 letter ago.),Z,None,,,,,,,,,0,4,4,4,0,5,5,5,,,,,,,,,,,,,,,,,,,,,,,,,,,,,,,,,,,,,,,,,,,,,,,,,,,,,,,,,,,,,,,,,,,,,1.5618,450.1397153,None,None,1,450.1397153,None,,P031,FENCOG,1,Post,2022_Mar_29_1208,N-Back (New Version 2021),2021.1.4,120.1181001
,,,,Conditions/Version_1/oneback(2)_v1.xlsx,New rule: Press 'space' when you see 1-back (i.e. the same letter as the one that appeared 1 letter ago.),c,None,,,,,,,,,0,4,4,4,0,6,6,6,,,,,,,,,,,,,,,,,,,,,,,,,,,,,,,,,,,,,,,,,,,,,,,,,,,,,,,,,,,,,,,,,,,,,1.6486,453.7967838,None,None,1,453.7967838,None,,P031,FENCOG,1,Post,2022_Mar_29_1208,N-Back (New Version 2021),2021.1.4,120.1181001
,,,,Conditions/Version_1/oneback(2)_v1.xlsx,New rule: Press 'space' when you see 1-back (i.e. the same letter as the one that appeared 1 letter ago.),c,space,,,,,,,,,0,4,4,4,0,7,7,7,,,,,,,,,,,,,,,,,,,,,,,,,,,,,,,,,,,,,,,,,,,,,,,,,,,,,,,,,,,,,,,,,,,,,1.506,457.3114393,None,space,1,457.3114393,None,0.4290142,P031,FENCOG,1,Post,2022_Mar_29_1208,N-Back (New Version 2021),2021.1.4,120.1181001
,,,,Conditions/Version_1/oneback(2)_v1.xlsx,New rule: Press 'space' when you see 1-back (i.e. the same letter as the one that appeared 1 letter ago.),P,None,,,,,,,,,0,4,4,4,0,8,8,8,,,,,,,,,,,,,,,,,,,,,,,,,,,,,,,,,,,,,,,,,,,,,,,,,,,,,,,,,,,,,,,,,,,,,1.8532,461.1686528,None,None,1,461.1686528,None,,P031,FENCOG,1,Post,2022_Mar_29_1208,N-Back (New Version 2021),2021.1.4,120.1181001
,,,,Conditions/Version_1/oneback(2)_v1.xlsx,New rule: Press 'space' when you see 1-back (i.e. the same letter as the one that appeared 1 letter ago.),p,space,,,,,,,,,0,4,4,4,0,9,9,9,,,,,,,,,,,,,,,,,,,,,,,,,,,,,,,,,,,,,,,,,,,,,,,,,,,,,,,,,,,,,,,,,,,,,1.3758,464.5435276,None,space,1,464.5435276,None,0.413042,P031,FENCOG,1,Post,2022_Mar_29_1208,N-Back (New Version 2021),2021.1.4,120.1181001
,,,,Conditions/Version_1/oneback(2)_v1.xlsx,New rule: Press 'space' when you see 1-back (i.e. the same letter as the one that appeared 1 letter ago.),,,,,,,,,,,0,4,4,4,,,,,,,,,,,,,,,,,,,,,,,,,,,,,,,,,,,,,,,,,,,,,,,,,,,,,,,,,,,,,,,,,,,,,,,,,,,,,,,,,P031,FENCOG,1,Post,2022_Mar_29_1208,N-Back (New Version 2021),2021.1.4,120.1181001
,,,,Conditions/Version_1/zeroback(2)_v1.xlsx,New rule: Press 'space' when you see the letter 'x' or 'X'.,p,None,,,,,,,,,0,5,5,5,0,0,0,0,,,,,,,,,,,,,,,,,,,,,,,,,,,,,,,,,,,,,,,,,,,,,,,,,,,,,,,,,,,466.5689001,None,469.5514038,None,space,0.3090643,469.5514038,None,466.5689001,None,1.0782,470.9656462,None,None,1,470.9656462,None,,P031,FENCOG,1,Post,2022_Mar_29_1208,N-Back (New Version 2021),2021.1.4,120.1181001
,,,,Conditions/Version_1/zeroback(2)_v1.xlsx,New rule: Press 'space' when you see the letter 'x' or 'X'.,L,None,,,,,,,,,0,5,5,5,0,1,1,1,,,,,,,,,,,,,,,,,,,,,,,,,,,,,,,,,,,,,,,,,,,,,,,,,,,,,,,,,,,,,,,,,,,,,1.878,474.8502422,None,None,1,474.8502422,None,,P031,FENCOG,1,Post,2022_Mar_29_1208,N-Back (New Version 2021),2021.1.4,120.1181001
,,,,Conditions/Version_1/zeroback(2)_v1.xlsx,New rule: Press 'space' when you see the letter 'x' or 'X'.,G,None,,,,,,,,,0,5,5,5,0,2,2,2,,,,,,,,,,,,,,,,,,,,,,,,,,,,,,,,,,,,,,,,,,,,,,,,,,,,,,,,,,,,,,,,,,,,,1.2146,478.0730143,None,None,1,478.0730143,None,,P031,FENCOG,1,Post,2022_Mar_29_1208,N-Back (New Version 2021),2021.1.4,120.1181001
,,,,Conditions/Version_1/zeroback(2)_v1.xlsx,New rule: Press 'space' when you see the letter 'x' or 'X'.,y,None,,,,,,,,,0,5,5,5,0,3,3,3,,,,,,,,,,,,,,,,,,,,,,,,,,,,,,,,,,,,,,,,,,,,,,,,,,,,,,,,,,,,,,,,,,,,,1.0906,481.1708915,None,None,1,481.1708915,None,,P031,FENCOG,1,Post,2022_Mar_29_1208,N-Back (New Version 2021),2021.1.4,120.1181001
,,,,Conditions/Version_1/zeroback(2)_v1.xlsx,New rule: Press 'space' when you see the letter 'x' or 'X'.,Y,None,,,,,,,,,0,5,5,5,0,4,4,4,,,,,,,,,,,,,,,,,,,,,,,,,,,,,,,,,,,,,,,,,,,,,,,,,,,,,,,,,,,,,,,,,,,,,1.4936,484.6699645,None,None,1,484.6699645,None,,P031,FENCOG,1,Post,2022_Mar_29_1208,N-Back (New Version 2021),2021.1.4,120.1181001
,,,,Conditions/Version_1/zeroback(2)_v1.xlsx,New rule: Press 'space' when you see the letter 'x' or 'X'.,W,None,,,,,,,,,0,5,5,5,0,5,5,5,,,,,,,,,,,,,,,,,,,,,,,,,,,,,,,,,,,,,,,,,,,,,,,,,,,,,,,,,,,,,,,,,,,,,1.3448,488.0205953,None,None,1,488.0205953,None,,P031,FENCOG,1,Post,2022_Mar_29_1208,N-Back (New Version 2021),2021.1.4,120.1181001
,,,,Conditions/Version_1/zeroback(2)_v1.xlsx,New rule: Press 'space' when you see the letter 'x' or 'X'.,x,space,,,,,,,,,0,5,5,5,0,6,6,6,,,,,,,,,,,,,,,,,,,,,,,,,,,,,,,,,,,,,,,,,,,,,,,,,,,,,,,,,,,,,,,,,,,,,1.568,491.6022772,None,space,1,491.6022772,None,0.3142953,P031,FENCOG,1,Post,2022_Mar_29_1208,N-Back (New Version 2021),2021.1.4,120.1181001
,,,,Conditions/Version_1/zeroback(2)_v1.xlsx,New rule: Press 'space' when you see the letter 'x' or 'X'.,X,space,,,,,,,,,0,5,5,5,0,7,7,7,,,,,,,,,,,,,,,,,,,,,,,,,,,,,,,,,,,,,,,,,,,,,,,,,,,,,,,,,,,,,,,,,,,,,1.6052,495.217802,None,space,1,495.217802,None,0.3708219,P031,FENCOG,1,Post,2022_Mar_29_1208,N-Back (New Version 2021),2021.1.4,120.1181001
,,,,Conditions/Version_1/zeroback(2)_v1.xlsx,New rule: Press 'space' when you see the letter 'x' or 'X'.,p,None,,,,,,,,,0,5,5,5,0,8,8,8,,,,,,,,,,,,,,,,,,,,,,,,,,,,,,,,,,,,,,,,,,,,,,,,,,,,,,,,,,,,,,,,,,,,,1.6858,498.9156836,None,None,1,498.9156836,None,,P031,FENCOG,1,Post,2022_Mar_29_1208,N-Back (New Version 2021),2021.1.4,120.1181001
,,,,Conditions/Version_1/zeroback(2)_v1.xlsx,New rule: Press 'space' when you see the letter 'x' or 'X'.,h,None,,,,,,,,,0,5,5,5,0,9,9,9,,,,,,,,,,,,,,,,,,,,,,,,,,,,,,,,,,,,,,,,,,,,,,,,,,,,,,,,,,,,,,,,,,,,,1.4688,502.3895479,None,None,1,502.3895479,None,,P031,FENCOG,1,Post,2022_Mar_29_1208,N-Back (New Version 2021),2021.1.4,120.1181001
,,,,Conditions/Version_1/zeroback(2)_v1.xlsx,New rule: Press 'space' when you see the letter 'x' or 'X'.,,,,,,,,,,,0,5,5,5,,,,,,,,,,,,,,,,,,,,,,,,,,,,,,,,,,,,,,,,,,,,,,,,,,,,,,,,,,,,,,,,,,,,,,,,,,,,,,,,,P031,FENCOG,1,Post,2022_Mar_29_1208,N-Back (New Version 2021),2021.1.4,120.1181001
,,,,Conditions/Version_1/threeback(2)_v1.xlsx,New rule: Press 'space' when you see 3-back (i.e. the same letter as the one that appeared 3 letters ago.),q,None,,,,,,,,,0,6,6,6,0,0,0,0,,,,,,,,,,,,,,,,,,,,,,,,,,,,,,,,,,,,,,,,,,,,,,,,,,,,,,,,,,,504.4124729,None,507.3992437,None,space,0.7733802,507.3992437,None,504.4124729,None,1.134,509.3374361,None,None,1,509.3374361,None,,P031,FENCOG,1,Post,2022_Mar_29_1208,N-Back (New Version 2021),2021.1.4,120.1181001
,,,,Conditions/Version_1/threeback(2)_v1.xlsx,New rule: Press 'space' when you see 3-back (i.e. the same letter as the one that appeared 3 letters ago.),Y,None,,,,,,,,,0,6,6,6,0,1,1,1,,,,,,,,,,,,,,,,,,,,,,,,,,,,,,,,,,,,,,,,,,,,,,,,,,,,,,,,,,,,,,,,,,,,,1.0348,512.3796246,None,None,1,512.3796246,None,,P031,FENCOG,1,Post,2022_Mar_29_1208,N-Back (New Version 2021),2021.1.4,120.1181001
,,,,Conditions/Version_1/threeback(2)_v1.xlsx,New rule: Press 'space' when you see 3-back (i.e. the same letter as the one that appeared 3 letters ago.),p,None,,,,,,,,,0,6,6,6,0,2,2,2,,,,,,,,,,,,,,,,,,,,,,,,,,,,,,,,,,,,,,,,,,,,,,,,,,,,,,,,,,,,,,,,,,,,,1.8594,516.253387,None,None,1,516.253387,None,,P031,FENCOG,1,Post,2022_Mar_29_1208,N-Back (New Version 2021),2021.1.4,120.1181001
,,,,Conditions/Version_1/threeback(2)_v1.xlsx,New rule: Press 'space' when you see 3-back (i.e. the same letter as the one that appeared 3 letters ago.),p,None,,,,,,,,,0,6,6,6,0,3,3,3,,,,,,,,,,,,,,,,,,,,,,,,,,,,,,,,,,,,,,,,,,,,,,,,,,,,,,,,,,,,,,,,,,,,,1.3634,519.6263869,None,None,1,519.6263869,None,,P031,FENCOG,1,Post,2022_Mar_29_1208,N-Back (New Version 2021),2021.1.4,120.1181001
,,,,Conditions/Version_1/threeback(2)_v1.xlsx,New rule: Press 'space' when you see 3-back (i.e. the same letter as the one that appeared 3 letters ago.),y,space,,,,,,,,,0,6,6,6,0,4,4,4,,,,,,,,,,,,,,,,,,,,,,,,,,,,,,,,,,,,,,,,,,,,,,,,,,,,,,,,,,,,,,,,,,,,,1.4068,523.0437482,None,space,1,523.0437482,None,0.4006502,P031,FENCOG,1,Post,2022_Mar_29_1208,N-Back (New Version 2021),2021.1.4,120.1181001
,,,,Conditions/Version_1/threeback(2)_v1.xlsx,New rule: Press 'space' when you see 3-back (i.e. the same letter as the one that appeared 3 letters ago.),u,None,,,,,,,,,0,6,6,6,0,5,5,5,,,,,,,,,,,,,,,,,,,,,,,,,,,,,,,,,,,,,,,,,,,,,,,,,,,,,,,,,,,,,,,,,,,,,1.6052,526.6579975,None,None,1,526.6579975,None,,P031,FENCOG,1,Post,2022_Mar_29_1208,N-Back (New Version 2021),2021.1.4,120.1181001
,,,,Conditions/Version_1/threeback(2)_v1.xlsx,New rule: Press 'space' when you see 3-back (i.e. the same letter as the one that appeared 3 letters ago.),P,space,,,,,,,,,0,6,6,6,0,6,6,6,,,,,,,,,,,,,,,,,,,,,,,,,,,,,,,,,,,,,,,,,,,,,,,,,,,,,,,,,,,,,,,,,,,,,1.5184,530.1824729,None,space,1,530.1824729,None,0.7500829,P031,FENCOG,1,Post,2022_Mar_29_1208,N-Back (New Version 2021),2021.1.4,120.1181001
,,,,Conditions/Version_1/threeback(2)_v1.xlsx,New rule: Press 'space' when you see 3-back (i.e. the same letter as the one that appeared 3 letters ago.),a,None,,,,,,,,,0,6,6,6,0,7,7,7,,,,,,,,,,,,,,,,,,,,,,,,,,,,,,,,,,,,,,,,,,,,,,,,,,,,,,,,,,,,,,,,,,,,,1.2146,533.409306,None,None,1,533.409306,None,,P031,FENCOG,1,Post,2022_Mar_29_1208,N-Back (New Version 2021),2021.1.4,120.1181001
,,,,Conditions/Version_1/threeback(2)_v1.xlsx,New rule: Press 'space' when you see 3-back (i.e. the same letter as the one that appeared 3 letters ago.),U,space,,,,,,,,,0,6,6,6,0,8,8,8,,,,,,,,,,,,,,,,,,,,,,,,,,,,,,,,,,,,,,,,,,,,,,,,,,,,,,,,,,,,,,,,,,,,,1.475,536.8906598,None,space,1,536.8906598,None,0.6581155,P031,FENCOG,1,Post,2022_Mar_29_1208,N-Back (New Version 2021),2021.1.4,120.1181001
,,,,Conditions/Version_1/threeback(2)_v1.xlsx,New rule: Press 'space' when you see 3-back (i.e. the same letter as the one that appeared 3 letters ago.),q,None,,,,,,,,,0,6,6,6,0,9,9,9,,,,,,,,,,,,,,,,,,,,,,,,,,,,,,,,,,,,,,,,,,,,,,,,,,,,,,,,,,,,,,,,,,,,,1.1588,540.0544158,None,None,1,540.0544158,None,,P031,FENCOG,1,Post,2022_Mar_29_1208,N-Back (New Version 2021),2021.1.4,120.1181001
,,,,Conditions/Version_1/threeback(2)_v1.xlsx,New rule: Press 'space' when you see 3-back (i.e. the same letter as the one that appeared 3 letters ago.),,,,,,,,,,,0,6,6,6,,,,,,,,,,,,,,,,,,,,,,,,,,,,,,,,,,,,,,,,,,,,,,,,,,,,,,,,,,,,,,,,,,,,,,,,,,,,,,,,,P031,FENCOG,1,Post,2022_Mar_29_1208,N-Back (New Version 2021),2021.1.4,120.1181001
,,,,Conditions/Version_1/twoback(2)_v1.xlsx,New rule: Press 'space' when you see 2-back (i.e. the same letter as the one that appeared 2 letters ago.),q,None,,,,,,,,,0,7,7,7,0,0,0,0,,,,,,,,,,,,,,,,,,,,,,,,,,,,,,,,,,,,,,,,,,,,,,,,,,,,,,,,,,,542.0853052,None,545.0711695,None,space,1.1493103,545.0711695,None,542.0853052,None,1.5556,547.8014432,None,space,0,547.8014432,None,1.0030579,P031,FENCOG,1,Post,2022_Mar_29_1208,N-Back (New Version 2021),2021.1.4,120.1181001
,,,,Conditions/Version_1/twoback(2)_v1.xlsx,New rule: Press 'space' when you see 2-back (i.e. the same letter as the one that appeared 2 letters ago.),r,None,,,,,,,,,0,7,7,7,0,1,1,1,,,,,,,,,,,,,,,,,,,,,,,,,,,,,,,,,,,,,,,,,,,,,,,,,,,,,,,,,,,,,,,,,,,,,1.8594,551.6667809,None,None,1,551.6667809,None,,P031,FENCOG,1,Post,2022_Mar_29_1208,N-Back (New Version 2021),2021.1.4,120.1181001
,,,,Conditions/Version_1/twoback(2)_v1.xlsx,New rule: Press 'space' when you see 2-back (i.e. the same letter as the one that appeared 2 letters ago.),q,space,,,,,,,,,0,7,7,7,0,2,2,2,,,,,,,,,,,,,,,,,,,,,,,,,,,,,,,,,,,,,,,,,,,,,,,,,,,,,,,,,,,,,,,,,,,,,1.1588,554.8326354,None,space,1,554.8326354,None,0.3877069,P031,FENCOG,1,Post,2022_Mar_29_1208,N-Back (New Version 2021),2021.1.4,120.1181001
,,,,Conditions/Version_1/twoback(2)_v1.xlsx,New rule: Press 'space' when you see 2-back (i.e. the same letter as the one that appeared 2 letters ago.),P,None,,,,,,,,,0,7,7,7,0,3,3,3,,,,,,,,,,,,,,,,,,,,,,,,,,,,,,,,,,,,,,,,,,,,,,,,,,,,,,,,,,,,,,,,,,,,,1.971,558.8070126,None,None,1,558.8070126,None,,P031,FENCOG,1,Post,2022_Mar_29_1208,N-Back (New Version 2021),2021.1.4,120.1181001
,,,,Conditions/Version_1/twoback(2)_v1.xlsx,New rule: Press 'space' when you see 2-back (i.e. the same letter as the one that appeared 2 letters ago.),p,None,,,,,,,,,0,7,7,7,0,4,4,4,,,,,,,,,,,,,,,,,,,,,,,,,,,,,,,,,,,,,,,,,,,,,,,,,,,,,,,,,,,,,,,,,,,,,1.2022,562.0231432,None,None,1,562.0231432,None,,P031,FENCOG,1,Post,2022_Mar_29_1208,N-Back (New Version 2021),2021.1.4,120.1181001
,,,,Conditions/Version_1/twoback(2)_v1.xlsx,New rule: Press 'space' when you see 2-back (i.e. the same letter as the one that appeared 2 letters ago.),H,None,,,,,,,,,0,7,7,7,0,5,5,5,,,,,,,,,,,,,,,,,,,,,,,,,,,,,,,,,,,,,,,,,,,,,,,,,,,,,,,,,,,,,,,,,,,,,1.2456,565.279466,None,None,1,565.279466,None,,P031,FENCOG,1,Post,2022_Mar_29_1208,N-Back (New Version 2021),2021.1.4,120.1181001
,,,,Conditions/Version_1/twoback(2)_v1.xlsx,New rule: Press 'space' when you see 2-back (i.e. the same letter as the one that appeared 2 letters ago.),g,None,,,,,,,,,0,7,7,7,0,6,6,6,,,,,,,,,,,,,,,,,,,,,,,,,,,,,,,,,,,,,,,,,,,,,,,,,,,,,,,,,,,,,,,,,,,,,1.9524,569.2384211,None,None,1,569.2384211,None,,P031,FENCOG,1,Post,2022_Mar_29_1208,N-Back (New Version 2021),2021.1.4,120.1181001
,,,,Conditions/Version_1/twoback(2)_v1.xlsx,New rule: Press 'space' when you see 2-back (i.e. the same letter as the one that appeared 2 letters ago.),j,None,,,,,,,,,0,7,7,7,0,7,7,7,,,,,,,,,,,,,,,,,,,,,,,,,,,,,,,,,,,,,,,,,,,,,,,,,,,,,,,,,,,,,,,,,,,,,1.5432,572.7957284,None,None,1,572.7957284,None,,P031,FENCOG,1,Post,2022_Mar_29_1208,N-Back (New Version 2021),2021.1.4,120.1181001
,,,,Conditions/Version_1/twoback(2)_v1.xlsx,New rule: Press 'space' when you see 2-back (i.e. the same letter as the one that appeared 2 letters ago.),g,space,,,,,,,,,0,7,7,7,0,8,8,8,,,,,,,,,,,,,,,,,,,,,,,,,,,,,,,,,,,,,,,,,,,,,,,,,,,,,,,,,,,,,,,,,,,,,1.6362,576.4344185,None,space,1,576.4344185,None,0.7061376,P031,FENCOG,1,Post,2022_Mar_29_1208,N-Back (New Version 2021),2021.1.4,120.1181001
,,,,Conditions/Version_1/twoback(2)_v1.xlsx,New rule: Press 'space' when you see 2-back (i.e. the same letter as the one that appeared 2 letters ago.),G,None,,,,,,,,,0,7,7,7,0,9,9,9,,,,,,,,,,,,,,,,,,,,,,,,,,,,,,,,,,,,,,,,,,,,,,,,,,,,,,,,,,,,,,,,,,,,,1.165,579.6002332,None,None,1,579.6002332,None,,P031,FENCOG,1,Post,2022_Mar_29_1208,N-Back (New Version 2021),2021.1.4,120.1181001
,,,,Conditions/Version_1/twoback(2)_v1.xlsx,New rule: Press 'space' when you see 2-back (i.e. the same letter as the one that appeared 2 letters ago.),,,,,,,,,,,0,7,7,7,,,,,,,,,,,,,,,,,,,,,,,,,,,,,,,,,,,,,,,,,,,,,,,,,,,,,,,,,,,,,,,,,,,,,,,,,,,,,,,,,P031,FENCOG,1,Post,2022_Mar_29_1208,N-Back (New Version 2021),2021.1.4,120.1181001
,,,,Conditions/Version_1/threeback(3)_v1.xlsx,New rule: Press 'space' when you see 3-back (i.e. the same letter as the one that appeared 3 letters ago.),w,None,,,,,,,,,0,8,8,8,0,0,0,0,,,,,,,,,,,,,,,,,,,,,,,,,,,,,,,,,,,,,,,,,,,,,,,,,,,,,,,,,,,581.6245539,None,584.6093487,None,space,0.3790932,584.6093487,None,581.6245539,None,1.8594,586.8731761,None,None,1,586.8731761,None,,P031,FENCOG,1,Post,2022_Mar_29_1208,N-Back (New Version 2021),2021.1.4,120.1181001
,,,,Conditions/Version_1/threeback(3)_v1.xlsx,New rule: Press 'space' when you see 3-back (i.e. the same letter as the one that appeared 3 letters ago.),p,None,,,,,,,,,0,8,8,8,0,1,1,1,,,,,,,,,,,,,,,,,,,,,,,,,,,,,,,,,,,,,,,,,,,,,,,,,,,,,,,,,,,,,,,,,,,,,1.1836,590.0565733,None,None,1,590.0565733,None,,P031,FENCOG,1,Post,2022_Mar_29_1208,N-Back (New Version 2021),2021.1.4,120.1181001
,,,,Conditions/Version_1/threeback(3)_v1.xlsx,New rule: Press 'space' when you see 3-back (i.e. the same letter as the one that appeared 3 letters ago.),P,None,,,,,,,,,0,8,8,8,0,2,2,2,,,,,,,,,,,,,,,,,,,,,,,,,,,,,,,,,,,,,,,,,,,,,,,,,,,,,,,,,,,,,,,,,,,,,1.8408,593.9043108,None,None,1,593.9043108,None,,P031,FENCOG,1,Post,2022_Mar_29_1208,N-Back (New Version 2021),2021.1.4,120.1181001
,,,,Conditions/Version_1/threeback(3)_v1.xlsx,New rule: Press 'space' when you see 3-back (i.e. the same letter as the one that appeared 3 letters ago.),i,None,,,,,,,,,0,8,8,8,0,3,3,3,,,,,,,,,,,,,,,,,,,,,,,,,,,,,,,,,,,,,,,,,,,,,,,,,,,,,,,,,,,,,,,,,,,,,1.723,597.6300273,None,None,1,597.6300273,None,,P031,FENCOG,1,Post,2022_Mar_29_1208,N-Back (New Version 2021),2021.1.4,120.1181001
,,,,Conditions/Version_1/threeback(3)_v1.xlsx,New rule: Press 'space' when you see 3-back (i.e. the same letter as the one that appeared 3 letters ago.),f,None,,,,,,,,,0,8,8,8,0,4,4,4,,,,,,,,,,,,,,,,,,,,,,,,,,,,,,,,,,,,,,,,,,,,,,,,,,,,,,,,,,,,,,,,,,,,,1.909,601.5520087,None,None,1,601.5520087,None,,P031,FENCOG,1,Post,2022_Mar_29_1208,N-Back (New Version 2021),2021.1.4,120.1181001
,,,,Conditions/Version_1/threeback(3)_v1.xlsx,New rule: Press 'space' when you see 3-back (i.e. the same letter as the one that appeared 3 letters ago.),o,None,,,,,,,,,0,8,8,8,0,5,5,5,,,,,,,,,,,,,,,,,,,,,,,,,,,,,,,,,,,,,,,,,,,,,,,,,,,,,,,,,,,,,,,,,,,,,1.2766,604.8344218,None,None,1,604.8344218,None,,P031,FENCOG,1,Post,2022_Mar_29_1208,N-Back (New Version 2021),2021.1.4,120.1181001
,,,,Conditions/Version_1/threeback(3)_v1.xlsx,New rule: Press 'space' when you see 3-back (i.e. the same letter as the one that appeared 3 letters ago.),w,None,,,,,,,,,0,8,8,8,0,6,6,6,,,,,,,,,,,,,,,,,,,,,,,,,,,,,,,,,,,,,,,,,,,,,,,,,,,,,,,,,,,,,,,,,,,,,1.6796,608.5188505,None,None,1,608.5188505,None,,P031,FENCOG,1,Post,2022_Mar_29_1208,N-Back (New Version 2021),2021.1.4,120.1181001
,,,,Conditions/Version_1/threeback(3)_v1.xlsx,New rule: Press 'space' when you see 3-back (i.e. the same letter as the one that appeared 3 letters ago.),F,space,,,,,,,,,0,8,8,8,0,7,7,7,,,,,,,,,,,,,,,,,,,,,,,,,,,,,,,,,,,,,,,,,,,,,,,,,,,,,,,,,,,,,,,,,,,,,1.599,612.1257826,None,space,1,612.1257826,None,0.6465005,P031,FENCOG,1,Post,2022_Mar_29_1208,N-Back (New Version 2021),2021.1.4,120.1181001
,,,,Conditions/Version_1/threeback(3)_v1.xlsx,New rule: Press 'space' when you see 3-back (i.e. the same letter as the one that appeared 3 letters ago.),p,None,,,,,,,,,0,8,8,8,0,8,8,8,,,,,,,,,,,,,,,,,,,,,,,,,,,,,,,,,,,,,,,,,,,,,,,,,,,,,,,,,,,,,,,,,,,,,1.816,615.9477218,None,None,1,615.9477218,None,,P031,FENCOG,1,Post,2022_Mar_29_1208,N-Back (New Version 2021),2021.1.4,120.1181001
,,,,Conditions/Version_1/threeback(3)_v1.xlsx,New rule: Press 'space' when you see 3-back (i.e. the same letter as the one that appeared 3 letters ago.),W,space,,,,,,,,,0,8,8,8,0,9,9,9,,,,,,,,,,,,,,,,,,,,,,,,,,,,,,,,,,,,,,,,,,,,,,,,,,,,,,,,,,,,,,,,,,,,,1.072,619.0220049,None,space,1,619.0220049,None,0.5744077,P031,FENCOG,1,Post,2022_Mar_29_1208,N-Back (New Version 2021),2021.1.4,120.1181001
,,,,Conditions/Version_1/threeback(3)_v1.xlsx,New rule: Press 'space' when you see 3-back (i.e. the same letter as the one that appeared 3 letters ago.),,,,,,,,,,,0,8,8,8,,,,,,,,,,,,,,,,,,,,,,,,,,,,,,,,,,,,,,,,,,,,,,,,,,,,,,,,,,,,,,,,,,,,,,,,,,,,,,,,,P031,FENCOG,1,Post,2022_Mar_29_1208,N-Back (New Version 2021),2021.1.4,120.1181001
,,,,Conditions/Version_1/zeroback(3)_v1.xlsx,New rule: Press 'space' when you see the letter 'x' or 'X'.,X,space,,,,,,,,,0,9,9,9,0,0,0,0,,,,,,,,,,,,,,,,,,,,,,,,,,,,,,,,,,,,,,,,,,,,,,,,,,,,,,,,,,,621.0408225,None,624.0318136,None,space,0.3725211,624.0318136,None,621.0408225,None,1.3448,625.7782472,None,space,1,625.7782472,None,0.3300494,P031,FENCOG,1,Post,2022_Mar_29_1208,N-Back (New Version 2021),2021.1.4,120.1181001
,,,,Conditions/Version_1/zeroback(3)_v1.xlsx,New rule: Press 'space' when you see the letter 'x' or 'X'.,B,None,,,,,,,,,0,9,9,9,0,1,1,1,,,,,,,,,,,,,,,,,,,,,,,,,,,,,,,,,,,,,,,,,,,,,,,,,,,,,,,,,,,,,,,,,,,,,1.2518,629.037825,None,None,1,629.037825,None,,P031,FENCOG,1,Post,2022_Mar_29_1208,N-Back (New Version 2021),2021.1.4,120.1181001
,,,,Conditions/Version_1/zeroback(3)_v1.xlsx,New rule: Press 'space' when you see the letter 'x' or 'X'.,m,None,,,,,,,,,0,9,9,9,0,2,2,2,,,,,,,,,,,,,,,,,,,,,,,,,,,,,,,,,,,,,,,,,,,,,,,,,,,,,,,,,,,,,,,,,,,,,1.9214,632.9677897,None,None,1,632.9677897,None,,P031,FENCOG,1,Post,2022_Mar_29_1208,N-Back (New Version 2021),2021.1.4,120.1181001
,,,,Conditions/Version_1/zeroback(3)_v1.xlsx,New rule: Press 'space' when you see the letter 'x' or 'X'.,m,None,,,,,,,,,0,9,9,9,0,3,3,3,,,,,,,,,,,,,,,,,,,,,,,,,,,,,,,,,,,,,,,,,,,,,,,,,,,,,,,,,,,,,,,,,,,,,1.3262,636.300283,None,None,1,636.300283,None,,P031,FENCOG,1,Post,2022_Mar_29_1208,N-Back (New Version 2021),2021.1.4,120.1181001
,,,,Conditions/Version_1/zeroback(3)_v1.xlsx,New rule: Press 'space' when you see the letter 'x' or 'X'.,o,None,,,,,,,,,0,9,9,9,0,4,4,4,,,,,,,,,,,,,,,,,,,,,,,,,,,,,,,,,,,,,,,,,,,,,,,,,,,,,,,,,,,,,,,,,,,,,1.506,639.8073442,None,None,1,639.8073442,None,,P031,FENCOG,1,Post,2022_Mar_29_1208,N-Back (New Version 2021),2021.1.4,120.1181001
,,,,Conditions/Version_1/zeroback(3)_v1.xlsx,New rule: Press 'space' when you see the letter 'x' or 'X'.,p,None,,,,,,,,,0,9,9,9,0,5,5,5,,,,,,,,,,,,,,,,,,,,,,,,,,,,,,,,,,,,,,,,,,,,,,,,,,,,,,,,,,,,,,,,,,,,,1.0906,642.9004244,None,None,1,642.9004244,None,,P031,FENCOG,1,Post,2022_Mar_29_1208,N-Back (New Version 2021),2021.1.4,120.1181001
,,,,Conditions/Version_1/zeroback(3)_v1.xlsx,New rule: Press 'space' when you see the letter 'x' or 'X'.,G,None,,,,,,,,,0,9,9,9,0,6,6,6,,,,,,,,,,,,,,,,,,,,,,,,,,,,,,,,,,,,,,,,,,,,,,,,,,,,,,,,,,,,,,,,,,,,,1.6858,646.5970715,None,None,1,646.5970715,None,,P031,FENCOG,1,Post,2022_Mar_29_1208,N-Back (New Version 2021),2021.1.4,120.1181001
,,,,Conditions/Version_1/zeroback(3)_v1.xlsx,New rule: Press 'space' when you see the letter 'x' or 'X'.,X,space,,,,,,,,,0,9,9,9,0,7,7,7,,,,,,,,,,,,,,,,,,,,,,,,,,,,,,,,,,,,,,,,,,,,,,,,,,,,,,,,,,,,,,,,,,,,,1.7664,650.3626298,None,space,1,650.3626298,None,0.3456508,P031,FENCOG,1,Post,2022_Mar_29_1208,N-Back (New Version 2021),2021.1.4,120.1181001
,,,,Conditions/Version_1/zeroback(3)_v1.xlsx,New rule: Press 'space' when you see the letter 'x' or 'X'.,p,None,,,,,,,,,0,9,9,9,0,8,8,8,,,,,,,,,,,,,,,,,,,,,,,,,,,,,,,,,,,,,,,,,,,,,,,,,,,,,,,,,,,,,,,,,,,,,1.3944,653.7635878,None,None,1,653.7635878,None,,P031,FENCOG,1,Post,2022_Mar_29_1208,N-Back (New Version 2021),2021.1.4,120.1181001
,,,,Conditions/Version_1/zeroback(3)_v1.xlsx,New rule: Press 'space' when you see the letter 'x' or 'X'.,x,space,,,,,,,,,0,9,9,9,0,9,9,9,,,,,,,,,,,,,,,,,,,,,,,,,,,,,,,,,,,,,,,,,,,,,,,,,,,,,,,,,,,,,,,,,,,,,1.1278,656.9024984,None,space,1,656.9024984,None,0.3659017,P031,FENCOG,1,Post,2022_Mar_29_1208,N-Back (New Version 2021),2021.1.4,120.1181001
,,,,Conditions/Version_1/zeroback(3)_v1.xlsx,New rule: Press 'space' when you see the letter 'x' or 'X'.,,,,,,,,,,,0,9,9,9,,,,,,,,,,,,,,,,,,,,,,,,,,,,,,,,,,,,,,,,,,,,,,,,,,,,,,,,,,,,,,,,,,,,,,,,,,,,,,,,,P031,FENCOG,1,Post,2022_Mar_29_1208,N-Back (New Version 2021),2021.1.4,120.1181001
,,,,Conditions/Version_1/twoback(3)_v1.xlsx,New rule: Press 'space' when you see 2-back (i.e. the same letter as the one that appeared 2 letters ago.),e,None,,,,,,,,,0,10,10,10,0,0,0,0,,,,,,,,,,,,,,,,,,,,,,,,,,,,,,,,,,,,,,,,,,,,,,,,,,,,,,,,,,,658.9248266,None,661.9114854,None,space,4.8690197,661.9114854,None,658.9248266,None,1.9958,668.7997754,None,None,1,668.7997754,None,,P031,FENCOG,1,Post,2022_Mar_29_1208,N-Back (New Version 2021),2021.1.4,120.1181001
,,,,Conditions/Version_1/twoback(3)_v1.xlsx,New rule: Press 'space' when you see 2-back (i.e. the same letter as the one that appeared 2 letters ago.),o,None,,,,,,,,,0,10,10,10,0,1,1,1,,,,,,,,,,,,,,,,,,,,,,,,,,,,,,,,,,,,,,,,,,,,,,,,,,,,,,,,,,,,,,,,,,,,,1.661,672.4727648,None,None,1,672.4727648,None,,P031,FENCOG,1,Post,2022_Mar_29_1208,N-Back (New Version 2021),2021.1.4,120.1181001
,,,,Conditions/Version_1/twoback(3)_v1.xlsx,New rule: Press 'space' when you see 2-back (i.e. the same letter as the one that appeared 2 letters ago.),P,None,,,,,,,,,0,10,10,10,0,2,2,2,,,,,,,,,,,,,,,,,,,,,,,,,,,,,,,,,,,,,,,,,,,,,,,,,,,,,,,,,,,,,,,,,,,,,1.2518,675.7314944,None,None,1,675.7314944,None,,P031,FENCOG,1,Post,2022_Mar_29_1208,N-Back (New Version 2021),2021.1.4,120.1181001
,,,,Conditions/Version_1/twoback(3)_v1.xlsx,New rule: Press 'space' when you see 2-back (i.e. the same letter as the one that appeared 2 letters ago.),z,None,,,,,,,,,0,10,10,10,0,3,3,3,,,,,,,,,,,,,,,,,,,,,,,,,,,,,,,,,,,,,,,,,,,,,,,,,,,,,,,,,,,,,,,,,,,,,1.7044,679.448775,None,None,1,679.448775,None,,P031,FENCOG,1,Post,2022_Mar_29_1208,N-Back (New Version 2021),2021.1.4,120.1181001
,,,,Conditions/Version_1/twoback(3)_v1.xlsx,New rule: Press 'space' when you see 2-back (i.e. the same letter as the one that appeared 2 letters ago.),X,None,,,,,,,,,0,10,10,10,0,4,4,4,,,,,,,,,,,,,,,,,,,,,,,,,,,,,,,,,,,,,,,,,,,,,,,,,,,,,,,,,,,,,,,,,,,,,1.134,682.5872078,None,None,1,682.5872078,None,,P031,FENCOG,1,Post,2022_Mar_29_1208,N-Back (New Version 2021),2021.1.4,120.1181001
,,,,Conditions/Version_1/twoback(3)_v1.xlsx,New rule: Press 'space' when you see 2-back (i.e. the same letter as the one that appeared 2 letters ago.),z,space,,,,,,,,,0,10,10,10,0,5,5,5,,,,,,,,,,,,,,,,,,,,,,,,,,,,,,,,,,,,,,,,,,,,,,,,,,,,,,,,,,,,,,,,,,,,,1.103,685.7029004,None,space,1,685.7029004,None,0.7575303,P031,FENCOG,1,Post,2022_Mar_29_1208,N-Back (New Version 2021),2021.1.4,120.1181001
,,,,Conditions/Version_1/twoback(3)_v1.xlsx,New rule: Press 'space' when you see 2-back (i.e. the same letter as the one that appeared 2 letters ago.),x,space,,,,,,,,,0,10,10,10,0,6,6,6,,,,,,,,,,,,,,,,,,,,,,,,,,,,,,,,,,,,,,,,,,,,,,,,,,,,,,,,,,,,,,,,,,,,,1.6114,689.3261378,None,space,1,689.3261378,None,0.630365,P031,FENCOG,1,Post,2022_Mar_29_1208,N-Back (New Version 2021),2021.1.4,120.1181001
,,,,Conditions/Version_1/twoback(3)_v1.xlsx,New rule: Press 'space' when you see 2-back (i.e. the same letter as the one that appeared 2 letters ago.),c,None,,,,,,,,,0,10,10,10,0,7,7,7,,,,,,,,,,,,,,,,,,,,,,,,,,,,,,,,,,,,,,,,,,,,,,,,,,,,,,,,,,,,,,,,,,,,,1.506,692.8333588,None,None,1,692.8333588,None,,P031,FENCOG,1,Post,2022_Mar_29_1208,N-Back (New Version 2021),2021.1.4,120.1181001
,,,,Conditions/Version_1/twoback(3)_v1.xlsx,New rule: Press 'space' when you see 2-back (i.e. the same letter as the one that appeared 2 letters ago.),i,None,,,,,,,,,0,10,10,10,0,8,8,8,,,,,,,,,,,,,,,,,,,,,,,,,,,,,,,,,,,,,,,,,,,,,,,,,,,,,,,,,,,,,,,,,,,,,1.165,695.9997193,None,None,1,695.9997193,None,,P031,FENCOG,1,Post,2022_Mar_29_1208,N-Back (New Version 2021),2021.1.4,120.1181001
,,,,Conditions/Version_1/twoback(3)_v1.xlsx,New rule: Press 'space' when you see 2-back (i.e. the same letter as the one that appeared 2 letters ago.),C,space,,,,,,,,,0,10,10,10,0,9,9,9,,,,,,,,,,,,,,,,,,,,,,,,,,,,,,,,,,,,,,,,,,,,,,,,,,,,,,,,,,,,,,,,,,,,,1.196,699.2064879,None,space,1,699.2064879,None,0.4220663,P031,FENCOG,1,Post,2022_Mar_29_1208,N-Back (New Version 2021),2021.1.4,120.1181001
,,,,Conditions/Version_1/twoback(3)_v1.xlsx,New rule: Press 'space' when you see 2-back (i.e. the same letter as the one that appeared 2 letters ago.),,,,,,,,,,,0,10,10,10,,,,,,,,,,,,,,,,,,,,,,,,,,,,,,,,,,,,,,,,,,,,,,,,,,,,,,,,,,,,,,,,,,,,,,,,,,,,,,,,,P031,FENCOG,1,Post,2022_Mar_29_1208,N-Back (New Version 2021),2021.1.4,120.1181001
,,,,Conditions/Version_1/oneback(3)_v1.xlsx,New rule: Press 'space' when you see 1-back (i.e. the same letter as the one that appeared 1 letter ago.),o,None,,,,,,,,,0,11,11,11,0,0,0,0,,,,,,,,,,,,,,,,,,,,,,,,,,,,,,,,,,,,,,,,,,,,,,,,,,,,,,,,,,,701.2285729,None,704.2159358,None,space,0.4045407,704.2159358,None,701.2285729,None,1.1154,705.7724514,None,None,1,705.7724514,None,,P031,FENCOG,1,Post,2022_Mar_29_1208,N-Back (New Version 2021),2021.1.4,120.1181001
,,,,Conditions/Version_1/oneback(3)_v1.xlsx,New rule: Press 'space' when you see 1-back (i.e. the same letter as the one that appeared 1 letter ago.),O,space,,,,,,,,,0,11,11,11,0,1,1,1,,,,,,,,,,,,,,,,,,,,,,,,,,,,,,,,,,,,,,,,,,,,,,,,,,,,,,,,,,,,,,,,,,,,,1.289,709.0719506,None,space,1,709.0719506,None,0.3084135,P031,FENCOG,1,Post,2022_Mar_29_1208,N-Back (New Version 2021),2021.1.4,120.1181001
,,,,Conditions/Version_1/oneback(3)_v1.xlsx,New rule: Press 'space' when you see 1-back (i.e. the same letter as the one that appeared 1 letter ago.),h,None,,,,,,,,,0,11,11,11,0,2,2,2,,,,,,,,,,,,,,,,,,,,,,,,,,,,,,,,,,,,,,,,,,,,,,,,,,,,,,,,,,,,,,,,,,,,,1.9152,712.9940925,None,None,1,712.9940925,None,,P031,FENCOG,1,Post,2022_Mar_29_1208,N-Back (New Version 2021),2021.1.4,120.1181001
,,,,Conditions/Version_1/oneback(3)_v1.xlsx,New rule: Press 'space' when you see 1-back (i.e. the same letter as the one that appeared 1 letter ago.),g,None,,,,,,,,,0,11,11,11,0,3,3,3,,,,,,,,,,,,,,,,,,,,,,,,,,,,,,,,,,,,,,,,,,,,,,,,,,,,,,,,,,,,,,,,,,,,,1.7602,716.759675,None,None,1,716.759675,None,,P031,FENCOG,1,Post,2022_Mar_29_1208,N-Back (New Version 2021),2021.1.4,120.1181001
,,,,Conditions/Version_1/oneback(3)_v1.xlsx,New rule: Press 'space' when you see 1-back (i.e. the same letter as the one that appeared 1 letter ago.),n,None,,,,,,,,,0,11,11,11,0,4,4,4,,,,,,,,,,,,,,,,,,,,,,,,,,,,,,,,,,,,,,,,,,,,,,,,,,,,,,,,,,,,,,,,,,,,,1.475,720.2337084,None,None,1,720.2337084,None,,P031,FENCOG,1,Post,2022_Mar_29_1208,N-Back (New Version 2021),2021.1.4,120.1181001
,,,,Conditions/Version_1/oneback(3)_v1.xlsx,New rule: Press 'space' when you see 1-back (i.e. the same letter as the one that appeared 1 letter ago.),z,None,,,,,,,,,0,11,11,11,0,5,5,5,,,,,,,,,,,,,,,,,,,,,,,,,,,,,,,,,,,,,,,,,,,,,,,,,,,,,,,,,,,,,,,,,,,,,1.3262,723.5659891,None,None,1,723.5659891,None,,P031,FENCOG,1,Post,2022_Mar_29_1208,N-Back (New Version 2021),2021.1.4,120.1181001
,,,,Conditions/Version_1/oneback(3)_v1.xlsx,New rule: Press 'space' when you see 1-back (i.e. the same letter as the one that appeared 1 letter ago.),X,None,,,,,,,,,0,11,11,11,0,6,6,6,,,,,,,,,,,,,,,,,,,,,,,,,,,,,,,,,,,,,,,,,,,,,,,,,,,,,,,,,,,,,,,,,,,,,1.2084,726.7745204,None,None,1,726.7745204,None,,P031,FENCOG,1,Post,2022_Mar_29_1208,N-Back (New Version 2021),2021.1.4,120.1181001
,,,,Conditions/Version_1/oneback(3)_v1.xlsx,New rule: Press 'space' when you see 1-back (i.e. the same letter as the one that appeared 1 letter ago.),r,None,,,,,,,,,0,11,11,11,0,7,7,7,,,,,,,,,,,,,,,,,,,,,,,,,,,,,,,,,,,,,,,,,,,,,,,,,,,,,,,,,,,,,,,,,,,,,1.0348,729.8224421,None,None,1,729.8224421,None,,P031,FENCOG,1,Post,2022_Mar_29_1208,N-Back (New Version 2021),2021.1.4,120.1181001
,,,,Conditions/Version_1/oneback(3)_v1.xlsx,New rule: Press 'space' when you see 1-back (i.e. the same letter as the one that appeared 1 letter ago.),r,space,,,,,,,,,0,11,11,11,0,8,8,8,,,,,,,,,,,,,,,,,,,,,,,,,,,,,,,,,,,,,,,,,,,,,,,,,,,,,,,,,,,,,,,,,,,,,1.8408,733.6631897,None,space,1,733.6631897,None,0.4611958,P031,FENCOG,1,Post,2022_Mar_29_1208,N-Back (New Version 2021),2021.1.4,120.1181001
,,,,Conditions/Version_1/oneback(3)_v1.xlsx,New rule: Press 'space' when you see 1-back (i.e. the same letter as the one that appeared 1 letter ago.),P,None,,,,,,,,,0,11,11,11,0,9,9,9,,,,,,,,,,,,,,,,,,,,,,,,,,,,,,,,,,,,,,,,,,,,,,,,,,,,,,,,,,,,,,,,,,,,,1.4254,737.126242,None,None,1,737.126242,None,,P031,FENCOG,1,Post,2022_Mar_29_1208,N-Back (New Version 2021),2021.1.4,120.1181001
,,,,Conditions/Version_1/oneback(3)_v1.xlsx,New rule: Press 'space' when you see 1-back (i.e. the same letter as the one that appeared 1 letter ago.),,,,,,,,,,,0,11,11,11,,,,,,,,,,,,,,,,,,,,,,,,,,,,,,,,,,,,,,,,,,,,,,,,,,,,,,,,,,,,,,,,,,,,,,,,,,,,,,,,,P031,FENCOG,1,Post,2022_Mar_29_1208,N-Back (New Version 2021),2021.1.4,120.1181001
,,,,Conditions/Version_1/twoback(4)_v1.xlsx,New rule: Press 'space' when you see 2-back (i.e. the same letter as the one that appeared 2 letters ago.),r,None,,,,,,,,,0,12,12,12,0,0,0,0,,,,,,,,,,,,,,,,,,,,,,,,,,,,,,,,,,,,,,,,,,,,,,,,,,,,,,,,,,,739.1186167,None,742.0955837,None,space,0.6366293,742.0955837,None,739.1186167,None,1.7354,744.4932623,None,None,1,744.4932623,None,,P031,FENCOG,1,Post,2022_Mar_29_1208,N-Back (New Version 2021),2021.1.4,120.1181001
,,,,Conditions/Version_1/twoback(4)_v1.xlsx,New rule: Press 'space' when you see 2-back (i.e. the same letter as the one that appeared 2 letters ago.),T,None,,,,,,,,,0,12,12,12,0,1,1,1,,,,,,,,,,,,,,,,,,,,,,,,,,,,,,,,,,,,,,,,,,,,,,,,,,,,,,,,,,,,,,,,,,,,,1.7168,748.2098025,None,None,1,748.2098025,None,,P031,FENCOG,1,Post,2022_Mar_29_1208,N-Back (New Version 2021),2021.1.4,120.1181001
,,,,Conditions/Version_1/twoback(4)_v1.xlsx,New rule: Press 'space' when you see 2-back (i.e. the same letter as the one that appeared 2 letters ago.),o,None,,,,,,,,,0,12,12,12,0,2,2,2,,,,,,,,,,,,,,,,,,,,,,,,,,,,,,,,,,,,,,,,,,,,,,,,,,,,,,,,,,,,,,,,,,,,,1.3572,751.5744505,None,None,1,751.5744505,None,,P031,FENCOG,1,Post,2022_Mar_29_1208,N-Back (New Version 2021),2021.1.4,120.1181001
,,,,Conditions/Version_1/twoback(4)_v1.xlsx,New rule: Press 'space' when you see 2-back (i.e. the same letter as the one that appeared 2 letters ago.),p,None,,,,,,,,,0,12,12,12,0,3,3,3,,,,,,,,,,,,,,,,,,,,,,,,,,,,,,,,,,,,,,,,,,,,,,,,,,,,,,,,,,,,,,,,,,,,,1.3262,754.9081931,None,None,1,754.9081931,None,,P031,FENCOG,1,Post,2022_Mar_29_1208,N-Back (New Version 2021),2021.1.4,120.1181001
,,,,Conditions/Version_1/twoback(4)_v1.xlsx,New rule: Press 'space' when you see 2-back (i.e. the same letter as the one that appeared 2 letters ago.),p,None,,,,,,,,,0,12,12,12,0,4,4,4,,,,,,,,,,,,,,,,,,,,,,,,,,,,,,,,,,,,,,,,,,,,,,,,,,,,,,,,,,,,,,,,,,,,,1.9462,758.8640652,None,None,1,758.8640652,None,,P031,FENCOG,1,Post,2022_Mar_29_1208,N-Back (New Version 2021),2021.1.4,120.1181001
,,,,Conditions/Version_1/twoback(4)_v1.xlsx,New rule: Press 'space' when you see 2-back (i.e. the same letter as the one that appeared 2 letters ago.),y,None,,,,,,,,,0,12,12,12,0,5,5,5,,,,,,,,,,,,,,,,,,,,,,,,,,,,,,,,,,,,,,,,,,,,,,,,,,,,,,,,,,,,,,,,,,,,,1.2952,762.1703195,None,None,1,762.1703195,None,,P031,FENCOG,1,Post,2022_Mar_29_1208,N-Back (New Version 2021),2021.1.4,120.1181001
,,,,Conditions/Version_1/twoback(4)_v1.xlsx,New rule: Press 'space' when you see 2-back (i.e. the same letter as the one that appeared 2 letters ago.),P,space,,,,,,,,,0,12,12,12,0,6,6,6,,,,,,,,,,,,,,,,,,,,,,,,,,,,,,,,,,,,,,,,,,,,,,,,,,,,,,,,,,,,,,,,,,,,,1.94,766.1121286,None,space,1,766.1121286,None,0.5962108,P031,FENCOG,1,Post,2022_Mar_29_1208,N-Back (New Version 2021),2021.1.4,120.1181001
,,,,Conditions/Version_1/twoback(4)_v1.xlsx,New rule: Press 'space' when you see 2-back (i.e. the same letter as the one that appeared 2 letters ago.),y,None,,,,,,,,,0,12,12,12,0,7,7,7,,,,,,,,,,,,,,,,,,,,,,,,,,,,,,,,,,,,,,,,,,,,,,,,,,,,,,,,,,,,,,,,,,,,,1.3634,769.4775126,None,space,0,769.4775126,None,0.7510373,P031,FENCOG,1,Post,2022_Mar_29_1208,N-Back (New Version 2021),2021.1.4,120.1181001
,,,,Conditions/Version_1/twoback(4)_v1.xlsx,New rule: Press 'space' when you see 2-back (i.e. the same letter as the one that appeared 2 letters ago.),y,space,,,,,,,,,0,12,12,12,0,8,8,8,,,,,,,,,,,,,,,,,,,,,,,,,,,,,,,,,,,,,,,,,,,,,,,,,,,,,,,,,,,,,,,,,,,,,1.0162,772.4933116,None,None,0,772.4933116,None,,P031,FENCOG,1,Post,2022_Mar_29_1208,N-Back (New Version 2021),2021.1.4,120.1181001
,,,,Conditions/Version_1/twoback(4)_v1.xlsx,New rule: Press 'space' when you see 2-back (i.e. the same letter as the one that appeared 2 letters ago.),,,,,,,,,,,0,12,12,12,,,,,,,,,,,,,,,,,,,,,,,,,,,,,,,,,,,,,,,,,,,,,,,,,,,,,,,,,,,,,,,,,,,,,,,,,,,,,,,,,P031,FENCOG,1,Post,2022_Mar_29_1208,N-Back (New Version 2021),2021.1.4,120.1181001
,,,,Conditions/Version_1/zeroback(4)_v1.xlsx,New rule: Press 'space' when you see the letter 'x' or 'X'.,o,None,,,,,,,,,0,13,13,13,0,0,0,0,,,,,,,,,,,,,,,,,,,,,,,,,,,,,,,,,,,,,,,,,,,,,,,,,,,,,,,,,,,774.5081483,None,777.4938813,None,space,0.318337,777.4938813,None,774.5081483,None,1.6052,779.450795,None,None,1,779.450795,None,,P031,FENCOG,1,Post,2022_Mar_29_1208,N-Back (New Version 2021),2021.1.4,120.1181001
,,,,Conditions/Version_1/zeroback(4)_v1.xlsx,New rule: Press 'space' when you see the letter 'x' or 'X'.,X,space,,,,,,,,,0,13,13,13,0,1,1,1,,,,,,,,,,,,,,,,,,,,,,,,,,,,,,,,,,,,,,,,,,,,,,,,,,,,,,,,,,,,,,,,,,,,,1.3882,782.8485882,None,space,1,782.8485882,None,0.3236681,P031,FENCOG,1,Post,2022_Mar_29_1208,N-Back (New Version 2021),2021.1.4,120.1181001
,,,,Conditions/Version_1/zeroback(4)_v1.xlsx,New rule: Press 'space' when you see the letter 'x' or 'X'.,p,None,,,,,,,,,0,13,13,13,0,2,2,2,,,,,,,,,,,,,,,,,,,,,,,,,,,,,,,,,,,,,,,,,,,,,,,,,,,,,,,,,,,,,,,,,,,,,1.1588,786.0059131,None,None,1,786.0059131,None,,P031,FENCOG,1,Post,2022_Mar_29_1208,N-Back (New Version 2021),2021.1.4,120.1181001
,,,,Conditions/Version_1/zeroback(4)_v1.xlsx,New rule: Press 'space' when you see the letter 'x' or 'X'.,m,None,,,,,,,,,0,13,13,13,0,3,3,3,,,,,,,,,,,,,,,,,,,,,,,,,,,,,,,,,,,,,,,,,,,,,,,,,,,,,,,,,,,,,,,,,,,,,1.6672,789.671633,None,None,1,789.671633,None,,P031,FENCOG,1,Post,2022_Mar_29_1208,N-Back (New Version 2021),2021.1.4,120.1181001
,,,,Conditions/Version_1/zeroback(4)_v1.xlsx,New rule: Press 'space' when you see the letter 'x' or 'X'.,n,None,,,,,,,,,0,13,13,13,0,4,4,4,,,,,,,,,,,,,,,,,,,,,,,,,,,,,,,,,,,,,,,,,,,,,,,,,,,,,,,,,,,,,,,,,,,,,1.847,793.5203048,None,None,1,793.5203048,None,,P031,FENCOG,1,Post,2022_Mar_29_1208,N-Back (New Version 2021),2021.1.4,120.1181001
,,,,Conditions/Version_1/zeroback(4)_v1.xlsx,New rule: Press 'space' when you see the letter 'x' or 'X'.,m,None,,,,,,,,,0,13,13,13,0,5,5,5,,,,,,,,,,,,,,,,,,,,,,,,,,,,,,,,,,,,,,,,,,,,,,,,,,,,,,,,,,,,,,,,,,,,,1.3696,796.8943239,None,None,1,796.8943239,None,,P031,FENCOG,1,Post,2022_Mar_29_1208,N-Back (New Version 2021),2021.1.4,120.1181001
,,,,Conditions/Version_1/zeroback(4)_v1.xlsx,New rule: Press 'space' when you see the letter 'x' or 'X'.,C,None,,,,,,,,,0,13,13,13,0,6,6,6,,,,,,,,,,,,,,,,,,,,,,,,,,,,,,,,,,,,,,,,,,,,,,,,,,,,,,,,,,,,,,,,,,,,,1.4254,800.3189176,None,None,1,800.3189176,None,,P031,FENCOG,1,Post,2022_Mar_29_1208,N-Back (New Version 2021),2021.1.4,120.1181001
,,,,Conditions/Version_1/zeroback(4)_v1.xlsx,New rule: Press 'space' when you see the letter 'x' or 'X'.,m,None,,,,,,,,,0,13,13,13,0,7,7,7,,,,,,,,,,,,,,,,,,,,,,,,,,,,,,,,,,,,,,,,,,,,,,,,,,,,,,,,,,,,,,,,,,,,,1.6114,803.9422268,None,None,1,803.9422268,None,,P031,FENCOG,1,Post,2022_Mar_29_1208,N-Back (New Version 2021),2021.1.4,120.1181001
,,,,Conditions/Version_1/zeroback(4)_v1.xlsx,New rule: Press 'space' when you see the letter 'x' or 'X'.,p,None,,,,,,,,,0,13,13,13,0,8,8,8,,,,,,,,,,,,,,,,,,,,,,,,,,,,,,,,,,,,,,,,,,,,,,,,,,,,,,,,,,,,,,,,,,,,,1.3138,807.2578977,None,None,1,807.2578977,None,,P031,FENCOG,1,Post,2022_Mar_29_1208,N-Back (New Version 2021),2021.1.4,120.1181001
,,,,Conditions/Version_1/zeroback(4)_v1.xlsx,New rule: Press 'space' when you see the letter 'x' or 'X'.,X,space,,,,,,,,,0,13,13,13,0,9,9,9,,,,,,,,,,,,,,,,,,,,,,,,,,,,,,,,,,,,,,,,,,,,,,,,,,,,,,,,,,,,,,,,,,,,,1.5308,810.7911201,None,space,1,810.7911201,None,0.3491098,P031,FENCOG,1,Post,2022_Mar_29_1208,N-Back (New Version 2021),2021.1.4,120.1181001
,,,,Conditions/Version_1/zeroback(4)_v1.xlsx,New rule: Press 'space' when you see the letter 'x' or 'X'.,,,,,,,,,,,0,13,13,13,,,,,,,,,,,,,,,,,,,,,,,,,,,,,,,,,,,,,,,,,,,,,,,,,,,,,,,,,,,,,,,,,,,,,,,,,,,,,,,,,P031,FENCOG,1,Post,2022_Mar_29_1208,N-Back (New Version 2021),2021.1.4,120.1181001
,,,,Conditions/Version_1/oneback(4)_v1.xlsx,New rule: Press 'space' when you see 1-back (i.e. the same letter as the one that appeared 1 letter ago.),w,None,,,,,,,,,0,14,14,14,0,0,0,0,,,,,,,,,,,,,,,,,,,,,,,,,,,,,,,,,,,,,,,,,,,,,,,,,,,,,,,,,,,812.8204913,None,815.8076823,None,space,0.852584,815.8076823,None,812.8204913,None,1.9524,818.6389976,None,None,1,818.6389976,None,,P031,FENCOG,1,Post,2022_Mar_29_1208,N-Back (New Version 2021),2021.1.4,120.1181001
,,,,Conditions/Version_1/oneback(4)_v1.xlsx,New rule: Press 'space' when you see 1-back (i.e. the same letter as the one that appeared 1 letter ago.),q,None,,,,,,,,,0,14,14,14,0,1,1,1,,,,,,,,,,,,,,,,,,,,,,,,,,,,,,,,,,,,,,,,,,,,,,,,,,,,,,,,,,,,,,,,,,,,,1.2952,821.9454176,None,None,1,821.9454176,None,,P031,FENCOG,1,Post,2022_Mar_29_1208,N-Back (New Version 2021),2021.1.4,120.1181001
,,,,Conditions/Version_1/oneback(4)_v1.xlsx,New rule: Press 'space' when you see 1-back (i.e. the same letter as the one that appeared 1 letter ago.),i,None,,,,,,,,,0,14,14,14,0,2,2,2,,,,,,,,,,,,,,,,,,,,,,,,,,,,,,,,,,,,,,,,,,,,,,,,,,,,,,,,,,,,,,,,,,,,,1.382,825.3275495,None,None,1,825.3275495,None,,P031,FENCOG,1,Post,2022_Mar_29_1208,N-Back (New Version 2021),2021.1.4,120.1181001
,,,,Conditions/Version_1/oneback(4)_v1.xlsx,New rule: Press 'space' when you see 1-back (i.e. the same letter as the one that appeared 1 letter ago.),t,None,,,,,,,,,0,14,14,14,0,3,3,3,,,,,,,,,,,,,,,,,,,,,,,,,,,,,,,,,,,,,,,,,,,,,,,,,,,,,,,,,,,,,,,,,,,,,1.878,829.2097576,None,None,1,829.2097576,None,,P031,FENCOG,1,Post,2022_Mar_29_1208,N-Back (New Version 2021),2021.1.4,120.1181001
,,,,Conditions/Version_1/oneback(4)_v1.xlsx,New rule: Press 'space' when you see 1-back (i.e. the same letter as the one that appeared 1 letter ago.),v,None,,,,,,,,,0,14,14,14,0,4,4,4,,,,,,,,,,,,,,,,,,,,,,,,,,,,,,,,,,,,,,,,,,,,,,,,,,,,,,,,,,,,,,,,,,,,,1.8966,833.1104448,None,None,1,833.1104448,None,,P031,FENCOG,1,Post,2022_Mar_29_1208,N-Back (New Version 2021),2021.1.4,120.1181001
,,,,Conditions/Version_1/oneback(4)_v1.xlsx,New rule: Press 'space' when you see 1-back (i.e. the same letter as the one that appeared 1 letter ago.),V,space,,,,,,,,,0,14,14,14,0,5,5,5,,,,,,,,,,,,,,,,,,,,,,,,,,,,,,,,,,,,,,,,,,,,,,,,,,,,,,,,,,,,,,,,,,,,,1.289,836.4108032,None,space,1,836.4108032,None,0.3452935,P031,FENCOG,1,Post,2022_Mar_29_1208,N-Back (New Version 2021),2021.1.4,120.1181001
,,,,Conditions/Version_1/oneback(4)_v1.xlsx,New rule: Press 'space' when you see 1-back (i.e. the same letter as the one that appeared 1 letter ago.),v,space,,,,,,,,,0,14,14,14,0,6,6,6,,,,,,,,,,,,,,,,,,,,,,,,,,,,,,,,,,,,,,,,,,,,,,,,,,,,,,,,,,,,,,,,,,,,,1.8532,840.2732152,None,space,1,840.2732152,None,0.3389238,P031,FENCOG,1,Post,2022_Mar_29_1208,N-Back (New Version 2021),2021.1.4,120.1181001
,,,,Conditions/Version_1/oneback(4)_v1.xlsx,New rule: Press 'space' when you see 1-back (i.e. the same letter as the one that appeared 1 letter ago.),p,None,,,,,,,,,0,14,14,14,0,7,7,7,,,,,,,,,,,,,,,,,,,,,,,,,,,,,,,,,,,,,,,,,,,,,,,,,,,,,,,,,,,,,,,,,,,,,1.4192,843.6971912,None,None,1,843.6971912,None,,P031,FENCOG,1,Post,2022_Mar_29_1208,N-Back (New Version 2021),2021.1.4,120.1181001
,,,,Conditions/Version_1/oneback(4)_v1.xlsx,New rule: Press 'space' when you see 1-back (i.e. the same letter as the one that appeared 1 letter ago.),w,None,,,,,,,,,0,14,14,14,0,8,8,8,,,,,,,,,,,,,,,,,,,,,,,,,,,,,,,,,,,,,,,,,,,,,,,,,,,,,,,,,,,,,,,,,,,,,1.1526,846.8553132,None,None,1,846.8553132,None,,P031,FENCOG,1,Post,2022_Mar_29_1208,N-Back (New Version 2021),2021.1.4,120.1181001
,,,,Conditions/Version_1/oneback(4)_v1.xlsx,New rule: Press 'space' when you see 1-back (i.e. the same letter as the one that appeared 1 letter ago.),W,space,,,,,,,,,0,14,14,14,0,9,9,9,,,,,,,,,,,,,,,,,,,,,,,,,,,,,,,,,,,,,,,,,,,,,,,,,,,,,,,,,,,,,,,,,,,,,1.692,850.5534902,None,space,1,850.5534902,None,0.5947991,P031,FENCOG,1,Post,2022_Mar_29_1208,N-Back (New Version 2021),2021.1.4,120.1181001
,,,,Conditions/Version_1/oneback(4)_v1.xlsx,New rule: Press 'space' when you see 1-back (i.e. the same letter as the one that appeared 1 letter ago.),,,,,,,,,,,0,14,14,14,,,,,,,,,,,,,,,,,,,,,,,,,,,,,,,,,,,,,,,,,,,,,,,,,,,,,,,,,,,,,,,,,,,,,,,,,,,,,,,,,P031,FENCOG,1,Post,2022_Mar_29_1208,N-Back (New Version 2021),2021.1.4,120.1181001
,,,,Conditions/Version_1/threeback(4)_v1.xlsx,New rule: Press 'space' when you see 3-back (i.e. the same letter as the one that appeared 3 letters ago.),A,None,,,,,,,,,0,15,15,15,0,0,0,0,,,,,,,,,,,,,,,,,,,,,,,,,,,,,,,,,,,,,,,,,,,,,,,,,,,,,,,,,,,852.575798,None,855.5620706,None,space,0.4980798,855.5620706,None,852.575798,None,1.8532,857.9451718,None,None,1,857.9451718,None,,P031,FENCOG,1,Post,2022_Mar_29_1208,N-Back (New Version 2021),2021.1.4,120.1181001
,,,,Conditions/Version_1/threeback(4)_v1.xlsx,New rule: Press 'space' when you see 3-back (i.e. the same letter as the one that appeared 3 letters ago.),n,None,,,,,,,,,0,15,15,15,0,1,1,1,,,,,,,,,,,,,,,,,,,,,,,,,,,,,,,,,,,,,,,,,,,,,,,,,,,,,,,,,,,,,,,,,,,,,1.7416,861.6938942,None,None,1,861.6938942,None,,P031,FENCOG,1,Post,2022_Mar_29_1208,N-Back (New Version 2021),2021.1.4,120.1181001
,,,,Conditions/Version_1/threeback(4)_v1.xlsx,New rule: Press 'space' when you see 3-back (i.e. the same letter as the one that appeared 3 letters ago.),g,None,,,,,,,,,0,15,15,15,0,2,2,2,,,,,,,,,,,,,,,,,,,,,,,,,,,,,,,,,,,,,,,,,,,,,,,,,,,,,,,,,,,,,,,,,,,,,1.4812,865.1834591,None,None,1,865.1834591,None,,P031,FENCOG,1,Post,2022_Mar_29_1208,N-Back (New Version 2021),2021.1.4,120.1181001
,,,,Conditions/Version_1/threeback(4)_v1.xlsx,New rule: Press 'space' when you see 3-back (i.e. the same letter as the one that appeared 3 letters ago.),A,space,,,,,,,,,0,15,15,15,0,3,3,3,,,,,,,,,,,,,,,,,,,,,,,,,,,,,,,,,,,,,,,,,,,,,,,,,,,,,,,,,,,,,,,,,,,,,1.9834,869.1730279,None,space,1,869.1730279,None,0.4392824,P031,FENCOG,1,Post,2022_Mar_29_1208,N-Back (New Version 2021),2021.1.4,120.1181001
,,,,Conditions/Version_1/threeback(4)_v1.xlsx,New rule: Press 'space' when you see 3-back (i.e. the same letter as the one that appeared 3 letters ago.),p,None,,,,,,,,,0,15,15,15,0,4,4,4,,,,,,,,,,,,,,,,,,,,,,,,,,,,,,,,,,,,,,,,,,,,,,,,,,,,,,,,,,,,,,,,,,,,,1.2022,872.3815136,None,None,1,872.3815136,None,,P031,FENCOG,1,Post,2022_Mar_29_1208,N-Back (New Version 2021),2021.1.4,120.1181001
,,,,Conditions/Version_1/threeback(4)_v1.xlsx,New rule: Press 'space' when you see 3-back (i.e. the same letter as the one that appeared 3 letters ago.),O,None,,,,,,,,,0,15,15,15,0,5,5,5,,,,,,,,,,,,,,,,,,,,,,,,,,,,,,,,,,,,,,,,,,,,,,,,,,,,,,,,,,,,,,,,,,,,,1.9772,876.3710519,None,None,1,876.3710519,None,,P031,FENCOG,1,Post,2022_Mar_29_1208,N-Back (New Version 2021),2021.1.4,120.1181001
,,,,Conditions/Version_1/threeback(4)_v1.xlsx,New rule: Press 'space' when you see 3-back (i.e. the same letter as the one that appeared 3 letters ago.),a,space,,,,,,,,,0,15,15,15,0,6,6,6,,,,,,,,,,,,,,,,,,,,,,,,,,,,,,,,,,,,,,,,,,,,,,,,,,,,,,,,,,,,,,,,,,,,,1.9028,880.2780775,None,space,1,880.2780775,None,0.6782047,P031,FENCOG,1,Post,2022_Mar_29_1208,N-Back (New Version 2021),2021.1.4,120.1181001
,,,,Conditions/Version_1/threeback(4)_v1.xlsx,New rule: Press 'space' when you see 3-back (i.e. the same letter as the one that appeared 3 letters ago.),p,space,,,,,,,,,0,15,15,15,0,7,7,7,,,,,,,,,,,,,,,,,,,,,,,,,,,,,,,,,,,,,,,,,,,,,,,,,,,,,,,,,,,,,,,,,,,,,1.1464,883.4281781,None,space,1,883.4281781,None,1.0481695,P031,FENCOG,1,Post,2022_Mar_29_1208,N-Back (New Version 2021),2021.1.4,120.1181001
,,,,Conditions/Version_1/threeback(4)_v1.xlsx,New rule: Press 'space' when you see 3-back (i.e. the same letter as the one that appeared 3 letters ago.),x,None,,,,,,,,,0,15,15,15,0,8,8,8,,,,,,,,,,,,,,,,,,,,,,,,,,,,,,,,,,,,,,,,,,,,,,,,,,,,,,,,,,,,,,,,,,,,,1.227,886.6686303,None,None,1,886.6686303,None,,P031,FENCOG,1,Post,2022_Mar_29_1208,N-Back (New Version 2021),2021.1.4,120.1181001
,,,,Conditions/Version_1/threeback(4)_v1.xlsx,New rule: Press 'space' when you see 3-back (i.e. the same letter as the one that appeared 3 letters ago.),X,None,,,,,,,,,0,15,15,15,0,9,9,9,,,,,,,,,,,,,,,,,,,,,,,,,,,,,,,,,,,,,,,,,,,,,,,,,,,,,,,,,,,,,,,,,,,,,1.6672,890.3426153,None,None,1,890.3426153,None,,P031,FENCOG,1,Post,2022_Mar_29_1208,N-Back (New Version 2021),2021.1.4,120.1181001
,,,,Conditions/Version_1/threeback(4)_v1.xlsx,New rule: Press 'space' when you see 3-back (i.e. the same letter as the one that appeared 3 letters ago.),,,,,,,,,,,0,15,15,15,,,,,,,,,,,,,,,,,,,,,,,,,,,,,,,,,,,,,,,,,,,,,,,,,,,,,,,,,,,,,,,,,,,,,,,,,,,,,,,,,P031,FENCOG,1,Post,2022_Mar_29_1208,N-Back (New Version 2021),2021.1.4,120.1181001
