CondFileP,InstructionsP,LettersDisplayedP,CorrectnessP,CondFile,Instructions,LettersDisplayed,Correctness,practicetrials.thisRepN,practicetrials.thisTrialN,practicetrials.thisN,practicetrials.thisIndex,InnerLoopPractice.thisRepN,InnerLoopPractice.thisTrialN,InnerLoopPractice.thisN,InnerLoopPractice.thisIndex,trials.thisRepN,trials.thisTrialN,trials.thisN,trials.thisIndex,InnerLoop.thisRepN,InnerLoop.thisTrialN,InnerLoop.thisN,InnerLoop.thisIndex,TaskVersionText.started,TaskVersionText.stopped,InstrKey1.keys,InstrKey1.rt,InstrKey1.started,InstrKey1.stopped,text.started,text.stopped,key_resp_4.keys,key_resp_4.rt,key_resp_4.started,key_resp_4.stopped,text_2.started,text_2.stopped,key_resp_3.keys,key_resp_3.rt,key_resp_3.started,key_resp_3.stopped,text_3.started,text_3.stopped,key_resp_2.keys,key_resp_2.rt,key_resp_2.started,key_resp_2.stopped,PractIn1.started,PractIn1.stopped,PractIn2.started,PractIn2.stopped,PractInstructionPass.keys,PractInstructionPass.rt,PractInstructionPass.started,PractInstructionPass.stopped,PractBlock1.started,PractBlock1.stopped,ISIjitterPractice,ISI_Pract_Fixation.started,ISI_Pract_Fixation.stopped,N_backP.started,N_backP.stopped,KeyPractice.keys,KeyPractice.corr,KeyPractice.rt,KeyPractice.started,KeyPractice.stopped,text_4.started,text_4.stopped,TransitionText.started,TransitionText.stopped,key_resp_6.keys,key_resp_6.rt,key_resp_6.started,key_resp_6.stopped,text_5.started,text_5.stopped,key_resp_5.keys,key_resp_5.rt,key_resp_5.started,key_resp_5.stopped,MainInt1.started,MainInt1.stopped,MainInt2.started,MainInt2.stopped,InstructionPass.keys,InstructionPass.rt,InstructionPass.started,InstructionPass.stopped,Blocks1.started,Blocks1.stopped,ISIjitter,N_backD.started,N_backD.stopped,key_resp.keys,key_resp.corr,key_resp.started,key_resp.stopped,key_resp.rt,participant,Study Name,Task Version (required to run),PRE/POST,date,expName,psychopyVersion,frameRate,
,,,,,,,,,,,,,,,,,,,,,,,,24.85469169996213,None,space,118.73166520002997,25.34737919998588,None,,,,,,,,,,,,,,,,,,,,,,,,,,,,,,,,,,,,,,,,,,,,,,,,,,,,,,,,,,,,,,,,,,,,,,,P031,FENCOG,2,Pre,2022_Mar_22_1134,N-Back (New Version 2021),2021.1.4,120.00350410106122,
,,,,,,,,,,,,,,,,,,,,,,,,,,,,,,144.10936140001286,None,space,7.61173659999622,144.59562669997104,None,,,,,,,,,,,,,,,,,,,,,,,,,,,,,,,,,,,,,,,,,,,,,,,,,,,,,,,,,,,,,,,,,P031,FENCOG,2,Pre,2022_Mar_22_1134,N-Back (New Version 2021),2021.1.4,120.00350410106122,
,,,,,,,,,,,,,,,,,,,,,,,,,,,,,,,,,,,,152.24493300000904,None,space,27.415080500009935,152.73604009998962,None,,,,,,,,,,,,,,,,,,,,,,,,,,,,,,,,,,,,,,,,,,,,,,,,,,,,,,,,,,,P031,FENCOG,2,Pre,2022_Mar_22_1134,N-Back (New Version 2021),2021.1.4,120.00350410106122,
,,,,,,,,,,,,,,,,,,,,,,,,,,,,,,,,,,,,,,,,,,180.17824879998807,None,space,8.63463149999734,180.6684183999896,None,,,,,,,,,,,,,,,,,,,,,,,,,,,,,,,,,,,,,,,,,,,,,,,,,,,,,P031,FENCOG,2,Pre,2022_Mar_22_1134,N-Back (New Version 2021),2021.1.4,120.00350410106122,
Conditions/Version_2Pr/zeroback(1)_v2.xlsx,Rule: Press 'space' when you see the letter 'x' or 'X'.,x,space,,,,,0,0,0,0,0,0,0,0,,,,,,,,,,,,,,,,,,,,,,,,,,,,,,,,,190.70633149996866,None,193.6903808999923,None,space,2.132875800016336,193.6903808999923,None,190.70633149996866,None,1.24,195.854974100017,None,197.09873379999772,None,space,1,0.28423839999595657,197.09873379999772,None,197.40239569998812,None,,,,,,,,,,,,,,,,,,,,,,,,,,,,,,,P031,FENCOG,2,Pre,2022_Mar_22_1134,N-Back (New Version 2021),2021.1.4,120.00350410106122,
Conditions/Version_2Pr/zeroback(1)_v2.xlsx,Rule: Press 'space' when you see the letter 'x' or 'X'.,R,None,,,,,0,0,0,0,0,1,1,1,,,,,,,,,,,,,,,,,,,,,,,,,,,,,,,,,,,,,,,,,,,1.565,198.90387480001664,None,200.47210559999803,None,None,1,,200.47210559999803,None,202.4774882000056,None,,,,,,,,,,,,,,,,,,,,,,,,,,,,,,,P031,FENCOG,2,Pre,2022_Mar_22_1134,N-Back (New Version 2021),2021.1.4,120.00350410106122,
Conditions/Version_2Pr/zeroback(1)_v2.xlsx,Rule: Press 'space' when you see the letter 'x' or 'X'.,p,None,,,,,0,0,0,0,0,2,2,2,,,,,,,,,,,,,,,,,,,,,,,,,,,,,,,,,,,,,,,,,,,1.89,203.9771982000093,None,205.86972570000216,None,None,1,,205.86972570000216,None,207.87610639998456,None,,,,,,,,,,,,,,,,,,,,,,,,,,,,,,,P031,FENCOG,2,Pre,2022_Mar_22_1134,N-Back (New Version 2021),2021.1.4,120.00350410106122,
Conditions/Version_2Pr/zeroback(1)_v2.xlsx,Rule: Press 'space' when you see the letter 'x' or 'X'.,O,None,,,,,0,0,0,0,0,3,3,3,,,,,,,,,,,,,,,,,,,,,,,,,,,,,,,,,,,,,,,,,,,1.59,209.37617629999295,None,210.966654799995,None,None,1,,210.966654799995,None,212.96861119999085,None,,,,,,,,,,,,,,,,,,,,,,,,,,,,,,,P031,FENCOG,2,Pre,2022_Mar_22_1134,N-Back (New Version 2021),2021.1.4,120.00350410106122,
Conditions/Version_2Pr/zeroback(1)_v2.xlsx,Rule: Press 'space' when you see the letter 'x' or 'X'.,i,None,,,,,0,0,0,0,0,4,4,4,,,,,,,,,,,,,,,,,,,,,,,,,,,,,,,,,,,,,,,,,,,1.815,214.47423509997316,None,216.29117069998756,None,None,1,,216.29117069998756,None,218.29818969999906,None,,,,,,,,,,,,,,,,,,,,,,,,,,,,,,,P031,FENCOG,2,Pre,2022_Mar_22_1134,N-Back (New Version 2021),2021.1.4,120.00350410106122,
Conditions/Version_2Pr/zeroback(1)_v2.xlsx,Rule: Press 'space' when you see the letter 'x' or 'X'.,U,None,,,,,0,0,0,0,0,5,5,5,,,,,,,,,,,,,,,,,,,,,,,,,,,,,,,,,,,,,,,,,,,1.79,219.79743370000506,None,221.58929309999803,None,None,1,,221.58929309999803,None,223.59648329997435,None,,,,,,,,,,,,,,,,,,,,,,,,,,,,,,,P031,FENCOG,2,Pre,2022_Mar_22_1134,N-Back (New Version 2021),2021.1.4,120.00350410106122,
Conditions/Version_2Pr/zeroback(1)_v2.xlsx,Rule: Press 'space' when you see the letter 'x' or 'X'.,N,None,,,,,0,0,0,0,0,6,6,6,,,,,,,,,,,,,,,,,,,,,,,,,,,,,,,,,,,,,,,,,,,1.065,225.09586659999331,None,226.16481399995973,None,None,1,,226.16481399995973,None,228.17021309997654,None,,,,,,,,,,,,,,,,,,,,,,,,,,,,,,,P031,FENCOG,2,Pre,2022_Mar_22_1134,N-Back (New Version 2021),2021.1.4,120.00350410106122,
Conditions/Version_2Pr/zeroback(1)_v2.xlsx,Rule: Press 'space' when you see the letter 'x' or 'X'.,m,None,,,,,0,0,0,0,0,7,7,7,,,,,,,,,,,,,,,,,,,,,,,,,,,,,,,,,,,,,,,,,,,1.04,229.66975930001354,None,230.7116701999912,None,None,1,,230.7116701999912,None,232.71857420000015,None,,,,,,,,,,,,,,,,,,,,,,,,,,,,,,,P031,FENCOG,2,Pre,2022_Mar_22_1134,N-Back (New Version 2021),2021.1.4,120.00350410106122,
Conditions/Version_2Pr/zeroback(1)_v2.xlsx,Rule: Press 'space' when you see the letter 'x' or 'X'.,x,space,,,,,0,0,0,0,0,8,8,8,,,,,,,,,,,,,,,,,,,,,,,,,,,,,,,,,,,,,,,,,,,1.165,234.2183649999788,None,235.3845033000107,None,space,1,0.3106007999740541,235.3845033000107,None,235.7109501999803,None,,,,,,,,,,,,,,,,,,,,,,,,,,,,,,,P031,FENCOG,2,Pre,2022_Mar_22_1134,N-Back (New Version 2021),2021.1.4,120.00350410106122,
Conditions/Version_2Pr/zeroback(1)_v2.xlsx,Rule: Press 'space' when you see the letter 'x' or 'X'.,X,space,,,,,0,0,0,0,0,9,9,9,,,,,,,,,,,,,,,,,,,,,,,,,,,,,,,,,,,,,,,,,,,1.615,237.2172961999895,None,238.83365639997646,None,space,1,0.3493382000015117,238.83365639997646,None,239.1931303999736,None,,,,,,,,,,,,,,,,,,,,,,,,,,,,,,,P031,FENCOG,2,Pre,2022_Mar_22_1134,N-Back (New Version 2021),2021.1.4,120.00350410106122,
Conditions/Version_2Pr/zeroback(1)_v2.xlsx,Rule: Press 'space' when you see the letter 'x' or 'X'.,,,,,,,0,0,0,0,,,,,,,,,,,,,,,,,,,,,,,,,,,,,,,,,,,,,,,,,,,,,,,,,,,,,,,,,,,,,,,,,,,,,,,,,,,,,,,,,,,,,,,,,P031,FENCOG,2,Pre,2022_Mar_22_1134,N-Back (New Version 2021),2021.1.4,120.00350410106122,
Conditions/Version_2Pr/oneback(1)_v2.xlsx,New rule: Press 'space' when you see 1-back (i.e. the same letter as the one that appeared 1 letter ago.),r,None,,,,,0,1,1,1,0,0,0,0,,,,,,,,,,,,,,,,,,,,,,,,,,,,,,,,,240.72342170000775,None,243.70093789999373,None,space,1.7459249999956228,243.70093789999373,None,240.72342170000775,None,1.065,245.47810459998436,None,246.55445789999794,None,None,1,,246.55445789999794,None,248.55586249998305,None,,,,,,,,,,,,,,,,,,,,,,,,,,,,,,,P031,FENCOG,2,Pre,2022_Mar_22_1134,N-Back (New Version 2021),2021.1.4,120.00350410106122,
Conditions/Version_2Pr/oneback(1)_v2.xlsx,New rule: Press 'space' when you see 1-back (i.e. the same letter as the one that appeared 1 letter ago.),t,None,,,,,0,1,1,1,0,1,1,1,,,,,,,,,,,,,,,,,,,,,,,,,,,,,,,,,,,,,,,,,,,1.365,250.0553826999967,None,251.42241020000074,None,None,1,,251.42241020000074,None,253.42935900000157,None,,,,,,,,,,,,,,,,,,,,,,,,,,,,,,,P031,FENCOG,2,Pre,2022_Mar_22_1134,N-Back (New Version 2021),2021.1.4,120.00350410106122,
Conditions/Version_2Pr/oneback(1)_v2.xlsx,New rule: Press 'space' when you see 1-back (i.e. the same letter as the one that appeared 1 letter ago.),Y,None,,,,,0,1,1,1,0,2,2,2,,,,,,,,,,,,,,,,,,,,,,,,,,,,,,,,,,,,,,,,,,,1.99,254.92891680001048,None,256.9211814000155,None,None,1,,256.9211814000155,None,258.92770449997624,None,,,,,,,,,,,,,,,,,,,,,,,,,,,,,,,P031,FENCOG,2,Pre,2022_Mar_22_1134,N-Back (New Version 2021),2021.1.4,120.00350410106122,
Conditions/Version_2Pr/oneback(1)_v2.xlsx,New rule: Press 'space' when you see 1-back (i.e. the same letter as the one that appeared 1 letter ago.),y,space,,,,,0,1,1,1,0,3,3,3,,,,,,,,,,,,,,,,,,,,,,,,,,,,,,,,,,,,,,,,,,,1.44,260.4272745999624,None,261.8693680000142,None,space,1,0.34542629995848984,261.8693680000142,None,262.2282300000079,None,,,,,,,,,,,,,,,,,,,,,,,,,,,,,,,P031,FENCOG,2,Pre,2022_Mar_22_1134,N-Back (New Version 2021),2021.1.4,120.00350410106122,
Conditions/Version_2Pr/oneback(1)_v2.xlsx,New rule: Press 'space' when you see 1-back (i.e. the same letter as the one that appeared 1 letter ago.),p,None,,,,,0,1,1,1,0,4,4,4,,,,,,,,,,,,,,,,,,,,,,,,,,,,,,,,,,,,,,,,,,,1.165,263.7343708999688,None,264.90173360001063,None,None,1,,264.90173360001063,None,266.90865469997516,None,,,,,,,,,,,,,,,,,,,,,,,,,,,,,,,P031,FENCOG,2,Pre,2022_Mar_22_1134,N-Back (New Version 2021),2021.1.4,120.00350410106122,
Conditions/Version_2Pr/oneback(1)_v2.xlsx,New rule: Press 'space' when you see 1-back (i.e. the same letter as the one that appeared 1 letter ago.),P,space,,,,,0,1,1,1,0,5,5,5,,,,,,,,,,,,,,,,,,,,,,,,,,,,,,,,,,,,,,,,,,,1.74,268.4082212999929,None,270.15137159998994,None,space,1,0.31944489997113124,270.15137159998994,None,270.48437640001066,None,,,,,,,,,,,,,,,,,,,,,,,,,,,,,,,P031,FENCOG,2,Pre,2022_Mar_22_1134,N-Back (New Version 2021),2021.1.4,120.00350410106122,
Conditions/Version_2Pr/oneback(1)_v2.xlsx,New rule: Press 'space' when you see 1-back (i.e. the same letter as the one that appeared 1 letter ago.),e,None,,,,,0,1,1,1,0,6,6,6,,,,,,,,,,,,,,,,,,,,,,,,,,,,,,,,,,,,,,,,,,,1.465,271.99040730000706,None,273.4585517999949,None,None,1,,273.4585517999949,None,275.4640983999707,None,,,,,,,,,,,,,,,,,,,,,,,,,,,,,,,P031,FENCOG,2,Pre,2022_Mar_22_1134,N-Back (New Version 2021),2021.1.4,120.00350410106122,
Conditions/Version_2Pr/oneback(1)_v2.xlsx,New rule: Press 'space' when you see 1-back (i.e. the same letter as the one that appeared 1 letter ago.),r,None,,,,,0,1,1,1,0,7,7,7,,,,,,,,,,,,,,,,,,,,,,,,,,,,,,,,,,,,,,,,,,,1.29,276.963672199985,None,278.25509960000636,None,None,1,,278.25509960000636,None,280.2547441999777,None,,,,,,,,,,,,,,,,,,,,,,,,,,,,,,,P031,FENCOG,2,Pre,2022_Mar_22_1134,N-Back (New Version 2021),2021.1.4,120.00350410106122,
Conditions/Version_2Pr/oneback(1)_v2.xlsx,New rule: Press 'space' when you see 1-back (i.e. the same letter as the one that appeared 1 letter ago.),R,space,,,,,0,1,1,1,0,8,8,8,,,,,,,,,,,,,,,,,,,,,,,,,,,,,,,,,,,,,,,,,,,1.24,281.75427380000474,None,282.9964681999991,None,space,1,0.2983935999800451,282.9964681999991,None,283.3056962999981,None,,,,,,,,,,,,,,,,,,,,,,,,,,,,,,,P031,FENCOG,2,Pre,2022_Mar_22_1134,N-Back (New Version 2021),2021.1.4,120.00350410106122,
Conditions/Version_2Pr/oneback(1)_v2.xlsx,New rule: Press 'space' when you see 1-back (i.e. the same letter as the one that appeared 1 letter ago.),p,None,,,,,0,1,1,1,0,9,9,9,,,,,,,,,,,,,,,,,,,,,,,,,,,,,,,,,,,,,,,,,,,1.415,284.81148410000606,None,286.2296686999616,None,None,1,,286.2296686999616,None,288.23552649997873,None,,,,,,,,,,,,,,,,,,,,,,,,,,,,,,,P031,FENCOG,2,Pre,2022_Mar_22_1134,N-Back (New Version 2021),2021.1.4,120.00350410106122,
Conditions/Version_2Pr/oneback(1)_v2.xlsx,New rule: Press 'space' when you see 1-back (i.e. the same letter as the one that appeared 1 letter ago.),,,,,,,0,1,1,1,,,,,,,,,,,,,,,,,,,,,,,,,,,,,,,,,,,,,,,,,,,,,,,,,,,,,,,,,,,,,,,,,,,,,,,,,,,,,,,,,,,,,,,,,P031,FENCOG,2,Pre,2022_Mar_22_1134,N-Back (New Version 2021),2021.1.4,120.00350410106122,
Conditions/Version_2Pr/twoback(1)_v2.xlsx,New rule: Press 'space' when you see 2-back (i.e. the same letter as the one that appeared 2 letters ago.),r,None,,,,,0,2,2,2,0,0,0,0,,,,,,,,,,,,,,,,,,,,,,,,,,,,,,,,,289.7561623000074,None,292.7456655999995,None,space,0.981358100019861,292.7456655999995,None,289.7561623000074,None,1.415,293.7613347999868,None,295.18373769999016,None,None,1,,295.18373769999016,None,297.1910049999715,None,,,,,,,,,,,,,,,,,,,,,,,,,,,,,,,P031,FENCOG,2,Pre,2022_Mar_22_1134,N-Back (New Version 2021),2021.1.4,120.00350410106122,
Conditions/Version_2Pr/twoback(1)_v2.xlsx,New rule: Press 'space' when you see 2-back (i.e. the same letter as the one that appeared 2 letters ago.),P,None,,,,,0,2,2,2,0,1,1,1,,,,,,,,,,,,,,,,,,,,,,,,,,,,,,,,,,,,,,,,,,,1.69,298.69096679997165,None,300.3819426000118,None,None,1,,300.3819426000118,None,302.38265009998577,None,,,,,,,,,,,,,,,,,,,,,,,,,,,,,,,P031,FENCOG,2,Pre,2022_Mar_22_1134,N-Back (New Version 2021),2021.1.4,120.00350410106122,
Conditions/Version_2Pr/twoback(1)_v2.xlsx,New rule: Press 'space' when you see 2-back (i.e. the same letter as the one that appeared 2 letters ago.),o,None,,,,,0,2,2,2,0,2,2,2,,,,,,,,,,,,,,,,,,,,,,,,,,,,,,,,,,,,,,,,,,,1.065,303.88944020000054,None,304.9571571999695,None,None,1,,304.9571571999695,None,306.9646155000082,None,,,,,,,,,,,,,,,,,,,,,,,,,,,,,,,P031,FENCOG,2,Pre,2022_Mar_22_1134,N-Back (New Version 2021),2021.1.4,120.00350410106122,
Conditions/Version_2Pr/twoback(1)_v2.xlsx,New rule: Press 'space' when you see 2-back (i.e. the same letter as the one that appeared 2 letters ago.),p,space,,,,,0,2,2,2,0,3,3,3,,,,,,,,,,,,,,,,,,,,,,,,,,,,,,,,,,,,,,,,,,,1.265,308.46300869999686,None,309.72998269996606,None,space,1,0.3328823000192642,309.72998269996606,None,310.07248149998486,None,,,,,,,,,,,,,,,,,,,,,,,,,,,,,,,P031,FENCOG,2,Pre,2022_Mar_22_1134,N-Back (New Version 2021),2021.1.4,120.00350410106122,
Conditions/Version_2Pr/twoback(1)_v2.xlsx,New rule: Press 'space' when you see 2-back (i.e. the same letter as the one that appeared 2 letters ago.),Y,None,,,,,0,2,2,2,0,4,4,4,,,,,,,,,,,,,,,,,,,,,,,,,,,,,,,,,,,,,,,,,,,1.34,311.578724699968,None,312.9202251000097,None,None,1,,312.9202251000097,None,314.9192854000139,None,,,,,,,,,,,,,,,,,,,,,,,,,,,,,,,P031,FENCOG,2,Pre,2022_Mar_22_1134,N-Back (New Version 2021),2021.1.4,120.00350410106122,
Conditions/Version_2Pr/twoback(1)_v2.xlsx,New rule: Press 'space' when you see 2-back (i.e. the same letter as the one that appeared 2 letters ago.),q,None,,,,,0,2,2,2,0,5,5,5,,,,,,,,,,,,,,,,,,,,,,,,,,,,,,,,,,,,,,,,,,,1.79,316.41877819999354,None,318.21039019996533,None,None,1,,318.21039019996533,None,320.209598299989,None,,,,,,,,,,,,,,,,,,,,,,,,,,,,,,,P031,FENCOG,2,Pre,2022_Mar_22_1134,N-Back (New Version 2021),2021.1.4,120.00350410106122,
Conditions/Version_2Pr/twoback(1)_v2.xlsx,New rule: Press 'space' when you see 2-back (i.e. the same letter as the one that appeared 2 letters ago.),m,None,,,,,0,2,2,2,0,6,6,6,,,,,,,,,,,,,,,,,,,,,,,,,,,,,,,,,,,,,,,,,,,1.44,321.7091894999612,None,323.1510705999681,None,None,1,,323.1510705999681,None,325.15804879995994,None,,,,,,,,,,,,,,,,,,,,,,,,,,,,,,,P031,FENCOG,2,Pre,2022_Mar_22_1134,N-Back (New Version 2021),2021.1.4,120.00350410106122,
Conditions/Version_2Pr/twoback(1)_v2.xlsx,New rule: Press 'space' when you see 2-back (i.e. the same letter as the one that appeared 2 letters ago.),Q,space,,,,,0,2,2,2,0,7,7,7,,,,,,,,,,,,,,,,,,,,,,,,,,,,,,,,,,,,,,,,,,,1.665,326.65737019997323,None,328.3261570999748,None,space,1,0.28864289994817227,328.3261570999748,None,328.62455539999064,None,,,,,,,,,,,,,,,,,,,,,,,,,,,,,,,P031,FENCOG,2,Pre,2022_Mar_22_1134,N-Back (New Version 2021),2021.1.4,120.00350410106122,
Conditions/Version_2Pr/twoback(1)_v2.xlsx,New rule: Press 'space' when you see 2-back (i.e. the same letter as the one that appeared 2 letters ago.),L,None,,,,,0,2,2,2,0,8,8,8,,,,,,,,,,,,,,,,,,,,,,,,,,,,,,,,,,,,,,,,,,,1.815,330.1314699999639,None,331.94953119999263,None,None,1,,331.94953119999263,None,333.9555535999825,None,,,,,,,,,,,,,,,,,,,,,,,,,,,,,,,P031,FENCOG,2,Pre,2022_Mar_22_1134,N-Back (New Version 2021),2021.1.4,120.00350410106122,
Conditions/Version_2Pr/twoback(1)_v2.xlsx,New rule: Press 'space' when you see 2-back (i.e. the same letter as the one that appeared 2 letters ago.),q,space,,,,,0,2,2,2,0,9,9,9,,,,,,,,,,,,,,,,,,,,,,,,,,,,,,,,,,,,,,,,,,,1.465,335.45501279999735,None,336.92263579997234,None,space,1,0.3721502000116743,336.92263579997234,None,337.30606589996023,None,,,,,,,,,,,,,,,,,,,,,,,,,,,,,,,P031,FENCOG,2,Pre,2022_Mar_22_1134,N-Back (New Version 2021),2021.1.4,120.00350410106122,
Conditions/Version_2Pr/twoback(1)_v2.xlsx,New rule: Press 'space' when you see 2-back (i.e. the same letter as the one that appeared 2 letters ago.),,,,,,,0,2,2,2,,,,,,,,,,,,,,,,,,,,,,,,,,,,,,,,,,,,,,,,,,,,,,,,,,,,,,,,,,,,,,,,,,,,,,,,,,,,,,,,,,,,,,,,,P031,FENCOG,2,Pre,2022_Mar_22_1134,N-Back (New Version 2021),2021.1.4,120.00350410106122,
Conditions/Version_2Pr/threeback(1)_v2.xlsx,New rule: Press 'space' when you see 3-back (i.e. the same letter as the one that appeared 3 letters ago.),u,None,,,,,0,3,3,3,0,0,0,0,,,,,,,,,,,,,,,,,,,,,,,,,,,,,,,,,338.8333031999646,None,341.8218753999681,None,space,3.104988500010222,341.8218753999681,None,338.8333031999646,None,1.49,344.95448269997723,None,346.4545593999792,None,None,1,,346.4545593999792,None,348.4594803999644,None,,,,,,,,,,,,,,,,,,,,,,,,,,,,,,,P031,FENCOG,2,Pre,2022_Mar_22_1134,N-Back (New Version 2021),2021.1.4,120.00350410106122,
Conditions/Version_2Pr/threeback(1)_v2.xlsx,New rule: Press 'space' when you see 3-back (i.e. the same letter as the one that appeared 3 letters ago.),U,None,,,,,0,3,3,3,0,1,1,1,,,,,,,,,,,,,,,,,,,,,,,,,,,,,,,,,,,,,,,,,,,1.94,349.95882429997437,None,351.9026201000088,None,None,1,,351.9026201000088,None,353.90796809998574,None,,,,,,,,,,,,,,,,,,,,,,,,,,,,,,,P031,FENCOG,2,Pre,2022_Mar_22_1134,N-Back (New Version 2021),2021.1.4,120.00350410106122,
Conditions/Version_2Pr/threeback(1)_v2.xlsx,New rule: Press 'space' when you see 3-back (i.e. the same letter as the one that appeared 3 letters ago.),p,None,,,,,0,3,3,3,0,2,2,2,,,,,,,,,,,,,,,,,,,,,,,,,,,,,,,,,,,,,,,,,,,1.215,355.40745269996114,None,356.62439830001676,None,None,1,,356.62439830001676,None,358.63150299998233,None,,,,,,,,,,,,,,,,,,,,,,,,,,,,,,,P031,FENCOG,2,Pre,2022_Mar_22_1134,N-Back (New Version 2021),2021.1.4,120.00350410106122,
Conditions/Version_2Pr/threeback(1)_v2.xlsx,New rule: Press 'space' when you see 3-back (i.e. the same letter as the one that appeared 3 letters ago.),U,space,,,,,0,3,3,3,0,3,3,3,,,,,,,,,,,,,,,,,,,,,,,,,,,,,,,,,,,,,,,,,,,1.715,360.13100260001374,None,361.848917299998,None,None,0,,361.848917299998,None,363.85699589998694,None,,,,,,,,,,,,,,,,,,,,,,,,,,,,,,,P031,FENCOG,2,Pre,2022_Mar_22_1134,N-Back (New Version 2021),2021.1.4,120.00350410106122,
Conditions/Version_2Pr/threeback(1)_v2.xlsx,New rule: Press 'space' when you see 3-back (i.e. the same letter as the one that appeared 3 letters ago.),e,None,,,,,0,3,3,3,0,4,4,4,,,,,,,,,,,,,,,,,,,,,,,,,,,,,,,,,,,,,,,,,,,1.99,365.35454339999706,None,367.3472994999611,None,space,0,0.4994301000260748,367.3472994999611,None,367.86764299997594,None,,,,,,,,,,,,,,,,,,,,,,,,,,,,,,,P031,FENCOG,2,Pre,2022_Mar_22_1134,N-Back (New Version 2021),2021.1.4,120.00350410106122,
Conditions/Version_2Pr/threeback(1)_v2.xlsx,New rule: Press 'space' when you see 3-back (i.e. the same letter as the one that appeared 3 letters ago.),R,None,,,,,0,3,3,3,0,5,5,5,,,,,,,,,,,,,,,,,,,,,,,,,,,,,,,,,,,,,,,,,,,1.415,369.36990270001115,None,370.7860645999899,None,None,1,,370.7860645999899,None,372.7875323999906,None,,,,,,,,,,,,,,,,,,,,,,,,,,,,,,,P031,FENCOG,2,Pre,2022_Mar_22_1134,N-Back (New Version 2021),2021.1.4,120.00350410106122,
Conditions/Version_2Pr/threeback(1)_v2.xlsx,New rule: Press 'space' when you see 3-back (i.e. the same letter as the one that appeared 3 letters ago.),p,None,,,,,0,3,3,3,0,6,6,6,,,,,,,,,,,,,,,,,,,,,,,,,,,,,,,,,,,,,,,,,,,1.365,374.2935076999711,None,375.65952459996333,None,None,1,,375.65952459996333,None,377.65914269996574,None,,,,,,,,,,,,,,,,,,,,,,,,,,,,,,,P031,FENCOG,2,Pre,2022_Mar_22_1134,N-Back (New Version 2021),2021.1.4,120.00350410106122,
Conditions/Version_2Pr/threeback(1)_v2.xlsx,New rule: Press 'space' when you see 3-back (i.e. the same letter as the one that appeared 3 letters ago.),E,space,,,,,0,3,3,3,0,7,7,7,,,,,,,,,,,,,,,,,,,,,,,,,,,,,,,,,,,,,,,,,,,1.465,379.15874220000114,None,380.6257864999934,None,space,1,0.37289150001015514,380.6257864999934,None,381.0093484999961,None,,,,,,,,,,,,,,,,,,,,,,,,,,,,,,,P031,FENCOG,2,Pre,2022_Mar_22_1134,N-Back (New Version 2021),2021.1.4,120.00350410106122,
Conditions/Version_2Pr/threeback(1)_v2.xlsx,New rule: Press 'space' when you see 3-back (i.e. the same letter as the one that appeared 3 letters ago.),k,None,,,,,0,3,3,3,0,8,8,8,,,,,,,,,,,,,,,,,,,,,,,,,,,,,,,,,,,,,,,,,,,1.665,382.51585259998683,None,384.18266869999934,None,None,1,,384.18266869999934,None,386.19003279996105,None,,,,,,,,,,,,,,,,,,,,,,,,,,,,,,,P031,FENCOG,2,Pre,2022_Mar_22_1134,N-Back (New Version 2021),2021.1.4,120.00350410106122,
Conditions/Version_2Pr/threeback(1)_v2.xlsx,New rule: Press 'space' when you see 3-back (i.e. the same letter as the one that appeared 3 letters ago.),m,None,,,,,0,3,3,3,0,9,9,9,,,,,,,,,,,,,,,,,,,,,,,,,,,,,,,,,,,,,,,,,,,2.015,387.6894672999624,None,389.7053554999875,None,None,1,,389.7053554999875,None,391.70499810000183,None,,,,,,,,,,,,,,,,,,,,,,,,,,,,,,,P031,FENCOG,2,Pre,2022_Mar_22_1134,N-Back (New Version 2021),2021.1.4,120.00350410106122,
Conditions/Version_2Pr/threeback(1)_v2.xlsx,New rule: Press 'space' when you see 3-back (i.e. the same letter as the one that appeared 3 letters ago.),,,,,,,0,3,3,3,,,,,,,,,,,,,,,,,,,,,,,,,,,,,,,,,,,,,,,,,,,,,,,,,,,,,,,,,,,,,,,,,,,,,,,,,,,,,,,,,,,,,,,,,P031,FENCOG,2,Pre,2022_Mar_22_1134,N-Back (New Version 2021),2021.1.4,120.00350410106122,
,,,,,,,,,,,,,,,,,,,,,,,,,,,,,,,,,,,,,,,,,,,,,,,,,,,,,,,,,,,,,,,,,,,,,,393.2128170999931,None,space,7.478003299969714,393.70476130000316,None,,,,,,,,,,,,,,,,,,,,,,,,,P031,FENCOG,2,Pre,2022_Mar_22_1134,N-Back (New Version 2021),2021.1.4,120.00350410106122,
,,,,,,,,,,,,,,,,,,,,,,,,,,,,,,,,,,,,,,,,,,,,,,,,,,,,,,,,,,,,,,,,,,,,,,,,,,,,401.2070270999684,None,space,2.4400077000027522,401.70257969998056,None,,,,,,,,,,,,,,,,,,,P031,FENCOG,2,Pre,2022_Mar_22_1134,N-Back (New Version 2021),2021.1.4,120.00350410106122,
,,,,Conditions/Version_1/zeroback(1)_v1.xlsx,Rule: Press 'space' when you see the letter 'x' or 'X'.,b,None,,,,,,,,,0,0,0,0,0,0,0,0,,,,,,,,,,,,,,,,,,,,,,,,,,,,,,,,,,,,,,,,,,,,,,,,,,,,,,,,,,,404.2606483999989,None,407.2438533999957,None,space,0.5789005000260659,407.2438533999957,None,404.2606483999989,None,1.8842,409.7427520999918,None,None,1,409.7427520999918,None,,P031,FENCOG,2,Pre,2022_Mar_22_1134,N-Back (New Version 2021),2021.1.4,120.00350410106122,
,,,,Conditions/Version_1/zeroback(1)_v1.xlsx,Rule: Press 'space' when you see the letter 'x' or 'X'.,T,None,,,,,,,,,0,0,0,0,0,1,1,1,,,,,,,,,,,,,,,,,,,,,,,,,,,,,,,,,,,,,,,,,,,,,,,,,,,,,,,,,,,,,,,,,,,,,1.8346,413.5822888999828,None,None,1,413.5822888999828,None,,P031,FENCOG,2,Pre,2022_Mar_22_1134,N-Back (New Version 2021),2021.1.4,120.00350410106122,
,,,,Conditions/Version_1/zeroback(1)_v1.xlsx,Rule: Press 'space' when you see the letter 'x' or 'X'.,L,None,,,,,,,,,0,0,0,0,0,2,2,2,,,,,,,,,,,,,,,,,,,,,,,,,,,,,,,,,,,,,,,,,,,,,,,,,,,,,,,,,,,,,,,,,,,,,1.6176,417.21459729998605,None,None,1,417.21459729998605,None,,P031,FENCOG,2,Pre,2022_Mar_22_1134,N-Back (New Version 2021),2021.1.4,120.00350410106122,
,,,,Conditions/Version_1/zeroback(1)_v1.xlsx,Rule: Press 'space' when you see the letter 'x' or 'X'.,x,space,,,,,,,,,0,0,0,0,0,3,3,3,,,,,,,,,,,,,,,,,,,,,,,,,,,,,,,,,,,,,,,,,,,,,,,,,,,,,,,,,,,,,,,,,,,,,1.6486,420.8710659999633,None,space,1,420.8710659999633,None,1.7275887000141665,P031,FENCOG,2,Pre,2022_Mar_22_1134,N-Back (New Version 2021),2021.1.4,120.00350410106122,
,,,,Conditions/Version_1/zeroback(1)_v1.xlsx,Rule: Press 'space' when you see the letter 'x' or 'X'.,o,None,,,,,,,,,0,0,0,0,0,4,4,4,,,,,,,,,,,,,,,,,,,,,,,,,,,,,,,,,,,,,,,,,,,,,,,,,,,,,,,,,,,,,,,,,,,,,1.692,424.5616556999739,None,None,1,424.5616556999739,None,,P031,FENCOG,2,Pre,2022_Mar_22_1134,N-Back (New Version 2021),2021.1.4,120.00350410106122,
,,,,Conditions/Version_1/zeroback(1)_v1.xlsx,Rule: Press 'space' when you see the letter 'x' or 'X'.,P,None,,,,,,,,,0,0,0,0,0,5,5,5,,,,,,,,,,,,,,,,,,,,,,,,,,,,,,,,,,,,,,,,,,,,,,,,,,,,,,,,,,,,,,,,,,,,,1.103,427.6695685000159,None,None,1,427.6695685000159,None,,P031,FENCOG,2,Pre,2022_Mar_22_1134,N-Back (New Version 2021),2021.1.4,120.00350410106122,
,,,,Conditions/Version_1/zeroback(1)_v1.xlsx,Rule: Press 'space' when you see the letter 'x' or 'X'.,X,space,,,,,,,,,0,0,0,0,0,6,6,6,,,,,,,,,,,,,,,,,,,,,,,,,,,,,,,,,,,,,,,,,,,,,,,,,,,,,,,,,,,,,,,,,,,,,1.3262,431.0019258999964,None,space,1,431.0019258999964,None,0.3406445999862626,P031,FENCOG,2,Pre,2022_Mar_22_1134,N-Back (New Version 2021),2021.1.4,120.00350410106122,
,,,,Conditions/Version_1/zeroback(1)_v1.xlsx,Rule: Press 'space' when you see the letter 'x' or 'X'.,n,None,,,,,,,,,0,0,0,0,0,7,7,7,,,,,,,,,,,,,,,,,,,,,,,,,,,,,,,,,,,,,,,,,,,,,,,,,,,,,,,,,,,,,,,,,,,,,1.2394,434.24314019997837,None,None,1,434.24314019997837,None,,P031,FENCOG,2,Pre,2022_Mar_22_1134,N-Back (New Version 2021),2021.1.4,120.00350410106122,
,,,,Conditions/Version_1/zeroback(1)_v1.xlsx,Rule: Press 'space' when you see the letter 'x' or 'X'.,M,None,,,,,,,,,0,0,0,0,0,8,8,8,,,,,,,,,,,,,,,,,,,,,,,,,,,,,,,,,,,,,,,,,,,,,,,,,,,,,,,,,,,,,,,,,,,,,1.1092,437.3670190999983,None,None,1,437.3670190999983,None,,P031,FENCOG,2,Pre,2022_Mar_22_1134,N-Back (New Version 2021),2021.1.4,120.00350410106122,
,,,,Conditions/Version_1/zeroback(1)_v1.xlsx,Rule: Press 'space' when you see the letter 'x' or 'X'.,a,None,,,,,,,,,0,0,0,0,0,9,9,9,,,,,,,,,,,,,,,,,,,,,,,,,,,,,,,,,,,,,,,,,,,,,,,,,,,,,,,,,,,,,,,,,,,,,1.7044,441.08295429998543,None,None,1,441.08295429998543,None,,P031,FENCOG,2,Pre,2022_Mar_22_1134,N-Back (New Version 2021),2021.1.4,120.00350410106122,
,,,,Conditions/Version_1/zeroback(1)_v1.xlsx,Rule: Press 'space' when you see the letter 'x' or 'X'.,,,,,,,,,,,0,0,0,0,,,,,,,,,,,,,,,,,,,,,,,,,,,,,,,,,,,,,,,,,,,,,,,,,,,,,,,,,,,,,,,,,,,,,,,,,,,,,,,,,P031,FENCOG,2,Pre,2022_Mar_22_1134,N-Back (New Version 2021),2021.1.4,120.00350410106122,
,,,,Conditions/Version_1/oneback(1)_v1.xlsx,New rule: Press 'space' when you see 1-back (i.e. the same letter as the one that appeared 1 letter ago.),b,None,,,,,,,,,0,1,1,1,0,0,0,0,,,,,,,,,,,,,,,,,,,,,,,,,,,,,,,,,,,,,,,,,,,,,,,,,,,,,,,,,,,443.1096758999629,None,446.0987700999831,None,space,1.6038673000293784,446.0987700999831,None,443.1096758999629,None,1.1898,448.92193309997674,None,None,1,448.92193309997674,None,,P031,FENCOG,2,Pre,2022_Mar_22_1134,N-Back (New Version 2021),2021.1.4,120.00350410106122,
,,,,Conditions/Version_1/oneback(1)_v1.xlsx,New rule: Press 'space' when you see 1-back (i.e. the same letter as the one that appeared 1 letter ago.),p,None,,,,,,,,,0,1,1,1,0,1,1,1,,,,,,,,,,,,,,,,,,,,,,,,,,,,,,,,,,,,,,,,,,,,,,,,,,,,,,,,,,,,,,,,,,,,,1.5184,452.4533883999684,None,None,1,452.4533883999684,None,,P031,FENCOG,2,Pre,2022_Mar_22_1134,N-Back (New Version 2021),2021.1.4,120.00350410106122,
,,,,Conditions/Version_1/oneback(1)_v1.xlsx,New rule: Press 'space' when you see 1-back (i.e. the same letter as the one that appeared 1 letter ago.),M,None,,,,,,,,,0,1,1,1,0,2,2,2,,,,,,,,,,,,,,,,,,,,,,,,,,,,,,,,,,,,,,,,,,,,,,,,,,,,,,,,,,,,,,,,,,,,,1.4874,455.94409090001136,None,None,1,455.94409090001136,None,,P031,FENCOG,2,Pre,2022_Mar_22_1134,N-Back (New Version 2021),2021.1.4,120.00350410106122,
,,,,Conditions/Version_1/oneback(1)_v1.xlsx,New rule: Press 'space' when you see 1-back (i.e. the same letter as the one that appeared 1 letter ago.),M,space,,,,,,,,,0,1,1,1,0,3,3,3,,,,,,,,,,,,,,,,,,,,,,,,,,,,,,,,,,,,,,,,,,,,,,,,,,,,,,,,,,,,,,,,,,,,,1.5804,459.52654980000807,None,space,1,459.52654980000807,None,0.2879382999963127,P031,FENCOG,2,Pre,2022_Mar_22_1134,N-Back (New Version 2021),2021.1.4,120.00350410106122,
,,,,Conditions/Version_1/oneback(1)_v1.xlsx,New rule: Press 'space' when you see 1-back (i.e. the same letter as the one that appeared 1 letter ago.),n,None,,,,,,,,,0,1,1,1,0,4,4,4,,,,,,,,,,,,,,,,,,,,,,,,,,,,,,,,,,,,,,,,,,,,,,,,,,,,,,,,,,,,,,,,,,,,,1.6052,463.13453809998464,None,None,1,463.13453809998464,None,,P031,FENCOG,2,Pre,2022_Mar_22_1134,N-Back (New Version 2021),2021.1.4,120.00350410106122,
,,,,Conditions/Version_1/oneback(1)_v1.xlsx,New rule: Press 'space' when you see 1-back (i.e. the same letter as the one that appeared 1 letter ago.),g,None,,,,,,,,,0,1,1,1,0,5,5,5,,,,,,,,,,,,,,,,,,,,,,,,,,,,,,,,,,,,,,,,,,,,,,,,,,,,,,,,,,,,,,,,,,,,,1.878,467.0256636000122,None,None,1,467.0256636000122,None,,P031,FENCOG,2,Pre,2022_Mar_22_1134,N-Back (New Version 2021),2021.1.4,120.00350410106122,
,,,,Conditions/Version_1/oneback(1)_v1.xlsx,New rule: Press 'space' when you see 1-back (i.e. the same letter as the one that appeared 1 letter ago.),P,None,,,,,,,,,0,1,1,1,0,6,6,6,,,,,,,,,,,,,,,,,,,,,,,,,,,,,,,,,,,,,,,,,,,,,,,,,,,,,,,,,,,,,,,,,,,,,1.7602,470.79880629997933,None,None,1,470.79880629997933,None,,P031,FENCOG,2,Pre,2022_Mar_22_1134,N-Back (New Version 2021),2021.1.4,120.00350410106122,
,,,,Conditions/Version_1/oneback(1)_v1.xlsx,New rule: Press 'space' when you see 1-back (i.e. the same letter as the one that appeared 1 letter ago.),o,None,,,,,,,,,0,1,1,1,0,7,7,7,,,,,,,,,,,,,,,,,,,,,,,,,,,,,,,,,,,,,,,,,,,,,,,,,,,,,,,,,,,,,,,,,,,,,1.5866,474.4013685999671,None,None,1,474.4013685999671,None,,P031,FENCOG,2,Pre,2022_Mar_22_1134,N-Back (New Version 2021),2021.1.4,120.00350410106122,
,,,,Conditions/Version_1/oneback(1)_v1.xlsx,New rule: Press 'space' when you see 1-back (i.e. the same letter as the one that appeared 1 letter ago.),f,None,,,,,,,,,0,1,1,1,0,8,8,8,,,,,,,,,,,,,,,,,,,,,,,,,,,,,,,,,,,,,,,,,,,,,,,,,,,,,,,,,,,,,,,,,,,,,1.32,477.73017779999645,None,None,1,477.73017779999645,None,,P031,FENCOG,2,Pre,2022_Mar_22_1134,N-Back (New Version 2021),2021.1.4,120.00350410106122,
,,,,Conditions/Version_1/oneback(1)_v1.xlsx,New rule: Press 'space' when you see 1-back (i.e. the same letter as the one that appeared 1 letter ago.),F,space,,,,,,,,,0,1,1,1,0,9,9,9,,,,,,,,,,,,,,,,,,,,,,,,,,,,,,,,,,,,,,,,,,,,,,,,,,,,,,,,,,,,,,,,,,,,,1.6548,481.3966352000134,None,space,1,481.3966352000134,None,0.353783399972599,P031,FENCOG,2,Pre,2022_Mar_22_1134,N-Back (New Version 2021),2021.1.4,120.00350410106122,
,,,,Conditions/Version_1/oneback(1)_v1.xlsx,New rule: Press 'space' when you see 1-back (i.e. the same letter as the one that appeared 1 letter ago.),,,,,,,,,,,0,1,1,1,,,,,,,,,,,,,,,,,,,,,,,,,,,,,,,,,,,,,,,,,,,,,,,,,,,,,,,,,,,,,,,,,,,,,,,,,,,,,,,,,P031,FENCOG,2,Pre,2022_Mar_22_1134,N-Back (New Version 2021),2021.1.4,120.00350410106122,
,,,,Conditions/Version_1/twoback(1)_v1.xlsx,New rule: Press 'space' when you see 2-back (i.e. the same letter as the one that appeared 2 letters ago.),b,None,,,,,,,,,0,2,2,2,0,0,0,0,,,,,,,,,,,,,,,,,,,,,,,,,,,,,,,,,,,,,,,,,,,,,,,,,,,,,,,,,,,483.42278349999106,None,486.41250789997866,None,space,1.5618615000275895,486.41250789997866,None,483.42278349999106,None,1.6734,489.6840560999699,None,None,1,489.6840560999699,None,,P031,FENCOG,2,Pre,2022_Mar_22_1134,N-Back (New Version 2021),2021.1.4,120.00350410106122,
,,,,Conditions/Version_1/twoback(1)_v1.xlsx,New rule: Press 'space' when you see 2-back (i.e. the same letter as the one that appeared 2 letters ago.),h,None,,,,,,,,,0,2,2,2,0,1,1,1,,,,,,,,,,,,,,,,,,,,,,,,,,,,,,,,,,,,,,,,,,,,,,,,,,,,,,,,,,,,,,,,,,,,,1.8284,493.51651019998826,None,None,1,493.51651019998826,None,,P031,FENCOG,2,Pre,2022_Mar_22_1134,N-Back (New Version 2021),2021.1.4,120.00350410106122,
,,,,Conditions/Version_1/twoback(1)_v1.xlsx,New rule: Press 'space' when you see 2-back (i.e. the same letter as the one that appeared 2 letters ago.),j,None,,,,,,,,,0,2,2,2,0,2,2,2,,,,,,,,,,,,,,,,,,,,,,,,,,,,,,,,,,,,,,,,,,,,,,,,,,,,,,,,,,,,,,,,,,,,,1.8036,497.3253092999803,None,None,1,497.3253092999803,None,,P031,FENCOG,2,Pre,2022_Mar_22_1134,N-Back (New Version 2021),2021.1.4,120.00350410106122,
,,,,Conditions/Version_1/twoback(1)_v1.xlsx,New rule: Press 'space' when you see 2-back (i.e. the same letter as the one that appeared 2 letters ago.),H,space,,,,,,,,,0,2,2,2,0,3,3,3,,,,,,,,,,,,,,,,,,,,,,,,,,,,,,,,,,,,,,,,,,,,,,,,,,,,,,,,,,,,,,,,,,,,,1.289,500.62397010001587,None,space,1,500.62397010001587,None,0.742522300046403,P031,FENCOG,2,Pre,2022_Mar_22_1134,N-Back (New Version 2021),2021.1.4,120.00350410106122,
,,,,Conditions/Version_1/twoback(1)_v1.xlsx,New rule: Press 'space' when you see 2-back (i.e. the same letter as the one that appeared 2 letters ago.),p,None,,,,,,,,,0,2,2,2,0,4,4,4,,,,,,,,,,,,,,,,,,,,,,,,,,,,,,,,,,,,,,,,,,,,,,,,,,,,,,,,,,,,,,,,,,,,,1.5494,504.17971319996286,None,None,1,504.17971319996286,None,,P031,FENCOG,2,Pre,2022_Mar_22_1134,N-Back (New Version 2021),2021.1.4,120.00350410106122,
,,,,Conditions/Version_1/twoback(1)_v1.xlsx,New rule: Press 'space' when you see 2-back (i.e. the same letter as the one that appeared 2 letters ago.),p,None,,,,,,,,,0,2,2,2,0,5,5,5,,,,,,,,,,,,,,,,,,,,,,,,,,,,,,,,,,,,,,,,,,,,,,,,,,,,,,,,,,,,,,,,,,,,,1.0596,507.24594329996035,None,None,1,507.24594329996035,None,,P031,FENCOG,2,Pre,2022_Mar_22_1134,N-Back (New Version 2021),2021.1.4,120.00350410106122,
,,,,Conditions/Version_1/twoback(1)_v1.xlsx,New rule: Press 'space' when you see 2-back (i.e. the same letter as the one that appeared 2 letters ago.),w,None,,,,,,,,,0,2,2,2,0,6,6,6,,,,,,,,,,,,,,,,,,,,,,,,,,,,,,,,,,,,,,,,,,,,,,,,,,,,,,,,,,,,,,,,,,,,,1.599,510.84539789997507,None,None,1,510.84539789997507,None,,P031,FENCOG,2,Pre,2022_Mar_22_1134,N-Back (New Version 2021),2021.1.4,120.00350410106122,
,,,,Conditions/Version_1/twoback(1)_v1.xlsx,New rule: Press 'space' when you see 2-back (i.e. the same letter as the one that appeared 2 letters ago.),R,None,,,,,,,,,0,2,2,2,0,7,7,7,,,,,,,,,,,,,,,,,,,,,,,,,,,,,,,,,,,,,,,,,,,,,,,,,,,,,,,,,,,,,,,,,,,,,1.847,514.7016308999737,None,None,1,514.7016308999737,None,,P031,FENCOG,2,Pre,2022_Mar_22_1134,N-Back (New Version 2021),2021.1.4,120.00350410106122,
,,,,Conditions/Version_1/twoback(1)_v1.xlsx,New rule: Press 'space' when you see 2-back (i.e. the same letter as the one that appeared 2 letters ago.),a,None,,,,,,,,,0,2,2,2,0,8,8,8,,,,,,,,,,,,,,,,,,,,,,,,,,,,,,,,,,,,,,,,,,,,,,,,,,,,,,,,,,,,,,,,,,,,,1.0658,517.7687752000056,None,None,1,517.7687752000056,None,,P031,FENCOG,2,Pre,2022_Mar_22_1134,N-Back (New Version 2021),2021.1.4,120.00350410106122,
,,,,Conditions/Version_1/twoback(1)_v1.xlsx,New rule: Press 'space' when you see 2-back (i.e. the same letter as the one that appeared 2 letters ago.),r,space,,,,,,,,,0,2,2,2,0,9,9,9,,,,,,,,,,,,,,,,,,,,,,,,,,,,,,,,,,,,,,,,,,,,,,,,,,,,,,,,,,,,,,,,,,,,,1.6424,521.4166811999748,None,space,1,521.4166811999748,None,0.3737533999956213,P031,FENCOG,2,Pre,2022_Mar_22_1134,N-Back (New Version 2021),2021.1.4,120.00350410106122,
,,,,Conditions/Version_1/twoback(1)_v1.xlsx,New rule: Press 'space' when you see 2-back (i.e. the same letter as the one that appeared 2 letters ago.),,,,,,,,,,,0,2,2,2,,,,,,,,,,,,,,,,,,,,,,,,,,,,,,,,,,,,,,,,,,,,,,,,,,,,,,,,,,,,,,,,,,,,,,,,,,,,,,,,,P031,FENCOG,2,Pre,2022_Mar_22_1134,N-Back (New Version 2021),2021.1.4,120.00350410106122,
,,,,Conditions/Version_1/threeback(1)_v1.xlsx,New rule: Press 'space' when you see 3-back (i.e. the same letter as the one that appeared 3 letters ago.),r,None,,,,,,,,,0,3,3,3,0,0,0,0,,,,,,,,,,,,,,,,,,,,,,,,,,,,,,,,,,,,,,,,,,,,,,,,,,,,,,,,,,,523.4403128999984,None,526.4254689000081,None,space,1.1969173999968916,526.4254689000081,None,523.4403128999984,None,1.103,528.755943999975,None,None,1,528.755943999975,None,,P031,FENCOG,2,Pre,2022_Mar_22_1134,N-Back (New Version 2021),2021.1.4,120.00350410106122,
,,,,Conditions/Version_1/threeback(1)_v1.xlsx,New rule: Press 'space' when you see 3-back (i.e. the same letter as the one that appeared 3 letters ago.),o,None,,,,,,,,,0,3,3,3,0,1,1,1,,,,,,,,,,,,,,,,,,,,,,,,,,,,,,,,,,,,,,,,,,,,,,,,,,,,,,,,,,,,,,,,,,,,,1.909,532.6714504999691,None,None,1,532.6714504999691,None,,P031,FENCOG,2,Pre,2022_Mar_22_1134,N-Back (New Version 2021),2021.1.4,120.00350410106122,
,,,,Conditions/Version_1/threeback(1)_v1.xlsx,New rule: Press 'space' when you see 3-back (i.e. the same letter as the one that appeared 3 letters ago.),P,None,,,,,,,,,0,3,3,3,0,2,2,2,,,,,,,,,,,,,,,,,,,,,,,,,,,,,,,,,,,,,,,,,,,,,,,,,,,,,,,,,,,,,,,,,,,,,1.134,535.8038810999715,None,None,1,535.8038810999715,None,,P031,FENCOG,2,Pre,2022_Mar_22_1134,N-Back (New Version 2021),2021.1.4,120.00350410106122,
,,,,Conditions/Version_1/threeback(1)_v1.xlsx,New rule: Press 'space' when you see 3-back (i.e. the same letter as the one that appeared 3 letters ago.),R,space,,,,,,,,,0,3,3,3,0,3,3,3,,,,,,,,,,,,,,,,,,,,,,,,,,,,,,,,,,,,,,,,,,,,,,,,,,,,,,,,,,,,,,,,,,,,,1.3386,539.155739800015,None,space,1,539.155739800015,None,0.4984942000010051,P031,FENCOG,2,Pre,2022_Mar_22_1134,N-Back (New Version 2021),2021.1.4,120.00350410106122,
,,,,Conditions/Version_1/threeback(1)_v1.xlsx,New rule: Press 'space' when you see 3-back (i.e. the same letter as the one that appeared 3 letters ago.),p,None,,,,,,,,,0,3,3,3,0,4,4,4,,,,,,,,,,,,,,,,,,,,,,,,,,,,,,,,,,,,,,,,,,,,,,,,,,,,,,,,,,,,,,,,,,,,,1.723,542.8859362999792,None,None,1,542.8859362999792,None,,P031,FENCOG,2,Pre,2022_Mar_22_1134,N-Back (New Version 2021),2021.1.4,120.00350410106122,
,,,,Conditions/Version_1/threeback(1)_v1.xlsx,New rule: Press 'space' when you see 3-back (i.e. the same letter as the one that appeared 3 letters ago.),E,None,,,,,,,,,0,3,3,3,0,5,5,5,,,,,,,,,,,,,,,,,,,,,,,,,,,,,,,,,,,,,,,,,,,,,,,,,,,,,,,,,,,,,,,,,,,,,1.8904,546.7836847999715,None,None,1,546.7836847999715,None,,P031,FENCOG,2,Pre,2022_Mar_22_1134,N-Back (New Version 2021),2021.1.4,120.00350410106122,
,,,,Conditions/Version_1/threeback(1)_v1.xlsx,New rule: Press 'space' when you see 3-back (i.e. the same letter as the one that appeared 3 letters ago.),e,None,,,,,,,,,0,3,3,3,0,6,6,6,,,,,,,,,,,,,,,,,,,,,,,,,,,,,,,,,,,,,,,,,,,,,,,,,,,,,,,,,,,,,,,,,,,,,1.5122,550.2993856999674,None,None,1,550.2993856999674,None,,P031,FENCOG,2,Pre,2022_Mar_22_1134,N-Back (New Version 2021),2021.1.4,120.00350410106122,
,,,,Conditions/Version_1/threeback(1)_v1.xlsx,New rule: Press 'space' when you see 3-back (i.e. the same letter as the one that appeared 3 letters ago.),m,None,,,,,,,,,0,3,3,3,0,7,7,7,,,,,,,,,,,,,,,,,,,,,,,,,,,,,,,,,,,,,,,,,,,,,,,,,,,,,,,,,,,,,,,,,,,,,1.4812,553.782844899979,None,None,1,553.782844899979,None,,P031,FENCOG,2,Pre,2022_Mar_22_1134,N-Back (New Version 2021),2021.1.4,120.00350410106122,
,,,,Conditions/Version_1/threeback(1)_v1.xlsx,New rule: Press 'space' when you see 3-back (i.e. the same letter as the one that appeared 3 letters ago.),n,None,,,,,,,,,0,3,3,3,0,8,8,8,,,,,,,,,,,,,,,,,,,,,,,,,,,,,,,,,,,,,,,,,,,,,,,,,,,,,,,,,,,,,,,,,,,,,1.475,557.2639551999746,None,None,1,557.2639551999746,None,,P031,FENCOG,2,Pre,2022_Mar_22_1134,N-Back (New Version 2021),2021.1.4,120.00350410106122,
,,,,Conditions/Version_1/threeback(1)_v1.xlsx,New rule: Press 'space' when you see 3-back (i.e. the same letter as the one that appeared 3 letters ago.),e,space,,,,,,,,,0,3,3,3,0,9,9,9,,,,,,,,,,,,,,,,,,,,,,,,,,,,,,,,,,,,,,,,,,,,,,,,,,,,,,,,,,,,,,,,,,,,,1.0224,560.2880614000023,None,space,1,560.2880614000023,None,0.34206759999506176,P031,FENCOG,2,Pre,2022_Mar_22_1134,N-Back (New Version 2021),2021.1.4,120.00350410106122,
,,,,Conditions/Version_1/threeback(1)_v1.xlsx,New rule: Press 'space' when you see 3-back (i.e. the same letter as the one that appeared 3 letters ago.),,,,,,,,,,,0,3,3,3,,,,,,,,,,,,,,,,,,,,,,,,,,,,,,,,,,,,,,,,,,,,,,,,,,,,,,,,,,,,,,,,,,,,,,,,,,,,,,,,,P031,FENCOG,2,Pre,2022_Mar_22_1134,N-Back (New Version 2021),2021.1.4,120.00350410106122,
,,,,Conditions/Version_1/oneback(2)_v1.xlsx,New rule: Press 'space' when you see 1-back (i.e. the same letter as the one that appeared 1 letter ago.),q,None,,,,,,,,,0,4,4,4,0,0,0,0,,,,,,,,,,,,,,,,,,,,,,,,,,,,,,,,,,,,,,,,,,,,,,,,,,,,,,,,,,,562.3123452999862,None,565.2973396999878,None,space,1.2288418000098318,565.2973396999878,None,562.3123452999862,None,1.9152,568.4811549999868,None,None,1,568.4811549999868,None,,P031,FENCOG,2,Pre,2022_Mar_22_1134,N-Back (New Version 2021),2021.1.4,120.00350410106122,
,,,,Conditions/Version_1/oneback(2)_v1.xlsx,New rule: Press 'space' when you see 1-back (i.e. the same letter as the one that appeared 1 letter ago.),Q,space,,,,,,,,,0,4,4,4,0,1,1,1,,,,,,,,,,,,,,,,,,,,,,,,,,,,,,,,,,,,,,,,,,,,,,,,,,,,,,,,,,,,,,,,,,,,,1.3014,571.7931621999596,None,space,1,571.7931621999596,None,0.3170436000218615,P031,FENCOG,2,Pre,2022_Mar_22_1134,N-Back (New Version 2021),2021.1.4,120.00350410106122,
,,,,Conditions/Version_1/oneback(2)_v1.xlsx,New rule: Press 'space' when you see 1-back (i.e. the same letter as the one that appeared 1 letter ago.),P,None,,,,,,,,,0,4,4,4,0,2,2,2,,,,,,,,,,,,,,,,,,,,,,,,,,,,,,,,,,,,,,,,,,,,,,,,,,,,,,,,,,,,,,,,,,,,,1.63,575.425359099987,None,None,1,575.425359099987,None,,P031,FENCOG,2,Pre,2022_Mar_22_1134,N-Back (New Version 2021),2021.1.4,120.00350410106122,
,,,,Conditions/Version_1/oneback(2)_v1.xlsx,New rule: Press 'space' when you see 1-back (i.e. the same letter as the one that appeared 1 letter ago.),o,None,,,,,,,,,0,4,4,4,0,3,3,3,,,,,,,,,,,,,,,,,,,,,,,,,,,,,,,,,,,,,,,,,,,,,,,,,,,,,,,,,,,,,,,,,,,,,1.6982,579.1311075999984,None,None,1,579.1311075999984,None,,P031,FENCOG,2,Pre,2022_Mar_22_1134,N-Back (New Version 2021),2021.1.4,120.00350410106122,
,,,,Conditions/Version_1/oneback(2)_v1.xlsx,New rule: Press 'space' when you see 1-back (i.e. the same letter as the one that appeared 1 letter ago.),m,None,,,,,,,,,0,4,4,4,0,4,4,4,,,,,,,,,,,,,,,,,,,,,,,,,,,,,,,,,,,,,,,,,,,,,,,,,,,,,,,,,,,,,,,,,,,,,1.9772,583.1064836999867,None,None,1,583.1064836999867,None,,P031,FENCOG,2,Pre,2022_Mar_22_1134,N-Back (New Version 2021),2021.1.4,120.00350410106122,
,,,,Conditions/Version_1/oneback(2)_v1.xlsx,New rule: Press 'space' when you see 1-back (i.e. the same letter as the one that appeared 1 letter ago.),Z,None,,,,,,,,,0,4,4,4,0,5,5,5,,,,,,,,,,,,,,,,,,,,,,,,,,,,,,,,,,,,,,,,,,,,,,,,,,,,,,,,,,,,,,,,,,,,,1.8656,586.9748265999951,None,None,1,586.9748265999951,None,,P031,FENCOG,2,Pre,2022_Mar_22_1134,N-Back (New Version 2021),2021.1.4,120.00350410106122,
,,,,Conditions/Version_1/oneback(2)_v1.xlsx,New rule: Press 'space' when you see 1-back (i.e. the same letter as the one that appeared 1 letter ago.),c,None,,,,,,,,,0,4,4,4,0,6,6,6,,,,,,,,,,,,,,,,,,,,,,,,,,,,,,,,,,,,,,,,,,,,,,,,,,,,,,,,,,,,,,,,,,,,,1.2146,590.1977005999652,None,None,1,590.1977005999652,None,,P031,FENCOG,2,Pre,2022_Mar_22_1134,N-Back (New Version 2021),2021.1.4,120.00350410106122,
,,,,Conditions/Version_1/oneback(2)_v1.xlsx,New rule: Press 'space' when you see 1-back (i.e. the same letter as the one that appeared 1 letter ago.),c,space,,,,,,,,,0,4,4,4,0,7,7,7,,,,,,,,,,,,,,,,,,,,,,,,,,,,,,,,,,,,,,,,,,,,,,,,,,,,,,,,,,,,,,,,,,,,,1.01,593.2201502000098,None,space,1,593.2201502000098,None,0.4181333999731578,P031,FENCOG,2,Pre,2022_Mar_22_1134,N-Back (New Version 2021),2021.1.4,120.00350410106122,
,,,,Conditions/Version_1/oneback(2)_v1.xlsx,New rule: Press 'space' when you see 1-back (i.e. the same letter as the one that appeared 1 letter ago.),P,None,,,,,,,,,0,4,4,4,0,8,8,8,,,,,,,,,,,,,,,,,,,,,,,,,,,,,,,,,,,,,,,,,,,,,,,,,,,,,,,,,,,,,,,,,,,,,1.5184,596.7482563999947,None,None,1,596.7482563999947,None,,P031,FENCOG,2,Pre,2022_Mar_22_1134,N-Back (New Version 2021),2021.1.4,120.00350410106122,
,,,,Conditions/Version_1/oneback(2)_v1.xlsx,New rule: Press 'space' when you see 1-back (i.e. the same letter as the one that appeared 1 letter ago.),p,space,,,,,,,,,0,4,4,4,0,9,9,9,,,,,,,,,,,,,,,,,,,,,,,,,,,,,,,,,,,,,,,,,,,,,,,,,,,,,,,,,,,,,,,,,,,,,1.8284,600.5845897999825,None,space,1,600.5845897999825,None,0.30976819997886196,P031,FENCOG,2,Pre,2022_Mar_22_1134,N-Back (New Version 2021),2021.1.4,120.00350410106122,
,,,,Conditions/Version_1/oneback(2)_v1.xlsx,New rule: Press 'space' when you see 1-back (i.e. the same letter as the one that appeared 1 letter ago.),,,,,,,,,,,0,4,4,4,,,,,,,,,,,,,,,,,,,,,,,,,,,,,,,,,,,,,,,,,,,,,,,,,,,,,,,,,,,,,,,,,,,,,,,,,,,,,,,,,P031,FENCOG,2,Pre,2022_Mar_22_1134,N-Back (New Version 2021),2021.1.4,120.00350410106122,
,,,,Conditions/Version_1/zeroback(2)_v1.xlsx,New rule: Press 'space' when you see the letter 'x' or 'X'.,p,None,,,,,,,,,0,5,5,5,0,0,0,0,,,,,,,,,,,,,,,,,,,,,,,,,,,,,,,,,,,,,,,,,,,,,,,,,,,,,,,,,,,602.6059338999912,None,605.5928823999711,None,space,1.3014235000009649,605.5928823999711,None,602.6059338999912,None,1.3014,608.2323689999757,None,None,1,608.2323689999757,None,,P031,FENCOG,2,Pre,2022_Mar_22_1134,N-Back (New Version 2021),2021.1.4,120.00350410106122,
,,,,Conditions/Version_1/zeroback(2)_v1.xlsx,New rule: Press 'space' when you see the letter 'x' or 'X'.,L,None,,,,,,,,,0,5,5,5,0,1,1,1,,,,,,,,,,,,,,,,,,,,,,,,,,,,,,,,,,,,,,,,,,,,,,,,,,,,,,,,,,,,,,,,,,,,,1.847,612.0810939999647,None,None,1,612.0810939999647,None,,P031,FENCOG,2,Pre,2022_Mar_22_1134,N-Back (New Version 2021),2021.1.4,120.00350410106122,
,,,,Conditions/Version_1/zeroback(2)_v1.xlsx,New rule: Press 'space' when you see the letter 'x' or 'X'.,G,None,,,,,,,,,0,5,5,5,0,2,2,2,,,,,,,,,,,,,,,,,,,,,,,,,,,,,,,,,,,,,,,,,,,,,,,,,,,,,,,,,,,,,,,,,,,,,1.2022,615.2927858000039,None,None,1,615.2927858000039,None,,P031,FENCOG,2,Pre,2022_Mar_22_1134,N-Back (New Version 2021),2021.1.4,120.00350410106122,
,,,,Conditions/Version_1/zeroback(2)_v1.xlsx,New rule: Press 'space' when you see the letter 'x' or 'X'.,y,None,,,,,,,,,0,5,5,5,0,3,3,3,,,,,,,,,,,,,,,,,,,,,,,,,,,,,,,,,,,,,,,,,,,,,,,,,,,,,,,,,,,,,,,,,,,,,1.878,619.1789648999693,None,None,1,619.1789648999693,None,,P031,FENCOG,2,Pre,2022_Mar_22_1134,N-Back (New Version 2021),2021.1.4,120.00350410106122,
,,,,Conditions/Version_1/zeroback(2)_v1.xlsx,New rule: Press 'space' when you see the letter 'x' or 'X'.,Y,None,,,,,,,,,0,5,5,5,0,4,4,4,,,,,,,,,,,,,,,,,,,,,,,,,,,,,,,,,,,,,,,,,,,,,,,,,,,,,,,,,,,,,,,,,,,,,1.5246,622.7055939999991,None,None,1,622.7055939999991,None,,P031,FENCOG,2,Pre,2022_Mar_22_1134,N-Back (New Version 2021),2021.1.4,120.00350410106122,
,,,,Conditions/Version_1/zeroback(2)_v1.xlsx,New rule: Press 'space' when you see the letter 'x' or 'X'.,W,None,,,,,,,,,0,5,5,5,0,5,5,5,,,,,,,,,,,,,,,,,,,,,,,,,,,,,,,,,,,,,,,,,,,,,,,,,,,,,,,,,,,,,,,,,,,,,1.4254,626.1368054999621,None,None,1,626.1368054999621,None,,P031,FENCOG,2,Pre,2022_Mar_22_1134,N-Back (New Version 2021),2021.1.4,120.00350410106122,
,,,,Conditions/Version_1/zeroback(2)_v1.xlsx,New rule: Press 'space' when you see the letter 'x' or 'X'.,x,space,,,,,,,,,0,5,5,5,0,6,6,6,,,,,,,,,,,,,,,,,,,,,,,,,,,,,,,,,,,,,,,,,,,,,,,,,,,,,,,,,,,,,,,,,,,,,1.2642,629.4093980999896,None,space,1,629.4093980999896,None,0.3247224999940954,P031,FENCOG,2,Pre,2022_Mar_22_1134,N-Back (New Version 2021),2021.1.4,120.00350410106122,
,,,,Conditions/Version_1/zeroback(2)_v1.xlsx,New rule: Press 'space' when you see the letter 'x' or 'X'.,X,space,,,,,,,,,0,5,5,5,0,7,7,7,,,,,,,,,,,,,,,,,,,,,,,,,,,,,,,,,,,,,,,,,,,,,,,,,,,,,,,,,,,,,,,,,,,,,1.9834,633.392135299975,None,space,1,633.392135299975,None,0.31806000001961365,P031,FENCOG,2,Pre,2022_Mar_22_1134,N-Back (New Version 2021),2021.1.4,120.00350410106122,
,,,,Conditions/Version_1/zeroback(2)_v1.xlsx,New rule: Press 'space' when you see the letter 'x' or 'X'.,p,None,,,,,,,,,0,5,5,5,0,8,8,8,,,,,,,,,,,,,,,,,,,,,,,,,,,,,,,,,,,,,,,,,,,,,,,,,,,,,,,,,,,,,,,,,,,,,1.5432,636.9496187999612,None,None,1,636.9496187999612,None,,P031,FENCOG,2,Pre,2022_Mar_22_1134,N-Back (New Version 2021),2021.1.4,120.00350410106122,
,,,,Conditions/Version_1/zeroback(2)_v1.xlsx,New rule: Press 'space' when you see the letter 'x' or 'X'.,h,None,,,,,,,,,0,5,5,5,0,9,9,9,,,,,,,,,,,,,,,,,,,,,,,,,,,,,,,,,,,,,,,,,,,,,,,,,,,,,,,,,,,,,,,,,,,,,1.8904,640.8475230999757,None,None,1,640.8475230999757,None,,P031,FENCOG,2,Pre,2022_Mar_22_1134,N-Back (New Version 2021),2021.1.4,120.00350410106122,
,,,,Conditions/Version_1/zeroback(2)_v1.xlsx,New rule: Press 'space' when you see the letter 'x' or 'X'.,,,,,,,,,,,0,5,5,5,,,,,,,,,,,,,,,,,,,,,,,,,,,,,,,,,,,,,,,,,,,,,,,,,,,,,,,,,,,,,,,,,,,,,,,,,,,,,,,,,P031,FENCOG,2,Pre,2022_Mar_22_1134,N-Back (New Version 2021),2021.1.4,120.00350410106122,
,,,,Conditions/Version_1/threeback(2)_v1.xlsx,New rule: Press 'space' when you see 3-back (i.e. the same letter as the one that appeared 3 letters ago.),q,None,,,,,,,,,0,6,6,6,0,0,0,0,,,,,,,,,,,,,,,,,,,,,,,,,,,,,,,,,,,,,,,,,,,,,,,,,,,,,,,,,,,642.8693072000169,None,645.8569316999638,None,space,1.6372034999658354,645.8569316999638,None,642.8693072000169,None,1.7478,649.2783963999827,None,None,1,649.2783963999827,None,,P031,FENCOG,2,Pre,2022_Mar_22_1134,N-Back (New Version 2021),2021.1.4,120.00350410106122,
,,,,Conditions/Version_1/threeback(2)_v1.xlsx,New rule: Press 'space' when you see 3-back (i.e. the same letter as the one that appeared 3 letters ago.),Y,None,,,,,,,,,0,6,6,6,0,1,1,1,,,,,,,,,,,,,,,,,,,,,,,,,,,,,,,,,,,,,,,,,,,,,,,,,,,,,,,,,,,,,,,,,,,,,1.8222,653.1022520000115,None,None,1,653.1022520000115,None,,P031,FENCOG,2,Pre,2022_Mar_22_1134,N-Back (New Version 2021),2021.1.4,120.00350410106122,
,,,,Conditions/Version_1/threeback(2)_v1.xlsx,New rule: Press 'space' when you see 3-back (i.e. the same letter as the one that appeared 3 letters ago.),p,None,,,,,,,,,0,6,6,6,0,2,2,2,,,,,,,,,,,,,,,,,,,,,,,,,,,,,,,,,,,,,,,,,,,,,,,,,,,,,,,,,,,,,,,,,,,,,1.3014,656.4097961999942,None,None,1,656.4097961999942,None,,P031,FENCOG,2,Pre,2022_Mar_22_1134,N-Back (New Version 2021),2021.1.4,120.00350410106122,
,,,,Conditions/Version_1/threeback(2)_v1.xlsx,New rule: Press 'space' when you see 3-back (i.e. the same letter as the one that appeared 3 letters ago.),p,None,,,,,,,,,0,6,6,6,0,3,3,3,,,,,,,,,,,,,,,,,,,,,,,,,,,,,,,,,,,,,,,,,,,,,,,,,,,,,,,,,,,,,,,,,,,,,1.0782,659.4922499000095,None,None,1,659.4922499000095,None,,P031,FENCOG,2,Pre,2022_Mar_22_1134,N-Back (New Version 2021),2021.1.4,120.00350410106122,
,,,,Conditions/Version_1/threeback(2)_v1.xlsx,New rule: Press 'space' when you see 3-back (i.e. the same letter as the one that appeared 3 letters ago.),y,space,,,,,,,,,0,6,6,6,0,4,4,4,,,,,,,,,,,,,,,,,,,,,,,,,,,,,,,,,,,,,,,,,,,,,,,,,,,,,,,,,,,,,,,,,,,,,1.5556,663.0575882999692,None,space,1,663.0575882999692,None,0.4284598999656737,P031,FENCOG,2,Pre,2022_Mar_22_1134,N-Back (New Version 2021),2021.1.4,120.00350410106122,
,,,,Conditions/Version_1/threeback(2)_v1.xlsx,New rule: Press 'space' when you see 3-back (i.e. the same letter as the one that appeared 3 letters ago.),u,None,,,,,,,,,0,6,6,6,0,5,5,5,,,,,,,,,,,,,,,,,,,,,,,,,,,,,,,,,,,,,,,,,,,,,,,,,,,,,,,,,,,,,,,,,,,,,1.9028,666.9702501000138,None,None,1,666.9702501000138,None,,P031,FENCOG,2,Pre,2022_Mar_22_1134,N-Back (New Version 2021),2021.1.4,120.00350410106122,
,,,,Conditions/Version_1/threeback(2)_v1.xlsx,New rule: Press 'space' when you see 3-back (i.e. the same letter as the one that appeared 3 letters ago.),P,space,,,,,,,,,0,6,6,6,0,6,6,6,,,,,,,,,,,,,,,,,,,,,,,,,,,,,,,,,,,,,,,,,,,,,,,,,,,,,,,,,,,,,,,,,,,,,1.754,670.7306742999936,None,space,1,670.7306742999936,None,0.4194382000132464,P031,FENCOG,2,Pre,2022_Mar_22_1134,N-Back (New Version 2021),2021.1.4,120.00350410106122,
,,,,Conditions/Version_1/threeback(2)_v1.xlsx,New rule: Press 'space' when you see 3-back (i.e. the same letter as the one that appeared 3 letters ago.),a,None,,,,,,,,,0,6,6,6,0,7,7,7,,,,,,,,,,,,,,,,,,,,,,,,,,,,,,,,,,,,,,,,,,,,,,,,,,,,,,,,,,,,,,,,,,,,,1.0968,673.8295380999916,None,None,1,673.8295380999916,None,,P031,FENCOG,2,Pre,2022_Mar_22_1134,N-Back (New Version 2021),2021.1.4,120.00350410106122,
,,,,Conditions/Version_1/threeback(2)_v1.xlsx,New rule: Press 'space' when you see 3-back (i.e. the same letter as the one that appeared 3 letters ago.),U,space,,,,,,,,,0,6,6,6,0,8,8,8,,,,,,,,,,,,,,,,,,,,,,,,,,,,,,,,,,,,,,,,,,,,,,,,,,,,,,,,,,,,,,,,,,,,,1.7974,677.6297335000127,None,space,1,677.6297335000127,None,0.3363703000359237,P031,FENCOG,2,Pre,2022_Mar_22_1134,N-Back (New Version 2021),2021.1.4,120.00350410106122,
,,,,Conditions/Version_1/threeback(2)_v1.xlsx,New rule: Press 'space' when you see 3-back (i.e. the same letter as the one that appeared 3 letters ago.),q,None,,,,,,,,,0,6,6,6,0,9,9,9,,,,,,,,,,,,,,,,,,,,,,,,,,,,,,,,,,,,,,,,,,,,,,,,,,,,,,,,,,,,,,,,,,,,,1.0472,680.685785699985,None,None,1,680.685785699985,None,,P031,FENCOG,2,Pre,2022_Mar_22_1134,N-Back (New Version 2021),2021.1.4,120.00350410106122,
,,,,Conditions/Version_1/threeback(2)_v1.xlsx,New rule: Press 'space' when you see 3-back (i.e. the same letter as the one that appeared 3 letters ago.),,,,,,,,,,,0,6,6,6,,,,,,,,,,,,,,,,,,,,,,,,,,,,,,,,,,,,,,,,,,,,,,,,,,,,,,,,,,,,,,,,,,,,,,,,,,,,,,,,,P031,FENCOG,2,Pre,2022_Mar_22_1134,N-Back (New Version 2021),2021.1.4,120.00350410106122,
,,,,Conditions/Version_1/twoback(2)_v1.xlsx,New rule: Press 'space' when you see 2-back (i.e. the same letter as the one that appeared 2 letters ago.),q,None,,,,,,,,,0,7,7,7,0,0,0,0,,,,,,,,,,,,,,,,,,,,,,,,,,,,,,,,,,,,,,,,,,,,,,,,,,,,,,,,,,,682.7089213000145,None,685.694645599986,None,space,2.4393401999841444,685.694645599986,None,682.7089213000145,None,1.9028,690.0746421999647,None,None,1,690.0746421999647,None,,P031,FENCOG,2,Pre,2022_Mar_22_1134,N-Back (New Version 2021),2021.1.4,120.00350410106122,
,,,,Conditions/Version_1/twoback(2)_v1.xlsx,New rule: Press 'space' when you see 2-back (i.e. the same letter as the one that appeared 2 letters ago.),r,None,,,,,,,,,0,7,7,7,0,1,1,1,,,,,,,,,,,,,,,,,,,,,,,,,,,,,,,,,,,,,,,,,,,,,,,,,,,,,,,,,,,,,,,,,,,,,1.3572,693.4329948999803,None,None,1,693.4329948999803,None,,P031,FENCOG,2,Pre,2022_Mar_22_1134,N-Back (New Version 2021),2021.1.4,120.00350410106122,
,,,,Conditions/Version_1/twoback(2)_v1.xlsx,New rule: Press 'space' when you see 2-back (i.e. the same letter as the one that appeared 2 letters ago.),q,space,,,,,,,,,0,7,7,7,0,2,2,2,,,,,,,,,,,,,,,,,,,,,,,,,,,,,,,,,,,,,,,,,,,,,,,,,,,,,,,,,,,,,,,,,,,,,1.4626,696.906050199992,None,space,1,696.906050199992,None,0.6759460999746807,P031,FENCOG,2,Pre,2022_Mar_22_1134,N-Back (New Version 2021),2021.1.4,120.00350410106122,
,,,,Conditions/Version_1/twoback(2)_v1.xlsx,New rule: Press 'space' when you see 2-back (i.e. the same letter as the one that appeared 2 letters ago.),P,None,,,,,,,,,0,7,7,7,0,3,3,3,,,,,,,,,,,,,,,,,,,,,,,,,,,,,,,,,,,,,,,,,,,,,,,,,,,,,,,,,,,,,,,,,,,,,1.0534,699.9637010999722,None,None,1,699.9637010999722,None,,P031,FENCOG,2,Pre,2022_Mar_22_1134,N-Back (New Version 2021),2021.1.4,120.00350410106122,
,,,,Conditions/Version_1/twoback(2)_v1.xlsx,New rule: Press 'space' when you see 2-back (i.e. the same letter as the one that appeared 2 letters ago.),p,None,,,,,,,,,0,7,7,7,0,4,4,4,,,,,,,,,,,,,,,,,,,,,,,,,,,,,,,,,,,,,,,,,,,,,,,,,,,,,,,,,,,,,,,,,,,,,1.165,703.1295443999697,None,None,1,703.1295443999697,None,,P031,FENCOG,2,Pre,2022_Mar_22_1134,N-Back (New Version 2021),2021.1.4,120.00350410106122,
,,,,Conditions/Version_1/twoback(2)_v1.xlsx,New rule: Press 'space' when you see 2-back (i.e. the same letter as the one that appeared 2 letters ago.),H,None,,,,,,,,,0,7,7,7,0,5,5,5,,,,,,,,,,,,,,,,,,,,,,,,,,,,,,,,,,,,,,,,,,,,,,,,,,,,,,,,,,,,,,,,,,,,,1.723,706.8531000000075,None,space,0,706.8531000000075,None,0.705008499964606,P031,FENCOG,2,Pre,2022_Mar_22_1134,N-Back (New Version 2021),2021.1.4,120.00350410106122,
,,,,Conditions/Version_1/twoback(2)_v1.xlsx,New rule: Press 'space' when you see 2-back (i.e. the same letter as the one that appeared 2 letters ago.),g,None,,,,,,,,,0,7,7,7,0,6,6,6,,,,,,,,,,,,,,,,,,,,,,,,,,,,,,,,,,,,,,,,,,,,,,,,,,,,,,,,,,,,,,,,,,,,,1.382,710.2352518999833,None,None,1,710.2352518999833,None,,P031,FENCOG,2,Pre,2022_Mar_22_1134,N-Back (New Version 2021),2021.1.4,120.00350410106122,
,,,,Conditions/Version_1/twoback(2)_v1.xlsx,New rule: Press 'space' when you see 2-back (i.e. the same letter as the one that appeared 2 letters ago.),j,None,,,,,,,,,0,7,7,7,0,7,7,7,,,,,,,,,,,,,,,,,,,,,,,,,,,,,,,,,,,,,,,,,,,,,,,,,,,,,,,,,,,,,,,,,,,,,1.134,713.3687279999722,None,None,1,713.3687279999722,None,,P031,FENCOG,2,Pre,2022_Mar_22_1134,N-Back (New Version 2021),2021.1.4,120.00350410106122,
,,,,Conditions/Version_1/twoback(2)_v1.xlsx,New rule: Press 'space' when you see 2-back (i.e. the same letter as the one that appeared 2 letters ago.),g,space,,,,,,,,,0,7,7,7,0,8,8,8,,,,,,,,,,,,,,,,,,,,,,,,,,,,,,,,,,,,,,,,,,,,,,,,,,,,,,,,,,,,,,,,,,,,,1.878,717.2590516000055,None,space,1,717.2590516000055,None,0.42704119998961687,P031,FENCOG,2,Pre,2022_Mar_22_1134,N-Back (New Version 2021),2021.1.4,120.00350410106122,
,,,,Conditions/Version_1/twoback(2)_v1.xlsx,New rule: Press 'space' when you see 2-back (i.e. the same letter as the one that appeared 2 letters ago.),G,None,,,,,,,,,0,7,7,7,0,9,9,9,,,,,,,,,,,,,,,,,,,,,,,,,,,,,,,,,,,,,,,,,,,,,,,,,,,,,,,,,,,,,,,,,,,,,1.6424,720.9174919999787,None,None,1,720.9174919999787,None,,P031,FENCOG,2,Pre,2022_Mar_22_1134,N-Back (New Version 2021),2021.1.4,120.00350410106122,
,,,,Conditions/Version_1/twoback(2)_v1.xlsx,New rule: Press 'space' when you see 2-back (i.e. the same letter as the one that appeared 2 letters ago.),,,,,,,,,,,0,7,7,7,,,,,,,,,,,,,,,,,,,,,,,,,,,,,,,,,,,,,,,,,,,,,,,,,,,,,,,,,,,,,,,,,,,,,,,,,,,,,,,,,P031,FENCOG,2,Pre,2022_Mar_22_1134,N-Back (New Version 2021),2021.1.4,120.00350410106122,
,,,,Conditions/Version_1/threeback(3)_v1.xlsx,New rule: Press 'space' when you see 3-back (i.e. the same letter as the one that appeared 3 letters ago.),w,None,,,,,,,,,0,8,8,8,0,0,0,0,,,,,,,,,,,,,,,,,,,,,,,,,,,,,,,,,,,,,,,,,,,,,,,,,,,,,,,,,,,722.9411917999969,None,725.9248570000054,None,space,15.168913700035773,725.9248570000054,None,722.9411917999969,None,1.0968,742.2273767999723,None,None,1,742.2273767999723,None,,P031,FENCOG,2,Pre,2022_Mar_22_1134,N-Back (New Version 2021),2021.1.4,120.00350410106122,
,,,,Conditions/Version_1/threeback(3)_v1.xlsx,New rule: Press 'space' when you see 3-back (i.e. the same letter as the one that appeared 3 letters ago.),p,None,,,,,,,,,0,8,8,8,0,1,1,1,,,,,,,,,,,,,,,,,,,,,,,,,,,,,,,,,,,,,,,,,,,,,,,,,,,,,,,,,,,,,,,,,,,,,1.816,746.0579229000141,None,None,1,746.0579229000141,None,,P031,FENCOG,2,Pre,2022_Mar_22_1134,N-Back (New Version 2021),2021.1.4,120.00350410106122,
,,,,Conditions/Version_1/threeback(3)_v1.xlsx,New rule: Press 'space' when you see 3-back (i.e. the same letter as the one that appeared 3 letters ago.),P,None,,,,,,,,,0,8,8,8,0,2,2,2,,,,,,,,,,,,,,,,,,,,,,,,,,,,,,,,,,,,,,,,,,,,,,,,,,,,,,,,,,,,,,,,,,,,,1.7726,749.8319436999736,None,None,1,749.8319436999736,None,,P031,FENCOG,2,Pre,2022_Mar_22_1134,N-Back (New Version 2021),2021.1.4,120.00350410106122,
,,,,Conditions/Version_1/threeback(3)_v1.xlsx,New rule: Press 'space' when you see 3-back (i.e. the same letter as the one that appeared 3 letters ago.),i,None,,,,,,,,,0,8,8,8,0,3,3,3,,,,,,,,,,,,,,,,,,,,,,,,,,,,,,,,,,,,,,,,,,,,,,,,,,,,,,,,,,,,,,,,,,,,,1.444,753.2808028999716,None,None,1,753.2808028999716,None,,P031,FENCOG,2,Pre,2022_Mar_22_1134,N-Back (New Version 2021),2021.1.4,120.00350410106122,
,,,,Conditions/Version_1/threeback(3)_v1.xlsx,New rule: Press 'space' when you see 3-back (i.e. the same letter as the one that appeared 3 letters ago.),f,None,,,,,,,,,0,8,8,8,0,4,4,4,,,,,,,,,,,,,,,,,,,,,,,,,,,,,,,,,,,,,,,,,,,,,,,,,,,,,,,,,,,,,,,,,,,,,1.1278,756.4201213999768,None,None,1,756.4201213999768,None,,P031,FENCOG,2,Pre,2022_Mar_22_1134,N-Back (New Version 2021),2021.1.4,120.00350410106122,
,,,,Conditions/Version_1/threeback(3)_v1.xlsx,New rule: Press 'space' when you see 3-back (i.e. the same letter as the one that appeared 3 letters ago.),o,None,,,,,,,,,0,8,8,8,0,5,5,5,,,,,,,,,,,,,,,,,,,,,,,,,,,,,,,,,,,,,,,,,,,,,,,,,,,,,,,,,,,,,,,,,,,,,1.4688,759.8955280999653,None,None,1,759.8955280999653,None,,P031,FENCOG,2,Pre,2022_Mar_22_1134,N-Back (New Version 2021),2021.1.4,120.00350410106122,
,,,,Conditions/Version_1/threeback(3)_v1.xlsx,New rule: Press 'space' when you see 3-back (i.e. the same letter as the one that appeared 3 letters ago.),w,None,,,,,,,,,0,8,8,8,0,6,6,6,,,,,,,,,,,,,,,,,,,,,,,,,,,,,,,,,,,,,,,,,,,,,,,,,,,,,,,,,,,,,,,,,,,,,1.8284,763.7286715999944,None,None,1,763.7286715999944,None,,P031,FENCOG,2,Pre,2022_Mar_22_1134,N-Back (New Version 2021),2021.1.4,120.00350410106122,
,,,,Conditions/Version_1/threeback(3)_v1.xlsx,New rule: Press 'space' when you see 3-back (i.e. the same letter as the one that appeared 3 letters ago.),F,space,,,,,,,,,0,8,8,8,0,7,7,7,,,,,,,,,,,,,,,,,,,,,,,,,,,,,,,,,,,,,,,,,,,,,,,,,,,,,,,,,,,,,,,,,,,,,1.7788,767.5182294999831,None,space,1,767.5182294999831,None,0.4876794000156224,P031,FENCOG,2,Pre,2022_Mar_22_1134,N-Back (New Version 2021),2021.1.4,120.00350410106122,
,,,,Conditions/Version_1/threeback(3)_v1.xlsx,New rule: Press 'space' when you see 3-back (i.e. the same letter as the one that appeared 3 letters ago.),p,None,,,,,,,,,0,8,8,8,0,8,8,8,,,,,,,,,,,,,,,,,,,,,,,,,,,,,,,,,,,,,,,,,,,,,,,,,,,,,,,,,,,,,,,,,,,,,1.9586,771.4843695000163,None,None,1,771.4843695000163,None,,P031,FENCOG,2,Pre,2022_Mar_22_1134,N-Back (New Version 2021),2021.1.4,120.00350410106122,
,,,,Conditions/Version_1/threeback(3)_v1.xlsx,New rule: Press 'space' when you see 3-back (i.e. the same letter as the one that appeared 3 letters ago.),W,space,,,,,,,,,0,8,8,8,0,9,9,9,,,,,,,,,,,,,,,,,,,,,,,,,,,,,,,,,,,,,,,,,,,,,,,,,,,,,,,,,,,,,,,,,,,,,1.9958,775.4933893000125,None,space,1,775.4933893000125,None,1.2004949999973178,P031,FENCOG,2,Pre,2022_Mar_22_1134,N-Back (New Version 2021),2021.1.4,120.00350410106122,
,,,,Conditions/Version_1/threeback(3)_v1.xlsx,New rule: Press 'space' when you see 3-back (i.e. the same letter as the one that appeared 3 letters ago.),,,,,,,,,,,0,8,8,8,,,,,,,,,,,,,,,,,,,,,,,,,,,,,,,,,,,,,,,,,,,,,,,,,,,,,,,,,,,,,,,,,,,,,,,,,,,,,,,,,P031,FENCOG,2,Pre,2022_Mar_22_1134,N-Back (New Version 2021),2021.1.4,120.00350410106122,
,,,,Conditions/Version_1/zeroback(3)_v1.xlsx,New rule: Press 'space' when you see the letter 'x' or 'X'.,X,space,,,,,,,,,0,9,9,9,0,0,0,0,,,,,,,,,,,,,,,,,,,,,,,,,,,,,,,,,,,,,,,,,,,,,,,,,,,,,,,,,,,777.519265400013,None,780.508008099976,None,space,1.3701799999689683,780.508008099976,None,777.519265400013,None,1.6796,783.5883055999875,None,space,1,783.5883055999875,None,0.40163410000968724,P031,FENCOG,2,Pre,2022_Mar_22_1134,N-Back (New Version 2021),2021.1.4,120.00350410106122,
,,,,Conditions/Version_1/zeroback(3)_v1.xlsx,New rule: Press 'space' when you see the letter 'x' or 'X'.,B,None,,,,,,,,,0,9,9,9,0,1,1,1,,,,,,,,,,,,,,,,,,,,,,,,,,,,,,,,,,,,,,,,,,,,,,,,,,,,,,,,,,,,,,,,,,,,,1.6672,787.2645186000154,None,None,1,787.2645186000154,None,,P031,FENCOG,2,Pre,2022_Mar_22_1134,N-Back (New Version 2021),2021.1.4,120.00350410106122,
,,,,Conditions/Version_1/zeroback(3)_v1.xlsx,New rule: Press 'space' when you see the letter 'x' or 'X'.,m,None,,,,,,,,,0,9,9,9,0,2,2,2,,,,,,,,,,,,,,,,,,,,,,,,,,,,,,,,,,,,,,,,,,,,,,,,,,,,,,,,,,,,,,,,,,,,,1.8594,791.1363163999631,None,None,1,791.1363163999631,None,,P031,FENCOG,2,Pre,2022_Mar_22_1134,N-Back (New Version 2021),2021.1.4,120.00350410106122,
,,,,Conditions/Version_1/zeroback(3)_v1.xlsx,New rule: Press 'space' when you see the letter 'x' or 'X'.,m,None,,,,,,,,,0,9,9,9,0,3,3,3,,,,,,,,,,,,,,,,,,,,,,,,,,,,,,,,,,,,,,,,,,,,,,,,,,,,,,,,,,,,,,,,,,,,,1.4936,794.6351929999655,None,None,1,794.6351929999655,None,,P031,FENCOG,2,Pre,2022_Mar_22_1134,N-Back (New Version 2021),2021.1.4,120.00350410106122,
,,,,Conditions/Version_1/zeroback(3)_v1.xlsx,New rule: Press 'space' when you see the letter 'x' or 'X'.,o,None,,,,,,,,,0,9,9,9,0,4,4,4,,,,,,,,,,,,,,,,,,,,,,,,,,,,,,,,,,,,,,,,,,,,,,,,,,,,,,,,,,,,,,,,,,,,,1.7416,798.384199299966,None,None,1,798.384199299966,None,,P031,FENCOG,2,Pre,2022_Mar_22_1134,N-Back (New Version 2021),2021.1.4,120.00350410106122,
,,,,Conditions/Version_1/zeroback(3)_v1.xlsx,New rule: Press 'space' when you see the letter 'x' or 'X'.,p,None,,,,,,,,,0,9,9,9,0,5,5,5,,,,,,,,,,,,,,,,,,,,,,,,,,,,,,,,,,,,,,,,,,,,,,,,,,,,,,,,,,,,,,,,,,,,,1.94,802.3279563999968,None,None,1,802.3279563999968,None,,P031,FENCOG,2,Pre,2022_Mar_22_1134,N-Back (New Version 2021),2021.1.4,120.00350410106122,
,,,,Conditions/Version_1/zeroback(3)_v1.xlsx,New rule: Press 'space' when you see the letter 'x' or 'X'.,G,None,,,,,,,,,0,9,9,9,0,6,6,6,,,,,,,,,,,,,,,,,,,,,,,,,,,,,,,,,,,,,,,,,,,,,,,,,,,,,,,,,,,,,,,,,,,,,1.3944,805.7319475999684,None,None,1,805.7319475999684,None,,P031,FENCOG,2,Pre,2022_Mar_22_1134,N-Back (New Version 2021),2021.1.4,120.00350410106122,
,,,,Conditions/Version_1/zeroback(3)_v1.xlsx,New rule: Press 'space' when you see the letter 'x' or 'X'.,X,space,,,,,,,,,0,9,9,9,0,7,7,7,,,,,,,,,,,,,,,,,,,,,,,,,,,,,,,,,,,,,,,,,,,,,,,,,,,,,,,,,,,,,,,,,,,,,1.7168,809.4475067000021,None,space,1,809.4475067000021,None,0.3182581000146456,P031,FENCOG,2,Pre,2022_Mar_22_1134,N-Back (New Version 2021),2021.1.4,120.00350410106122,
,,,,Conditions/Version_1/zeroback(3)_v1.xlsx,New rule: Press 'space' when you see the letter 'x' or 'X'.,p,None,,,,,,,,,0,9,9,9,0,8,8,8,,,,,,,,,,,,,,,,,,,,,,,,,,,,,,,,,,,,,,,,,,,,,,,,,,,,,,,,,,,,,,,,,,,,,1.506,812.9557755999849,None,None,1,812.9557755999849,None,,P031,FENCOG,2,Pre,2022_Mar_22_1134,N-Back (New Version 2021),2021.1.4,120.00350410106122,
,,,,Conditions/Version_1/zeroback(3)_v1.xlsx,New rule: Press 'space' when you see the letter 'x' or 'X'.,x,space,,,,,,,,,0,9,9,9,0,9,9,9,,,,,,,,,,,,,,,,,,,,,,,,,,,,,,,,,,,,,,,,,,,,,,,,,,,,,,,,,,,,,,,,,,,,,1.2642,816.2287769999821,None,space,1,816.2287769999821,None,0.32927040004869923,P031,FENCOG,2,Pre,2022_Mar_22_1134,N-Back (New Version 2021),2021.1.4,120.00350410106122,
,,,,Conditions/Version_1/zeroback(3)_v1.xlsx,New rule: Press 'space' when you see the letter 'x' or 'X'.,,,,,,,,,,,0,9,9,9,,,,,,,,,,,,,,,,,,,,,,,,,,,,,,,,,,,,,,,,,,,,,,,,,,,,,,,,,,,,,,,,,,,,,,,,,,,,,,,,,P031,FENCOG,2,Pre,2022_Mar_22_1134,N-Back (New Version 2021),2021.1.4,120.00350410106122,
,,,,Conditions/Version_1/twoback(3)_v1.xlsx,New rule: Press 'space' when you see 2-back (i.e. the same letter as the one that appeared 2 letters ago.),e,None,,,,,,,,,0,10,10,10,0,0,0,0,,,,,,,,,,,,,,,,,,,,,,,,,,,,,,,,,,,,,,,,,,,,,,,,,,,,,,,,,,,818.2528813999961,None,821.2384180999943,None,space,0.9032211999874562,821.2384180999943,None,818.2528813999961,None,1.4998,823.6789934000117,None,None,1,823.6789934000117,None,,P031,FENCOG,2,Pre,2022_Mar_22_1134,N-Back (New Version 2021),2021.1.4,120.00350410106122,
,,,,Conditions/Version_1/twoback(3)_v1.xlsx,New rule: Press 'space' when you see 2-back (i.e. the same letter as the one that appeared 2 letters ago.),o,None,,,,,,,,,0,10,10,10,0,1,1,1,,,,,,,,,,,,,,,,,,,,,,,,,,,,,,,,,,,,,,,,,,,,,,,,,,,,,,,,,,,,,,,,,,,,,1.0596,826.7506733000046,None,None,1,826.7506733000046,None,,P031,FENCOG,2,Pre,2022_Mar_22_1134,N-Back (New Version 2021),2021.1.4,120.00350410106122,
,,,,Conditions/Version_1/twoback(3)_v1.xlsx,New rule: Press 'space' when you see 2-back (i.e. the same letter as the one that appeared 2 letters ago.),P,None,,,,,,,,,0,10,10,10,0,2,2,2,,,,,,,,,,,,,,,,,,,,,,,,,,,,,,,,,,,,,,,,,,,,,,,,,,,,,,,,,,,,,,,,,,,,,1.3448,830.100575199991,None,None,1,830.100575199991,None,,P031,FENCOG,2,Pre,2022_Mar_22_1134,N-Back (New Version 2021),2021.1.4,120.00350410106122,
,,,,Conditions/Version_1/twoback(3)_v1.xlsx,New rule: Press 'space' when you see 2-back (i.e. the same letter as the one that appeared 2 letters ago.),z,None,,,,,,,,,0,10,10,10,0,3,3,3,,,,,,,,,,,,,,,,,,,,,,,,,,,,,,,,,,,,,,,,,,,,,,,,,,,,,,,,,,,,,,,,,,,,,1.9276,834.0433839999605,None,None,1,834.0433839999605,None,,P031,FENCOG,2,Pre,2022_Mar_22_1134,N-Back (New Version 2021),2021.1.4,120.00350410106122,
,,,,Conditions/Version_1/twoback(3)_v1.xlsx,New rule: Press 'space' when you see 2-back (i.e. the same letter as the one that appeared 2 letters ago.),X,None,,,,,,,,,0,10,10,10,0,4,4,4,,,,,,,,,,,,,,,,,,,,,,,,,,,,,,,,,,,,,,,,,,,,,,,,,,,,,,,,,,,,,,,,,,,,,1.32,837.3724890999729,None,None,1,837.3724890999729,None,,P031,FENCOG,2,Pre,2022_Mar_22_1134,N-Back (New Version 2021),2021.1.4,120.00350410106122,
,,,,Conditions/Version_1/twoback(3)_v1.xlsx,New rule: Press 'space' when you see 2-back (i.e. the same letter as the one that appeared 2 letters ago.),z,space,,,,,,,,,0,10,10,10,0,5,5,5,,,,,,,,,,,,,,,,,,,,,,,,,,,,,,,,,,,,,,,,,,,,,,,,,,,,,,,,,,,,,,,,,,,,,1.3262,840.7049080000143,None,space,1,840.7049080000143,None,0.7729053999646567,P031,FENCOG,2,Pre,2022_Mar_22_1134,N-Back (New Version 2021),2021.1.4,120.00350410106122,
,,,,Conditions/Version_1/twoback(3)_v1.xlsx,New rule: Press 'space' when you see 2-back (i.e. the same letter as the one that appeared 2 letters ago.),x,space,,,,,,,,,0,10,10,10,0,6,6,6,,,,,,,,,,,,,,,,,,,,,,,,,,,,,,,,,,,,,,,,,,,,,,,,,,,,,,,,,,,,,,,,,,,,,1.289,843.9953745999956,None,space,1,843.9953745999956,None,0.7622804999700747,P031,FENCOG,2,Pre,2022_Mar_22_1134,N-Back (New Version 2021),2021.1.4,120.00350410106122,
,,,,Conditions/Version_1/twoback(3)_v1.xlsx,New rule: Press 'space' when you see 2-back (i.e. the same letter as the one that appeared 2 letters ago.),c,None,,,,,,,,,0,10,10,10,0,7,7,7,,,,,,,,,,,,,,,,,,,,,,,,,,,,,,,,,,,,,,,,,,,,,,,,,,,,,,,,,,,,,,,,,,,,,1.5742,847.5699752999935,None,None,1,847.5699752999935,None,,P031,FENCOG,2,Pre,2022_Mar_22_1134,N-Back (New Version 2021),2021.1.4,120.00350410106122,
,,,,Conditions/Version_1/twoback(3)_v1.xlsx,New rule: Press 'space' when you see 2-back (i.e. the same letter as the one that appeared 2 letters ago.),i,None,,,,,,,,,0,10,10,10,0,8,8,8,,,,,,,,,,,,,,,,,,,,,,,,,,,,,,,,,,,,,,,,,,,,,,,,,,,,,,,,,,,,,,,,,,,,,1.9214,851.495299000002,None,None,1,851.495299000002,None,,P031,FENCOG,2,Pre,2022_Mar_22_1134,N-Back (New Version 2021),2021.1.4,120.00350410106122,
,,,,Conditions/Version_1/twoback(3)_v1.xlsx,New rule: Press 'space' when you see 2-back (i.e. the same letter as the one that appeared 2 letters ago.),C,space,,,,,,,,,0,10,10,10,0,9,9,9,,,,,,,,,,,,,,,,,,,,,,,,,,,,,,,,,,,,,,,,,,,,,,,,,,,,,,,,,,,,,,,,,,,,,1.692,855.1938711999683,None,space,1,855.1938711999683,None,0.41966900002444163,P031,FENCOG,2,Pre,2022_Mar_22_1134,N-Back (New Version 2021),2021.1.4,120.00350410106122,
,,,,Conditions/Version_1/twoback(3)_v1.xlsx,New rule: Press 'space' when you see 2-back (i.e. the same letter as the one that appeared 2 letters ago.),,,,,,,,,,,0,10,10,10,,,,,,,,,,,,,,,,,,,,,,,,,,,,,,,,,,,,,,,,,,,,,,,,,,,,,,,,,,,,,,,,,,,,,,,,,,,,,,,,,P031,FENCOG,2,Pre,2022_Mar_22_1134,N-Back (New Version 2021),2021.1.4,120.00350410106122,
,,,,Conditions/Version_1/oneback(3)_v1.xlsx,New rule: Press 'space' when you see 1-back (i.e. the same letter as the one that appeared 1 letter ago.),o,None,,,,,,,,,0,11,11,11,0,0,0,0,,,,,,,,,,,,,,,,,,,,,,,,,,,,,,,,,,,,,,,,,,,,,,,,,,,,,,,,,,,857.2211304999655,None,860.209369499993,None,space,0.48437570000533015,860.209369499993,None,857.2211304999655,None,1.816,862.5400243999902,None,None,1,862.5400243999902,None,,P031,FENCOG,2,Pre,2022_Mar_22_1134,N-Back (New Version 2021),2021.1.4,120.00350410106122,
,,,,Conditions/Version_1/oneback(3)_v1.xlsx,New rule: Press 'space' when you see 1-back (i.e. the same letter as the one that appeared 1 letter ago.),O,space,,,,,,,,,0,11,11,11,0,1,1,1,,,,,,,,,,,,,,,,,,,,,,,,,,,,,,,,,,,,,,,,,,,,,,,,,,,,,,,,,,,,,,,,,,,,,1.9276,866.4749757999671,None,space,1,866.4749757999671,None,0.33867940003983676,P031,FENCOG,2,Pre,2022_Mar_22_1134,N-Back (New Version 2021),2021.1.4,120.00350410106122,
,,,,Conditions/Version_1/oneback(3)_v1.xlsx,New rule: Press 'space' when you see 1-back (i.e. the same letter as the one that appeared 1 letter ago.),h,None,,,,,,,,,0,11,11,11,0,2,2,2,,,,,,,,,,,,,,,,,,,,,,,,,,,,,,,,,,,,,,,,,,,,,,,,,,,,,,,,,,,,,,,,,,,,,1.5432,870.0295289999922,None,None,1,870.0295289999922,None,,P031,FENCOG,2,Pre,2022_Mar_22_1134,N-Back (New Version 2021),2021.1.4,120.00350410106122,
,,,,Conditions/Version_1/oneback(3)_v1.xlsx,New rule: Press 'space' when you see 1-back (i.e. the same letter as the one that appeared 1 letter ago.),g,None,,,,,,,,,0,11,11,11,0,3,3,3,,,,,,,,,,,,,,,,,,,,,,,,,,,,,,,,,,,,,,,,,,,,,,,,,,,,,,,,,,,,,,,,,,,,,1.599,873.6284522999777,None,None,1,873.6284522999777,None,,P031,FENCOG,2,Pre,2022_Mar_22_1134,N-Back (New Version 2021),2021.1.4,120.00350410106122,
,,,,Conditions/Version_1/oneback(3)_v1.xlsx,New rule: Press 'space' when you see 1-back (i.e. the same letter as the one that appeared 1 letter ago.),n,None,,,,,,,,,0,11,11,11,0,4,4,4,,,,,,,,,,,,,,,,,,,,,,,,,,,,,,,,,,,,,,,,,,,,,,,,,,,,,,,,,,,,,,,,,,,,,1.382,877.0118561999989,None,None,1,877.0118561999989,None,,P031,FENCOG,2,Pre,2022_Mar_22_1134,N-Back (New Version 2021),2021.1.4,120.00350410106122,
,,,,Conditions/Version_1/oneback(3)_v1.xlsx,New rule: Press 'space' when you see 1-back (i.e. the same letter as the one that appeared 1 letter ago.),z,None,,,,,,,,,0,11,11,11,0,5,5,5,,,,,,,,,,,,,,,,,,,,,,,,,,,,,,,,,,,,,,,,,,,,,,,,,,,,,,,,,,,,,,,,,,,,,1.8904,880.9100696999812,None,None,1,880.9100696999812,None,,P031,FENCOG,2,Pre,2022_Mar_22_1134,N-Back (New Version 2021),2021.1.4,120.00350410106122,
,,,,Conditions/Version_1/oneback(3)_v1.xlsx,New rule: Press 'space' when you see 1-back (i.e. the same letter as the one that appeared 1 letter ago.),X,None,,,,,,,,,0,11,11,11,0,6,6,6,,,,,,,,,,,,,,,,,,,,,,,,,,,,,,,,,,,,,,,,,,,,,,,,,,,,,,,,,,,,,,,,,,,,,1.7664,884.6752374999924,None,None,1,884.6752374999924,None,,P031,FENCOG,2,Pre,2022_Mar_22_1134,N-Back (New Version 2021),2021.1.4,120.00350410106122,
,,,,Conditions/Version_1/oneback(3)_v1.xlsx,New rule: Press 'space' when you see 1-back (i.e. the same letter as the one that appeared 1 letter ago.),r,None,,,,,,,,,0,11,11,11,0,7,7,7,,,,,,,,,,,,,,,,,,,,,,,,,,,,,,,,,,,,,,,,,,,,,,,,,,,,,,,,,,,,,,,,,,,,,1.8842,888.5656775999814,None,None,1,888.5656775999814,None,,P031,FENCOG,2,Pre,2022_Mar_22_1134,N-Back (New Version 2021),2021.1.4,120.00350410106122,
,,,,Conditions/Version_1/oneback(3)_v1.xlsx,New rule: Press 'space' when you see 1-back (i.e. the same letter as the one that appeared 1 letter ago.),r,space,,,,,,,,,0,11,11,11,0,8,8,8,,,,,,,,,,,,,,,,,,,,,,,,,,,,,,,,,,,,,,,,,,,,,,,,,,,,,,,,,,,,,,,,,,,,,1.7354,892.3078005000134,None,space,1,892.3078005000134,None,0.3616753999958746,P031,FENCOG,2,Pre,2022_Mar_22_1134,N-Back (New Version 2021),2021.1.4,120.00350410106122,
,,,,Conditions/Version_1/oneback(3)_v1.xlsx,New rule: Press 'space' when you see 1-back (i.e. the same letter as the one that appeared 1 letter ago.),P,None,,,,,,,,,0,11,11,11,0,9,9,9,,,,,,,,,,,,,,,,,,,,,,,,,,,,,,,,,,,,,,,,,,,,,,,,,,,,,,,,,,,,,,,,,,,,,1.3944,895.7508519999683,None,None,1,895.7508519999683,None,,P031,FENCOG,2,Pre,2022_Mar_22_1134,N-Back (New Version 2021),2021.1.4,120.00350410106122,
,,,,Conditions/Version_1/oneback(3)_v1.xlsx,New rule: Press 'space' when you see 1-back (i.e. the same letter as the one that appeared 1 letter ago.),,,,,,,,,,,0,11,11,11,,,,,,,,,,,,,,,,,,,,,,,,,,,,,,,,,,,,,,,,,,,,,,,,,,,,,,,,,,,,,,,,,,,,,,,,,,,,,,,,,P031,FENCOG,2,Pre,2022_Mar_22_1134,N-Back (New Version 2021),2021.1.4,120.00350410106122,
,,,,Conditions/Version_1/twoback(4)_v1.xlsx,New rule: Press 'space' when you see 2-back (i.e. the same letter as the one that appeared 2 letters ago.),r,None,,,,,,,,,0,12,12,12,0,0,0,0,,,,,,,,,,,,,,,,,,,,,,,,,,,,,,,,,,,,,,,,,,,,,,,,,,,,,,,,,,,897.7355149000068,None,900.7230490999646,None,space,1.682430699991528,900.7230490999646,None,897.7355149000068,None,1.3758,903.8111149999895,None,None,1,903.8111149999895,None,,P031,FENCOG,2,Pre,2022_Mar_22_1134,N-Back (New Version 2021),2021.1.4,120.00350410106122,
,,,,Conditions/Version_1/twoback(4)_v1.xlsx,New rule: Press 'space' when you see 2-back (i.e. the same letter as the one that appeared 2 letters ago.),T,None,,,,,,,,,0,12,12,12,0,1,1,1,,,,,,,,,,,,,,,,,,,,,,,,,,,,,,,,,,,,,,,,,,,,,,,,,,,,,,,,,,,,,,,,,,,,,1.1836,906.9945667000138,None,None,1,906.9945667000138,None,,P031,FENCOG,2,Pre,2022_Mar_22_1134,N-Back (New Version 2021),2021.1.4,120.00350410106122,
,,,,Conditions/Version_1/twoback(4)_v1.xlsx,New rule: Press 'space' when you see 2-back (i.e. the same letter as the one that appeared 2 letters ago.),o,None,,,,,,,,,0,12,12,12,0,2,2,2,,,,,,,,,,,,,,,,,,,,,,,,,,,,,,,,,,,,,,,,,,,,,,,,,,,,,,,,,,,,,,,,,,,,,1.4688,910.4675363000133,None,None,1,910.4675363000133,None,,P031,FENCOG,2,Pre,2022_Mar_22_1134,N-Back (New Version 2021),2021.1.4,120.00350410106122,
,,,,Conditions/Version_1/twoback(4)_v1.xlsx,New rule: Press 'space' when you see 2-back (i.e. the same letter as the one that appeared 2 letters ago.),p,None,,,,,,,,,0,12,12,12,0,3,3,3,,,,,,,,,,,,,,,,,,,,,,,,,,,,,,,,,,,,,,,,,,,,,,,,,,,,,,,,,,,,,,,,,,,,,1.289,913.7586037999718,None,None,1,913.7586037999718,None,,P031,FENCOG,2,Pre,2022_Mar_22_1134,N-Back (New Version 2021),2021.1.4,120.00350410106122,
,,,,Conditions/Version_1/twoback(4)_v1.xlsx,New rule: Press 'space' when you see 2-back (i.e. the same letter as the one that appeared 2 letters ago.),p,None,,,,,,,,,0,12,12,12,0,4,4,4,,,,,,,,,,,,,,,,,,,,,,,,,,,,,,,,,,,,,,,,,,,,,,,,,,,,,,,,,,,,,,,,,,,,,1.444,917.2073766000103,None,None,1,917.2073766000103,None,,P031,FENCOG,2,Pre,2022_Mar_22_1134,N-Back (New Version 2021),2021.1.4,120.00350410106122,
,,,,Conditions/Version_1/twoback(4)_v1.xlsx,New rule: Press 'space' when you see 2-back (i.e. the same letter as the one that appeared 2 letters ago.),y,None,,,,,,,,,0,12,12,12,0,5,5,5,,,,,,,,,,,,,,,,,,,,,,,,,,,,,,,,,,,,,,,,,,,,,,,,,,,,,,,,,,,,,,,,,,,,,1.5804,920.7974789,None,None,1,920.7974789,None,,P031,FENCOG,2,Pre,2022_Mar_22_1134,N-Back (New Version 2021),2021.1.4,120.00350410106122,
,,,,Conditions/Version_1/twoback(4)_v1.xlsx,New rule: Press 'space' when you see 2-back (i.e. the same letter as the one that appeared 2 letters ago.),P,space,,,,,,,,,0,12,12,12,0,6,6,6,,,,,,,,,,,,,,,,,,,,,,,,,,,,,,,,,,,,,,,,,,,,,,,,,,,,,,,,,,,,,,,,,,,,,1.7292,924.5313681999687,None,space,1,924.5313681999687,None,0.32203139999182895,P031,FENCOG,2,Pre,2022_Mar_22_1134,N-Back (New Version 2021),2021.1.4,120.00350410106122,
,,,,Conditions/Version_1/twoback(4)_v1.xlsx,New rule: Press 'space' when you see 2-back (i.e. the same letter as the one that appeared 2 letters ago.),y,None,,,,,,,,,0,12,12,12,0,7,7,7,,,,,,,,,,,,,,,,,,,,,,,,,,,,,,,,,,,,,,,,,,,,,,,,,,,,,,,,,,,,,,,,,,,,,1.8408,928.3801447000005,None,space,0,928.3801447000005,None,0.8574630999937654,P031,FENCOG,2,Pre,2022_Mar_22_1134,N-Back (New Version 2021),2021.1.4,120.00350410106122,
,,,,Conditions/Version_1/twoback(4)_v1.xlsx,New rule: Press 'space' when you see 2-back (i.e. the same letter as the one that appeared 2 letters ago.),y,space,,,,,,,,,0,12,12,12,0,8,8,8,,,,,,,,,,,,,,,,,,,,,,,,,,,,,,,,,,,,,,,,,,,,,,,,,,,,,,,,,,,,,,,,,,,,,1.0348,931.4281032999861,None,None,0,931.4281032999861,None,,P031,FENCOG,2,Pre,2022_Mar_22_1134,N-Back (New Version 2021),2021.1.4,120.00350410106122,
,,,,Conditions/Version_1/twoback(4)_v1.xlsx,New rule: Press 'space' when you see 2-back (i.e. the same letter as the one that appeared 2 letters ago.),,,,,,,,,,,0,12,12,12,,,,,,,,,,,,,,,,,,,,,,,,,,,,,,,,,,,,,,,,,,,,,,,,,,,,,,,,,,,,,,,,,,,,,,,,,,,,,,,,,P031,FENCOG,2,Pre,2022_Mar_22_1134,N-Back (New Version 2021),2021.1.4,120.00350410106122,
,,,,Conditions/Version_1/zeroback(4)_v1.xlsx,New rule: Press 'space' when you see the letter 'x' or 'X'.,o,None,,,,,,,,,0,13,13,13,0,0,0,0,,,,,,,,,,,,,,,,,,,,,,,,,,,,,,,,,,,,,,,,,,,,,,,,,,,,,,,,,,,933.4473652999732,None,936.4287518999772,None,space,0.6487948999856599,936.4287518999772,None,933.4473652999732,None,1.8036,938.9128511999734,None,None,1,938.9128511999734,None,,P031,FENCOG,2,Pre,2022_Mar_22_1134,N-Back (New Version 2021),2021.1.4,120.00350410106122,
,,,,Conditions/Version_1/zeroback(4)_v1.xlsx,New rule: Press 'space' when you see the letter 'x' or 'X'.,X,space,,,,,,,,,0,13,13,13,0,1,1,1,,,,,,,,,,,,,,,,,,,,,,,,,,,,,,,,,,,,,,,,,,,,,,,,,,,,,,,,,,,,,,,,,,,,,1.4936,942.4165765999933,None,space,1,942.4165765999933,None,0.41278569999849424,P031,FENCOG,2,Pre,2022_Mar_22_1134,N-Back (New Version 2021),2021.1.4,120.00350410106122,
,,,,Conditions/Version_1/zeroback(4)_v1.xlsx,New rule: Press 'space' when you see the letter 'x' or 'X'.,p,None,,,,,,,,,0,13,13,13,0,2,2,2,,,,,,,,,,,,,,,,,,,,,,,,,,,,,,,,,,,,,,,,,,,,,,,,,,,,,,,,,,,,,,,,,,,,,1.1588,945.5738842000137,None,None,1,945.5738842000137,None,,P031,FENCOG,2,Pre,2022_Mar_22_1134,N-Back (New Version 2021),2021.1.4,120.00350410106122,
,,,,Conditions/Version_1/zeroback(4)_v1.xlsx,New rule: Press 'space' when you see the letter 'x' or 'X'.,m,None,,,,,,,,,0,13,13,13,0,3,3,3,,,,,,,,,,,,,,,,,,,,,,,,,,,,,,,,,,,,,,,,,,,,,,,,,,,,,,,,,,,,,,,,,,,,,1.0348,948.6144201999996,None,None,1,948.6144201999996,None,,P031,FENCOG,2,Pre,2022_Mar_22_1134,N-Back (New Version 2021),2021.1.4,120.00350410106122,
,,,,Conditions/Version_1/zeroback(4)_v1.xlsx,New rule: Press 'space' when you see the letter 'x' or 'X'.,n,None,,,,,,,,,0,13,13,13,0,4,4,4,,,,,,,,,,,,,,,,,,,,,,,,,,,,,,,,,,,,,,,,,,,,,,,,,,,,,,,,,,,,,,,,,,,,,1.7416,952.3551351999631,None,None,1,952.3551351999631,None,,P031,FENCOG,2,Pre,2022_Mar_22_1134,N-Back (New Version 2021),2021.1.4,120.00350410106122,
,,,,Conditions/Version_1/zeroback(4)_v1.xlsx,New rule: Press 'space' when you see the letter 'x' or 'X'.,m,None,,,,,,,,,0,13,13,13,0,5,5,5,,,,,,,,,,,,,,,,,,,,,,,,,,,,,,,,,,,,,,,,,,,,,,,,,,,,,,,,,,,,,,,,,,,,,1.754,956.1122896000161,None,None,1,956.1122896000161,None,,P031,FENCOG,2,Pre,2022_Mar_22_1134,N-Back (New Version 2021),2021.1.4,120.00350410106122,
,,,,Conditions/Version_1/zeroback(4)_v1.xlsx,New rule: Press 'space' when you see the letter 'x' or 'X'.,C,None,,,,,,,,,0,13,13,13,0,6,6,6,,,,,,,,,,,,,,,,,,,,,,,,,,,,,,,,,,,,,,,,,,,,,,,,,,,,,,,,,,,,,,,,,,,,,1.0596,959.17827699997,None,None,1,959.17827699997,None,,P031,FENCOG,2,Pre,2022_Mar_22_1134,N-Back (New Version 2021),2021.1.4,120.00350410106122,
,,,,Conditions/Version_1/zeroback(4)_v1.xlsx,New rule: Press 'space' when you see the letter 'x' or 'X'.,m,None,,,,,,,,,0,13,13,13,0,7,7,7,,,,,,,,,,,,,,,,,,,,,,,,,,,,,,,,,,,,,,,,,,,,,,,,,,,,,,,,,,,,,,,,,,,,,1.9896,963.1795825000154,None,None,1,963.1795825000154,None,,P031,FENCOG,2,Pre,2022_Mar_22_1134,N-Back (New Version 2021),2021.1.4,120.00350410106122,
,,,,Conditions/Version_1/zeroback(4)_v1.xlsx,New rule: Press 'space' when you see the letter 'x' or 'X'.,p,None,,,,,,,,,0,13,13,13,0,8,8,8,,,,,,,,,,,,,,,,,,,,,,,,,,,,,,,,,,,,,,,,,,,,,,,,,,,,,,,,,,,,,,,,,,,,,1.227,966.4175749999704,None,None,1,966.4175749999704,None,,P031,FENCOG,2,Pre,2022_Mar_22_1134,N-Back (New Version 2021),2021.1.4,120.00350410106122,
,,,,Conditions/Version_1/zeroback(4)_v1.xlsx,New rule: Press 'space' when you see the letter 'x' or 'X'.,X,space,,,,,,,,,0,13,13,13,0,9,9,9,,,,,,,,,,,,,,,,,,,,,,,,,,,,,,,,,,,,,,,,,,,,,,,,,,,,,,,,,,,,,,,,,,,,,1.382,969.7997526999679,None,space,1,969.7997526999679,None,0.36567530001048,P031,FENCOG,2,Pre,2022_Mar_22_1134,N-Back (New Version 2021),2021.1.4,120.00350410106122,
,,,,Conditions/Version_1/zeroback(4)_v1.xlsx,New rule: Press 'space' when you see the letter 'x' or 'X'.,,,,,,,,,,,0,13,13,13,,,,,,,,,,,,,,,,,,,,,,,,,,,,,,,,,,,,,,,,,,,,,,,,,,,,,,,,,,,,,,,,,,,,,,,,,,,,,,,,,P031,FENCOG,2,Pre,2022_Mar_22_1134,N-Back (New Version 2021),2021.1.4,120.00350410106122,
,,,,Conditions/Version_1/oneback(4)_v1.xlsx,New rule: Press 'space' when you see 1-back (i.e. the same letter as the one that appeared 1 letter ago.),w,None,,,,,,,,,0,14,14,14,0,0,0,0,,,,,,,,,,,,,,,,,,,,,,,,,,,,,,,,,,,,,,,,,,,,,,,,,,,,,,,,,,,971.8200806999812,None,974.8089906999958,None,space,295.6438206000021,974.8089906999958,None,971.8200806999812,None,1.258,1271.7436103000073,None,None,1,1271.7436103000073,None,,P031,FENCOG,2,Pre,2022_Mar_22_1134,N-Back (New Version 2021),2021.1.4,120.00350410106122,
,,,,Conditions/Version_1/oneback(4)_v1.xlsx,New rule: Press 'space' when you see 1-back (i.e. the same letter as the one that appeared 1 letter ago.),q,None,,,,,,,,,0,14,14,14,0,1,1,1,,,,,,,,,,,,,,,,,,,,,,,,,,,,,,,,,,,,,,,,,,,,,,,,,,,,,,,,,,,,,,,,,,,,,1.6858,1275.434211899992,None,None,1,1275.434211899992,None,,P031,FENCOG,2,Pre,2022_Mar_22_1134,N-Back (New Version 2021),2021.1.4,120.00350410106122,
,,,,Conditions/Version_1/oneback(4)_v1.xlsx,New rule: Press 'space' when you see 1-back (i.e. the same letter as the one that appeared 1 letter ago.),i,None,,,,,,,,,0,14,14,14,0,2,2,2,,,,,,,,,,,,,,,,,,,,,,,,,,,,,,,,,,,,,,,,,,,,,,,,,,,,,,,,,,,,,,,,,,,,,1.2084,1278.6425650999881,None,None,1,1278.6425650999881,None,,P031,FENCOG,2,Pre,2022_Mar_22_1134,N-Back (New Version 2021),2021.1.4,120.00350410106122,
,,,,Conditions/Version_1/oneback(4)_v1.xlsx,New rule: Press 'space' when you see 1-back (i.e. the same letter as the one that appeared 1 letter ago.),t,None,,,,,,,,,0,14,14,14,0,3,3,3,,,,,,,,,,,,,,,,,,,,,,,,,,,,,,,,,,,,,,,,,,,,,,,,,,,,,,,,,,,,,,,,,,,,,1.2146,1281.8660335000022,None,None,1,1281.8660335000022,None,,P031,FENCOG,2,Pre,2022_Mar_22_1134,N-Back (New Version 2021),2021.1.4,120.00350410106122,
,,,,Conditions/Version_1/oneback(4)_v1.xlsx,New rule: Press 'space' when you see 1-back (i.e. the same letter as the one that appeared 1 letter ago.),v,None,,,,,,,,,0,14,14,14,0,4,4,4,,,,,,,,,,,,,,,,,,,,,,,,,,,,,,,,,,,,,,,,,,,,,,,,,,,,,,,,,,,,,,,,,,,,,1.661,1285.5332162000122,None,None,1,1285.5332162000122,None,,P031,FENCOG,2,Pre,2022_Mar_22_1134,N-Back (New Version 2021),2021.1.4,120.00350410106122,
,,,,Conditions/Version_1/oneback(4)_v1.xlsx,New rule: Press 'space' when you see 1-back (i.e. the same letter as the one that appeared 1 letter ago.),V,space,,,,,,,,,0,14,14,14,0,5,5,5,,,,,,,,,,,,,,,,,,,,,,,,,,,,,,,,,,,,,,,,,,,,,,,,,,,,,,,,,,,,,,,,,,,,,1.4006,1288.9493258000002,None,None,0,1288.9493258000002,None,,P031,FENCOG,2,Pre,2022_Mar_22_1134,N-Back (New Version 2021),2021.1.4,120.00350410106122,
,,,,Conditions/Version_1/oneback(4)_v1.xlsx,New rule: Press 'space' when you see 1-back (i.e. the same letter as the one that appeared 1 letter ago.),v,space,,,,,,,,,0,14,14,14,0,6,6,6,,,,,,,,,,,,,,,,,,,,,,,,,,,,,,,,,,,,,,,,,,,,,,,,,,,,,,,,,,,,,,,,,,,,,1.3758,1292.3373432999942,None,space,1,1292.3373432999942,None,1.3873038000310771,P031,FENCOG,2,Pre,2022_Mar_22_1134,N-Back (New Version 2021),2021.1.4,120.00350410106122,
,,,,Conditions/Version_1/oneback(4)_v1.xlsx,New rule: Press 'space' when you see 1-back (i.e. the same letter as the one that appeared 1 letter ago.),p,None,,,,,,,,,0,14,14,14,0,7,7,7,,,,,,,,,,,,,,,,,,,,,,,,,,,,,,,,,,,,,,,,,,,,,,,,,,,,,,,,,,,,,,,,,,,,,1.1154,1295.4536962999846,None,None,1,1295.4536962999846,None,,P031,FENCOG,2,Pre,2022_Mar_22_1134,N-Back (New Version 2021),2021.1.4,120.00350410106122,
,,,,Conditions/Version_1/oneback(4)_v1.xlsx,New rule: Press 'space' when you see 1-back (i.e. the same letter as the one that appeared 1 letter ago.),w,None,,,,,,,,,0,14,14,14,0,8,8,8,,,,,,,,,,,,,,,,,,,,,,,,,,,,,,,,,,,,,,,,,,,,,,,,,,,,,,,,,,,,,,,,,,,,,1.3572,1298.820075399999,None,None,1,1298.820075399999,None,,P031,FENCOG,2,Pre,2022_Mar_22_1134,N-Back (New Version 2021),2021.1.4,120.00350410106122,
,,,,Conditions/Version_1/oneback(4)_v1.xlsx,New rule: Press 'space' when you see 1-back (i.e. the same letter as the one that appeared 1 letter ago.),W,space,,,,,,,,,0,14,14,14,0,9,9,9,,,,,,,,,,,,,,,,,,,,,,,,,,,,,,,,,,,,,,,,,,,,,,,,,,,,,,,,,,,,,,,,,,,,,1.599,1302.4273507999605,None,None,0,1302.4273507999605,None,,P031,FENCOG,2,Pre,2022_Mar_22_1134,N-Back (New Version 2021),2021.1.4,120.00350410106122,
,,,,Conditions/Version_1/oneback(4)_v1.xlsx,New rule: Press 'space' when you see 1-back (i.e. the same letter as the one that appeared 1 letter ago.),,,,,,,,,,,0,14,14,14,,,,,,,,,,,,,,,,,,,,,,,,,,,,,,,,,,,,,,,,,,,,,,,,,,,,,,,,,,,,,,,,,,,,,,,,,,,,,,,,,P031,FENCOG,2,Pre,2022_Mar_22_1134,N-Back (New Version 2021),2021.1.4,120.00350410106122,
,,,,Conditions/Version_1/threeback(4)_v1.xlsx,New rule: Press 'space' when you see 3-back (i.e. the same letter as the one that appeared 3 letters ago.),A,None,,,,,,,,,0,15,15,15,0,0,0,0,,,,,,,,,,,,,,,,,,,,,,,,,,,,,,,,,,,,,,,,,,,,,,,,,,,,,,,,,,,1304.4532401000033,None,1307.4355006999685,None,space,9.601024799980223,1307.4355006999685,None,1304.4532401000033,None,1.134,1318.2075304999598,None,None,1,1318.2075304999598,None,,P031,FENCOG,2,Pre,2022_Mar_22_1134,N-Back (New Version 2021),2021.1.4,120.00350410106122,
,,,,Conditions/Version_1/threeback(4)_v1.xlsx,New rule: Press 'space' when you see 3-back (i.e. the same letter as the one that appeared 3 letters ago.),n,None,,,,,,,,,0,15,15,15,0,1,1,1,,,,,,,,,,,,,,,,,,,,,,,,,,,,,,,,,,,,,,,,,,,,,,,,,,,,,,,,,,,,,,,,,,,,,1.6858,1321.9037036999944,None,None,1,1321.9037036999944,None,,P031,FENCOG,2,Pre,2022_Mar_22_1134,N-Back (New Version 2021),2021.1.4,120.00350410106122,
,,,,Conditions/Version_1/threeback(4)_v1.xlsx,New rule: Press 'space' when you see 3-back (i.e. the same letter as the one that appeared 3 letters ago.),g,None,,,,,,,,,0,15,15,15,0,2,2,2,,,,,,,,,,,,,,,,,,,,,,,,,,,,,,,,,,,,,,,,,,,,,,,,,,,,,,,,,,,,,,,,,,,,,1.5122,1325.4193485999713,None,None,1,1325.4193485999713,None,,P031,FENCOG,2,Pre,2022_Mar_22_1134,N-Back (New Version 2021),2021.1.4,120.00350410106122,
,,,,Conditions/Version_1/threeback(4)_v1.xlsx,New rule: Press 'space' when you see 3-back (i.e. the same letter as the one that appeared 3 letters ago.),A,space,,,,,,,,,0,15,15,15,0,3,3,3,,,,,,,,,,,,,,,,,,,,,,,,,,,,,,,,,,,,,,,,,,,,,,,,,,,,,,,,,,,,,,,,,,,,,1.3944,1328.821733699995,None,space,1,1328.821733699995,None,0.6553186000091955,P031,FENCOG,2,Pre,2022_Mar_22_1134,N-Back (New Version 2021),2021.1.4,120.00350410106122,
,,,,Conditions/Version_1/threeback(4)_v1.xlsx,New rule: Press 'space' when you see 3-back (i.e. the same letter as the one that appeared 3 letters ago.),p,None,,,,,,,,,0,15,15,15,0,4,4,4,,,,,,,,,,,,,,,,,,,,,,,,,,,,,,,,,,,,,,,,,,,,,,,,,,,,,,,,,,,,,,,,,,,,,1.2022,1332.0342576999683,None,None,1,1332.0342576999683,None,,P031,FENCOG,2,Pre,2022_Mar_22_1134,N-Back (New Version 2021),2021.1.4,120.00350410106122,
,,,,Conditions/Version_1/threeback(4)_v1.xlsx,New rule: Press 'space' when you see 3-back (i.e. the same letter as the one that appeared 3 letters ago.),O,None,,,,,,,,,0,15,15,15,0,5,5,5,,,,,,,,,,,,,,,,,,,,,,,,,,,,,,,,,,,,,,,,,,,,,,,,,,,,,,,,,,,,,,,,,,,,,1.5494,1335.582900999987,None,None,1,1335.582900999987,None,,P031,FENCOG,2,Pre,2022_Mar_22_1134,N-Back (New Version 2021),2021.1.4,120.00350410106122,
,,,,Conditions/Version_1/threeback(4)_v1.xlsx,New rule: Press 'space' when you see 3-back (i.e. the same letter as the one that appeared 3 letters ago.),a,space,,,,,,,,,0,15,15,15,0,6,6,6,,,,,,,,,,,,,,,,,,,,,,,,,,,,,,,,,,,,,,,,,,,,,,,,,,,,,,,,,,,,,,,,,,,,,1.3262,1338.9153760999907,None,space,1,1338.9153760999907,None,0.7132764999987558,P031,FENCOG,2,Pre,2022_Mar_22_1134,N-Back (New Version 2021),2021.1.4,120.00350410106122,
,,,,Conditions/Version_1/threeback(4)_v1.xlsx,New rule: Press 'space' when you see 3-back (i.e. the same letter as the one that appeared 3 letters ago.),p,space,,,,,,,,,0,15,15,15,0,7,7,7,,,,,,,,,,,,,,,,,,,,,,,,,,,,,,,,,,,,,,,,,,,,,,,,,,,,,,,,,,,,,,,,,,,,,1.7354,1342.6559312000172,None,space,1,1342.6559312000172,None,0.7805908999871463,P031,FENCOG,2,Pre,2022_Mar_22_1134,N-Back (New Version 2021),2021.1.4,120.00350410106122,
,,,,Conditions/Version_1/threeback(4)_v1.xlsx,New rule: Press 'space' when you see 3-back (i.e. the same letter as the one that appeared 3 letters ago.),x,None,,,,,,,,,0,15,15,15,0,8,8,8,,,,,,,,,,,,,,,,,,,,,,,,,,,,,,,,,,,,,,,,,,,,,,,,,,,,,,,,,,,,,,,,,,,,,1.0968,1345.755007700005,None,None,1,1345.755007700005,None,,P031,FENCOG,2,Pre,2022_Mar_22_1134,N-Back (New Version 2021),2021.1.4,120.00350410106122,
,,,,Conditions/Version_1/threeback(4)_v1.xlsx,New rule: Press 'space' when you see 3-back (i.e. the same letter as the one that appeared 3 letters ago.),X,None,,,,,,,,,0,15,15,15,0,9,9,9,,,,,,,,,,,,,,,,,,,,,,,,,,,,,,,,,,,,,,,,,,,,,,,,,,,,,,,,,,,,,,,,,,,,,1.5804,1349.3372655999847,None,None,1,1349.3372655999847,None,,P031,FENCOG,2,Pre,2022_Mar_22_1134,N-Back (New Version 2021),2021.1.4,120.00350410106122,
,,,,Conditions/Version_1/threeback(4)_v1.xlsx,New rule: Press 'space' when you see 3-back (i.e. the same letter as the one that appeared 3 letters ago.),,,,,,,,,,,0,15,15,15,,,,,,,,,,,,,,,,,,,,,,,,,,,,,,,,,,,,,,,,,,,,,,,,,,,,,,,,,,,,,,,,,,,,,,,,,,,,,,,,,P031,FENCOG,2,Pre,2022_Mar_22_1134,N-Back (New Version 2021),2021.1.4,120.00350410106122,
