CondFileP,InstructionsP,LettersDisplayedP,CorrectnessP,CondFile,Instructions,LettersDisplayed,Correctness,practicetrials.thisRepN,practicetrials.thisTrialN,practicetrials.thisN,practicetrials.thisIndex,InnerLoopPractice.thisRepN,InnerLoopPractice.thisTrialN,InnerLoopPractice.thisN,InnerLoopPractice.thisIndex,trials.thisRepN,trials.thisTrialN,trials.thisN,trials.thisIndex,InnerLoop.thisRepN,InnerLoop.thisTrialN,InnerLoop.thisN,InnerLoop.thisIndex,TaskVersionText.started,TaskVersionText.stopped,InstrKey1.keys,InstrKey1.rt,InstrKey1.started,InstrKey1.stopped,text.started,text.stopped,key_resp_4.keys,key_resp_4.rt,key_resp_4.started,key_resp_4.stopped,text_2.started,text_2.stopped,key_resp_3.keys,key_resp_3.rt,key_resp_3.started,key_resp_3.stopped,text_3.started,text_3.stopped,key_resp_2.keys,key_resp_2.rt,key_resp_2.started,key_resp_2.stopped,PractIn1.started,PractIn1.stopped,PractIn2.started,PractIn2.stopped,PractInstructionPass.keys,PractInstructionPass.rt,PractInstructionPass.started,PractInstructionPass.stopped,PractBlock1.started,PractBlock1.stopped,ISIjitterPractice,ISI_Pract_Fixation.started,ISI_Pract_Fixation.stopped,N_backP.started,N_backP.stopped,KeyPractice.keys,KeyPractice.corr,KeyPractice.started,KeyPractice.stopped,text_4.started,text_4.stopped,KeyPractice.rt,TransitionText.started,TransitionText.stopped,key_resp_6.keys,key_resp_6.rt,key_resp_6.started,key_resp_6.stopped,text_5.started,text_5.stopped,key_resp_5.keys,key_resp_5.rt,key_resp_5.started,key_resp_5.stopped,MainInt1.started,MainInt1.stopped,MainInt2.started,MainInt2.stopped,InstructionPass.keys,InstructionPass.rt,InstructionPass.started,InstructionPass.stopped,Blocks1.started,Blocks1.stopped,ISIjitter,N_backD.started,N_backD.stopped,key_resp.keys,key_resp.corr,key_resp.started,key_resp.stopped,key_resp.rt,participant,Study Name,Task Version (required to run),PRE/POST,date,expName,psychopyVersion,frameRate,
,,,,,,,,,,,,,,,,,,,,,,,,24.624289400002453,None,space,117.00108210000326,25.112733200003277,None,,,,,,,,,,,,,,,,,,,,,,,,,,,,,,,,,,,,,,,,,,,,,,,,,,,,,,,,,,,,,,,,,,,,,,,P032,FENCOG,1,Pre,2022_Mar_30_1139,N-Back (New Version 2021),2021.1.4,120.43128852681482,
,,,,,,,,,,,,,,,,,,,,,,,,,,,,,,142.153003600004,None,space,6.749190499991528,142.64509279999766,None,,,,,,,,,,,,,,,,,,,,,,,,,,,,,,,,,,,,,,,,,,,,,,,,,,,,,,,,,,,,,,,,,P032,FENCOG,1,Pre,2022_Mar_30_1139,N-Back (New Version 2021),2021.1.4,120.43128852681482,
,,,,,,,,,,,,,,,,,,,,,,,,,,,,,,,,,,,,149.45470470000873,None,space,10.209250800005975,149.95301660000405,None,,,,,,,,,,,,,,,,,,,,,,,,,,,,,,,,,,,,,,,,,,,,,,,,,,,,,,,,,,,P032,FENCOG,1,Pre,2022_Mar_30_1139,N-Back (New Version 2021),2021.1.4,120.43128852681482,
,,,,,,,,,,,,,,,,,,,,,,,,,,,,,,,,,,,,,,,,,,160.21336910000537,None,space,9.43960959999822,160.70656910000253,None,,,,,,,,,,,,,,,,,,,,,,,,,,,,,,,,,,,,,,,,,,,,,,,,,,,,,P032,FENCOG,1,Pre,2022_Mar_30_1139,N-Back (New Version 2021),2021.1.4,120.43128852681482,
Conditions/Version_1Pr/zeroback(1)_v1.xlsx,Rule: Press 'space' when you see the letter 'x' or 'X'.,Z,None,,,,,0,0,0,0,0,0,0,0,,,,,,,,,,,,,,,,,,,,,,,,,,,,,,,,,171.73501400000532,None,174.7231543000089,None,space,3.0069288999948185,174.7231543000089,None,171.73501400000532,None,1.94,177.77361040000687,None,179.72919470000488,None,None,1,179.72919470000488,None,181.72761190000165,None,,,,,,,,,,,,,,,,,,,,,,,,,,,,,,,,P032,FENCOG,1,Pre,2022_Mar_30_1139,N-Back (New Version 2021),2021.1.4,120.43128852681482,
Conditions/Version_1Pr/zeroback(1)_v1.xlsx,Rule: Press 'space' when you see the letter 'x' or 'X'.,r,None,,,,,0,0,0,0,0,1,1,1,,,,,,,,,,,,,,,,,,,,,,,,,,,,,,,,,,,,,,,,,,,1.465,183.2239891000063,None,184.6930818999972,None,None,1,184.6930818999972,None,186.69800030000624,None,,,,,,,,,,,,,,,,,,,,,,,,,,,,,,,,P032,FENCOG,1,Pre,2022_Mar_30_1139,N-Back (New Version 2021),2021.1.4,120.43128852681482,
Conditions/Version_1Pr/zeroback(1)_v1.xlsx,Rule: Press 'space' when you see the letter 'x' or 'X'.,X,space,,,,,0,0,0,0,0,2,2,2,,,,,,,,,,,,,,,,,,,,,,,,,,,,,,,,,,,,,,,,,,,1.84,188.19752380000136,None,190.04395210000803,None,space,1,190.04395210000803,None,190.57764150000003,None,0.5180656000011368,,,,,,,,,,,,,,,,,,,,,,,,,,,,,,,P032,FENCOG,1,Pre,2022_Mar_30_1139,N-Back (New Version 2021),2021.1.4,120.43128852681482,
Conditions/Version_1Pr/zeroback(1)_v1.xlsx,Rule: Press 'space' when you see the letter 'x' or 'X'.,p,None,,,,,0,0,0,0,0,3,3,3,,,,,,,,,,,,,,,,,,,,,,,,,,,,,,,,,,,,,,,,,,,1.665,192.0797401000018,None,193.7522661999974,None,None,1,193.7522661999974,None,195.75851729999704,None,,,,,,,,,,,,,,,,,,,,,,,,,,,,,,,,P032,FENCOG,1,Pre,2022_Mar_30_1139,N-Back (New Version 2021),2021.1.4,120.43128852681482,
Conditions/Version_1Pr/zeroback(1)_v1.xlsx,Rule: Press 'space' when you see the letter 'x' or 'X'.,w,None,,,,,0,0,0,0,0,4,4,4,,,,,,,,,,,,,,,,,,,,,,,,,,,,,,,,,,,,,,,,,,,1.14,197.25329649999912,None,198.39899909999804,None,None,1,198.39899909999804,None,200.40250240000023,None,,,,,,,,,,,,,,,,,,,,,,,,,,,,,,,,P032,FENCOG,1,Pre,2022_Mar_30_1139,N-Back (New Version 2021),2021.1.4,120.43128852681482,
Conditions/Version_1Pr/zeroback(1)_v1.xlsx,Rule: Press 'space' when you see the letter 'x' or 'X'.,e,None,,,,,0,0,0,0,0,5,5,5,,,,,,,,,,,,,,,,,,,,,,,,,,,,,,,,,,,,,,,,,,,1.565,201.90193560000625,None,203.472105000008,None,None,1,203.472105000008,None,205.4758462000027,None,,,,,,,,,,,,,,,,,,,,,,,,,,,,,,,,P032,FENCOG,1,Pre,2022_Mar_30_1139,N-Back (New Version 2021),2021.1.4,120.43128852681482,
Conditions/Version_1Pr/zeroback(1)_v1.xlsx,Rule: Press 'space' when you see the letter 'x' or 'X'.,X,space,,,,,0,0,0,0,0,6,6,6,,,,,,,,,,,,,,,,,,,,,,,,,,,,,,,,,,,,,,,,,,,1.365,206.97530720000213,None,208.34912710000935,None,space,1,208.34912710000935,None,208.81794219999574,None,0.45278439999674447,,,,,,,,,,,,,,,,,,,,,,,,,,,,,,,P032,FENCOG,1,Pre,2022_Mar_30_1139,N-Back (New Version 2021),2021.1.4,120.43128852681482,
Conditions/Version_1Pr/zeroback(1)_v1.xlsx,Rule: Press 'space' when you see the letter 'x' or 'X'.,x,space,,,,,0,0,0,0,0,7,7,7,,,,,,,,,,,,,,,,,,,,,,,,,,,,,,,,,,,,,,,,,,,1.79,210.32568809999793,None,212.12318029999733,None,space,1,212.12318029999733,None,212.7574059000035,None,0.6151357000053395,,,,,,,,,,,,,,,,,,,,,,,,,,,,,,,P032,FENCOG,1,Pre,2022_Mar_30_1139,N-Back (New Version 2021),2021.1.4,120.43128852681482,
Conditions/Version_1Pr/zeroback(1)_v1.xlsx,Rule: Press 'space' when you see the letter 'x' or 'X'.,p,None,,,,,0,0,0,0,0,8,8,8,,,,,,,,,,,,,,,,,,,,,,,,,,,,,,,,,,,,,,,,,,,1.415,214.25811750000867,None,215.6800515000068,None,None,1,215.6800515000068,None,217.67727870000817,None,,,,,,,,,,,,,,,,,,,,,,,,,,,,,,,,P032,FENCOG,1,Pre,2022_Mar_30_1139,N-Back (New Version 2021),2021.1.4,120.43128852681482,
Conditions/Version_1Pr/zeroback(1)_v1.xlsx,Rule: Press 'space' when you see the letter 'x' or 'X'.,r,None,,,,,0,0,0,0,0,9,9,9,,,,,,,,,,,,,,,,,,,,,,,,,,,,,,,,,,,,,,,,,,,1.54,219.18008720000216,None,220.72475510000368,None,None,1,220.72475510000368,None,222.73181009999826,None,,,,,,,,,,,,,,,,,,,,,,,,,,,,,,,,P032,FENCOG,1,Pre,2022_Mar_30_1139,N-Back (New Version 2021),2021.1.4,120.43128852681482,
Conditions/Version_1Pr/zeroback(1)_v1.xlsx,Rule: Press 'space' when you see the letter 'x' or 'X'.,,,,,,,0,0,0,0,,,,,,,,,,,,,,,,,,,,,,,,,,,,,,,,,,,,,,,,,,,,,,,,,,,,,,,,,,,,,,,,,,,,,,,,,,,,,,,,,,,,,,,,,P032,FENCOG,1,Pre,2022_Mar_30_1139,N-Back (New Version 2021),2021.1.4,120.43128852681482,
Conditions/Version_1Pr/oneback(1)_v1.xlsx,New rule: Press 'space' when you see 1-back (i.e. the same letter as the one that appeared 1 letter ago.),a,None,,,,,0,1,1,1,0,0,0,0,,,,,,,,,,,,,,,,,,,,,,,,,,,,,,,,,224.26014600000053,None,227.24945650000882,None,space,187.9361923999968,227.24945650000882,None,224.26014600000053,None,1.215,415.2220757000032,None,416.44447349999973,None,None,1,416.44447349999973,None,418.44800750000286,None,,,,,,,,,,,,,,,,,,,,,,,,,,,,,,,,P032,FENCOG,1,Pre,2022_Mar_30_1139,N-Back (New Version 2021),2021.1.4,120.43128852681482,
Conditions/Version_1Pr/oneback(1)_v1.xlsx,New rule: Press 'space' when you see 1-back (i.e. the same letter as the one that appeared 1 letter ago.),x,None,,,,,0,1,1,1,0,1,1,1,,,,,,,,,,,,,,,,,,,,,,,,,,,,,,,,,,,,,,,,,,,1.115,419.9457887000026,None,421.0693712000066,None,None,1,421.0693712000066,None,423.0733077000041,None,,,,,,,,,,,,,,,,,,,,,,,,,,,,,,,,P032,FENCOG,1,Pre,2022_Mar_30_1139,N-Back (New Version 2021),2021.1.4,120.43128852681482,
Conditions/Version_1Pr/oneback(1)_v1.xlsx,New rule: Press 'space' when you see 1-back (i.e. the same letter as the one that appeared 1 letter ago.),g,None,,,,,0,1,1,1,0,2,2,2,,,,,,,,,,,,,,,,,,,,,,,,,,,,,,,,,,,,,,,,,,,1.765,424.5694144000008,None,426.3445516000065,None,None,1,426.3445516000065,None,428.3433595000097,None,,,,,,,,,,,,,,,,,,,,,,,,,,,,,,,,P032,FENCOG,1,Pre,2022_Mar_30_1139,N-Back (New Version 2021),2021.1.4,120.43128852681482,
Conditions/Version_1Pr/oneback(1)_v1.xlsx,New rule: Press 'space' when you see 1-back (i.e. the same letter as the one that appeared 1 letter ago.),G,space,,,,,0,1,1,1,0,3,3,3,,,,,,,,,,,,,,,,,,,,,,,,,,,,,,,,,,,,,,,,,,,1.49,429.8432704000006,None,431.33633839999675,None,space,1,431.33633839999675,None,431.78722270000435,None,0.4332699000078719,,,,,,,,,,,,,,,,,,,,,,,,,,,,,,,P032,FENCOG,1,Pre,2022_Mar_30_1139,N-Back (New Version 2021),2021.1.4,120.43128852681482,
Conditions/Version_1Pr/oneback(1)_v1.xlsx,New rule: Press 'space' when you see 1-back (i.e. the same letter as the one that appeared 1 letter ago.),u,None,,,,,0,1,1,1,0,4,4,4,,,,,,,,,,,,,,,,,,,,,,,,,,,,,,,,,,,,,,,,,,,1.04,433.29416299999866,None,434.34272410000267,None,None,1,434.34272410000267,None,436.34090070000093,None,,,,,,,,,,,,,,,,,,,,,,,,,,,,,,,,P032,FENCOG,1,Pre,2022_Mar_30_1139,N-Back (New Version 2021),2021.1.4,120.43128852681482,
Conditions/Version_1Pr/oneback(1)_v1.xlsx,New rule: Press 'space' when you see 1-back (i.e. the same letter as the one that appeared 1 letter ago.),y,None,,,,,0,1,1,1,0,5,5,5,,,,,,,,,,,,,,,,,,,,,,,,,,,,,,,,,,,,,,,,,,,1.515,437.84039250000205,None,439.36492340000405,None,None,1,439.36492340000405,None,441.3690471000009,None,,,,,,,,,,,,,,,,,,,,,,,,,,,,,,,,P032,FENCOG,1,Pre,2022_Mar_30_1139,N-Back (New Version 2021),2021.1.4,120.43128852681482,
Conditions/Version_1Pr/oneback(1)_v1.xlsx,New rule: Press 'space' when you see 1-back (i.e. the same letter as the one that appeared 1 letter ago.),y,space,,,,,0,1,1,1,0,6,6,6,,,,,,,,,,,,,,,,,,,,,,,,,,,,,,,,,,,,,,,,,,,1.265,442.8640551999997,None,444.13094270000875,None,space,1,444.13094270000875,None,444.7910254000017,None,0.6467365999997128,,,,,,,,,,,,,,,,,,,,,,,,,,,,,,,P032,FENCOG,1,Pre,2022_Mar_30_1139,N-Back (New Version 2021),2021.1.4,120.43128852681482,
Conditions/Version_1Pr/oneback(1)_v1.xlsx,New rule: Press 'space' when you see 1-back (i.e. the same letter as the one that appeared 1 letter ago.),k,None,,,,,0,1,1,1,0,7,7,7,,,,,,,,,,,,,,,,,,,,,,,,,,,,,,,,,,,,,,,,,,,1.59,446.2963025000063,None,447.89645759999985,None,None,1,447.89645759999985,None,449.89306410000427,None,,,,,,,,,,,,,,,,,,,,,,,,,,,,,,,,P032,FENCOG,1,Pre,2022_Mar_30_1139,N-Back (New Version 2021),2021.1.4,120.43128852681482,
Conditions/Version_1Pr/oneback(1)_v1.xlsx,New rule: Press 'space' when you see 1-back (i.e. the same letter as the one that appeared 1 letter ago.),c,None,,,,,0,1,1,1,0,8,8,8,,,,,,,,,,,,,,,,,,,,,,,,,,,,,,,,,,,,,,,,,,,1.365,451.3948423999973,None,452.7691535000049,None,None,1,452.7691535000049,None,454.76735409999674,None,,,,,,,,,,,,,,,,,,,,,,,,,,,,,,,,P032,FENCOG,1,Pre,2022_Mar_30_1139,N-Back (New Version 2021),2021.1.4,120.43128852681482,
Conditions/Version_1Pr/oneback(1)_v1.xlsx,New rule: Press 'space' when you see 1-back (i.e. the same letter as the one that appeared 1 letter ago.),r,None,,,,,0,1,1,1,0,9,9,9,,,,,,,,,,,,,,,,,,,,,,,,,,,,,,,,,,,,,,,,,,,1.39,456.26838890000363,None,457.660495899996,None,None,1,457.660495899996,None,459.66529360000277,None,,,,,,,,,,,,,,,,,,,,,,,,,,,,,,,,P032,FENCOG,1,Pre,2022_Mar_30_1139,N-Back (New Version 2021),2021.1.4,120.43128852681482,
Conditions/Version_1Pr/oneback(1)_v1.xlsx,New rule: Press 'space' when you see 1-back (i.e. the same letter as the one that appeared 1 letter ago.),,,,,,,0,1,1,1,,,,,,,,,,,,,,,,,,,,,,,,,,,,,,,,,,,,,,,,,,,,,,,,,,,,,,,,,,,,,,,,,,,,,,,,,,,,,,,,,,,,,,,,,P032,FENCOG,1,Pre,2022_Mar_30_1139,N-Back (New Version 2021),2021.1.4,120.43128852681482,
Conditions/Version_1Pr/twoback(1)_v1.xlsx,New rule: Press 'space' when you see 2-back (i.e. the same letter as the one that appeared 2 letters ago.),E,None,,,,,0,2,2,2,0,0,0,0,,,,,,,,,,,,,,,,,,,,,,,,,,,,,,,,,461.2091342000058,None,464.19717220000166,None,space,0.5086995999881765,464.19717220000166,None,461.2091342000058,None,1.615,464.7352630000096,None,466.3626710999961,None,None,1,466.3626710999961,None,468.3612140000041,None,,,,,,,,,,,,,,,,,,,,,,,,,,,,,,,,P032,FENCOG,1,Pre,2022_Mar_30_1139,N-Back (New Version 2021),2021.1.4,120.43128852681482,
Conditions/Version_1Pr/twoback(1)_v1.xlsx,New rule: Press 'space' when you see 2-back (i.e. the same letter as the one that appeared 2 letters ago.),p,None,,,,,0,2,2,2,0,1,1,1,,,,,,,,,,,,,,,,,,,,,,,,,,,,,,,,,,,,,,,,,,,1.215,469.86475160000555,None,471.08496960000775,None,None,1,471.08496960000775,None,473.08657590000075,None,,,,,,,,,,,,,,,,,,,,,,,,,,,,,,,,P032,FENCOG,1,Pre,2022_Mar_30_1139,N-Back (New Version 2021),2021.1.4,120.43128852681482,
Conditions/Version_1Pr/twoback(1)_v1.xlsx,New rule: Press 'space' when you see 2-back (i.e. the same letter as the one that appeared 2 letters ago.),e,space,,,,,0,2,2,2,0,2,2,2,,,,,,,,,,,,,,,,,,,,,,,,,,,,,,,,,,,,,,,,,,,1.79,474.5879646999965,None,476.3832240000047,None,space,1,476.3832240000047,None,476.87041709999903,None,0.4747304000047734,,,,,,,,,,,,,,,,,,,,,,,,,,,,,,,P032,FENCOG,1,Pre,2022_Mar_30_1139,N-Back (New Version 2021),2021.1.4,120.43128852681482,
Conditions/Version_1Pr/twoback(1)_v1.xlsx,New rule: Press 'space' when you see 2-back (i.e. the same letter as the one that appeared 2 letters ago.),s,None,,,,,0,2,2,2,0,3,3,3,,,,,,,,,,,,,,,,,,,,,,,,,,,,,,,,,,,,,,,,,,,1.565,478.3717813999974,None,479.94369899999583,None,None,1,479.94369899999583,None,481.9403064000071,None,,,,,,,,,,,,,,,,,,,,,,,,,,,,,,,,P032,FENCOG,1,Pre,2022_Mar_30_1139,N-Back (New Version 2021),2021.1.4,120.43128852681482,
Conditions/Version_1Pr/twoback(1)_v1.xlsx,New rule: Press 'space' when you see 2-back (i.e. the same letter as the one that appeared 2 letters ago.),S,None,,,,,0,2,2,2,0,4,4,4,,,,,,,,,,,,,,,,,,,,,,,,,,,,,,,,,,,,,,,,,,,1.89,483.4437915000017,None,485.34690980000596,None,None,1,485.34690980000596,None,487.33879150000575,None,,,,,,,,,,,,,,,,,,,,,,,,,,,,,,,,P032,FENCOG,1,Pre,2022_Mar_30_1139,N-Back (New Version 2021),2021.1.4,120.43128852681482,
Conditions/Version_1Pr/twoback(1)_v1.xlsx,New rule: Press 'space' when you see 2-back (i.e. the same letter as the one that appeared 2 letters ago.),s,space,,,,,0,2,2,2,0,5,5,5,,,,,,,,,,,,,,,,,,,,,,,,,,,,,,,,,,,,,,,,,,,1.09,488.84193100000266,None,489.94101070000033,None,space,1,489.94101070000033,None,490.4535315999965,None,0.4930760999995982,,,,,,,,,,,,,,,,,,,,,,,,,,,,,,,P032,FENCOG,1,Pre,2022_Mar_30_1139,N-Back (New Version 2021),2021.1.4,120.43128852681482,
Conditions/Version_1Pr/twoback(1)_v1.xlsx,New rule: Press 'space' when you see 2-back (i.e. the same letter as the one that appeared 2 letters ago.),P,None,,,,,0,2,2,2,0,6,6,6,,,,,,,,,,,,,,,,,,,,,,,,,,,,,,,,,,,,,,,,,,,1.74,491.95904220000375,None,493.7068147999962,None,None,1,493.7068147999962,None,495.7098284000094,None,,,,,,,,,,,,,,,,,,,,,,,,,,,,,,,,P032,FENCOG,1,Pre,2022_Mar_30_1139,N-Back (New Version 2021),2021.1.4,120.43128852681482,
Conditions/Version_1Pr/twoback(1)_v1.xlsx,New rule: Press 'space' when you see 2-back (i.e. the same letter as the one that appeared 2 letters ago.),C,None,,,,,0,2,2,2,0,7,7,7,,,,,,,,,,,,,,,,,,,,,,,,,,,,,,,,,,,,,,,,,,,1.49,497.2062689000013,None,498.7050161000079,None,None,1,498.7050161000079,None,500.7026546999987,None,,,,,,,,,,,,,,,,,,,,,,,,,,,,,,,,P032,FENCOG,1,Pre,2022_Mar_30_1139,N-Back (New Version 2021),2021.1.4,120.43128852681482,
Conditions/Version_1Pr/twoback(1)_v1.xlsx,New rule: Press 'space' when you see 2-back (i.e. the same letter as the one that appeared 2 letters ago.),x,None,,,,,0,2,2,2,0,8,8,8,,,,,,,,,,,,,,,,,,,,,,,,,,,,,,,,,,,,,,,,,,,1.19,502.20492920000106,None,503.4004019999993,None,None,1,503.4004019999993,None,505.3998017999984,None,,,,,,,,,,,,,,,,,,,,,,,,,,,,,,,,P032,FENCOG,1,Pre,2022_Mar_30_1139,N-Back (New Version 2021),2021.1.4,120.43128852681482,
Conditions/Version_1Pr/twoback(1)_v1.xlsx,New rule: Press 'space' when you see 2-back (i.e. the same letter as the one that appeared 2 letters ago.),Z,None,,,,,0,2,2,2,0,9,9,9,,,,,,,,,,,,,,,,,,,,,,,,,,,,,,,,,,,,,,,,,,,1.965,506.9040507000027,None,508.87514530000044,None,None,1,508.87514530000044,None,510.8777326999989,None,,,,,,,,,,,,,,,,,,,,,,,,,,,,,,,,P032,FENCOG,1,Pre,2022_Mar_30_1139,N-Back (New Version 2021),2021.1.4,120.43128852681482,
Conditions/Version_1Pr/twoback(1)_v1.xlsx,New rule: Press 'space' when you see 2-back (i.e. the same letter as the one that appeared 2 letters ago.),,,,,,,0,2,2,2,,,,,,,,,,,,,,,,,,,,,,,,,,,,,,,,,,,,,,,,,,,,,,,,,,,,,,,,,,,,,,,,,,,,,,,,,,,,,,,,,,,,,,,,,P032,FENCOG,1,Pre,2022_Mar_30_1139,N-Back (New Version 2021),2021.1.4,120.43128852681482,
Conditions/Version_1Pr/threeback(1)_v1.xlsx,New rule: Press 'space' when you see 3-back (i.e. the same letter as the one that appeared 3 letters ago.),r,None,,,,,0,3,3,3,0,0,0,0,,,,,,,,,,,,,,,,,,,,,,,,,,,,,,,,,512.4163895999955,None,515.4000079999969,None,space,0.4334762999933446,515.4000079999969,None,512.4163895999955,None,1.94,515.8611416000058,None,517.8056099000096,None,None,1,517.8056099000096,None,519.8080664000008,None,,,,,,,,,,,,,,,,,,,,,,,,,,,,,,,,P032,FENCOG,1,Pre,2022_Mar_30_1139,N-Back (New Version 2021),2021.1.4,120.43128852681482,
Conditions/Version_1Pr/threeback(1)_v1.xlsx,New rule: Press 'space' when you see 3-back (i.e. the same letter as the one that appeared 3 letters ago.),a,None,,,,,0,3,3,3,0,1,1,1,,,,,,,,,,,,,,,,,,,,,,,,,,,,,,,,,,,,,,,,,,,1.39,521.307638600003,None,522.7026016000018,None,None,1,522.7026016000018,None,524.7060934000037,None,,,,,,,,,,,,,,,,,,,,,,,,,,,,,,,,P032,FENCOG,1,Pre,2022_Mar_30_1139,N-Back (New Version 2021),2021.1.4,120.43128852681482,
Conditions/Version_1Pr/threeback(1)_v1.xlsx,New rule: Press 'space' when you see 3-back (i.e. the same letter as the one that appeared 3 letters ago.),t,None,,,,,0,3,3,3,0,2,2,2,,,,,,,,,,,,,,,,,,,,,,,,,,,,,,,,,,,,,,,,,,,1.79,526.206602300008,None,528.0079108000064,None,None,1,528.0079108000064,None,530.0002537999972,None,,,,,,,,,,,,,,,,,,,,,,,,,,,,,,,,P032,FENCOG,1,Pre,2022_Mar_30_1139,N-Back (New Version 2021),2021.1.4,120.43128852681482,
Conditions/Version_1Pr/threeback(1)_v1.xlsx,New rule: Press 'space' when you see 3-back (i.e. the same letter as the one that appeared 3 letters ago.),r,space,,,,,0,3,3,3,0,3,3,3,,,,,,,,,,,,,,,,,,,,,,,,,,,,,,,,,,,,,,,,,,,1.665,531.5046647999989,None,533.1742271999974,None,space,1,533.1742271999974,None,533.584912300008,None,0.39540980001038406,,,,,,,,,,,,,,,,,,,,,,,,,,,,,,,P032,FENCOG,1,Pre,2022_Mar_30_1139,N-Back (New Version 2021),2021.1.4,120.43128852681482,
Conditions/Version_1Pr/threeback(1)_v1.xlsx,New rule: Press 'space' when you see 3-back (i.e. the same letter as the one that appeared 3 letters ago.),a,None,,,,,0,3,3,3,0,4,4,4,,,,,,,,,,,,,,,,,,,,,,,,,,,,,,,,,,,,,,,,,,,1.815,535.0866393000033,None,536.9066375999973,None,space,0,536.9066375999973,None,537.6211833999987,None,0.6872111999982735,,,,,,,,,,,,,,,,,,,,,,,,,,,,,,,P032,FENCOG,1,Pre,2022_Mar_30_1139,N-Back (New Version 2021),2021.1.4,120.43128852681482,
Conditions/Version_1Pr/threeback(1)_v1.xlsx,New rule: Press 'space' when you see 3-back (i.e. the same letter as the one that appeared 3 letters ago.),Y,None,,,,,0,3,3,3,0,5,5,5,,,,,,,,,,,,,,,,,,,,,,,,,,,,,,,,,,,,,,,,,,,1.165,539.1310806999973,None,540.3081984000019,None,None,1,540.3081984000019,None,542.311108000009,None,,,,,,,,,,,,,,,,,,,,,,,,,,,,,,,,P032,FENCOG,1,Pre,2022_Mar_30_1139,N-Back (New Version 2021),2021.1.4,120.43128852681482,
Conditions/Version_1Pr/threeback(1)_v1.xlsx,New rule: Press 'space' when you see 3-back (i.e. the same letter as the one that appeared 3 letters ago.),q,None,,,,,0,3,3,3,0,6,6,6,,,,,,,,,,,,,,,,,,,,,,,,,,,,,,,,,,,,,,,,,,,1.59,543.8091645999957,None,545.4067923999974,None,None,1,545.4067923999974,None,547.4031004999997,None,,,,,,,,,,,,,,,,,,,,,,,,,,,,,,,,P032,FENCOG,1,Pre,2022_Mar_30_1139,N-Back (New Version 2021),2021.1.4,120.43128852681482,
Conditions/Version_1Pr/threeback(1)_v1.xlsx,New rule: Press 'space' when you see 3-back (i.e. the same letter as the one that appeared 3 letters ago.),A,space,,,,,0,3,3,3,0,7,7,7,,,,,,,,,,,,,,,,,,,,,,,,,,,,,,,,,,,,,,,,,,,1.14,548.9078423000028,None,550.0576208999992,None,None,0,550.0576208999992,None,552.0679228000081,None,,,,,,,,,,,,,,,,,,,,,,,,,,,,,,,,P032,FENCOG,1,Pre,2022_Mar_30_1139,N-Back (New Version 2021),2021.1.4,120.43128852681482,
Conditions/Version_1Pr/threeback(1)_v1.xlsx,New rule: Press 'space' when you see 3-back (i.e. the same letter as the one that appeared 3 letters ago.),y,None,,,,,0,3,3,3,0,8,8,8,,,,,,,,,,,,,,,,,,,,,,,,,,,,,,,,,,,,,,,,,,,1.115,553.5563667999959,None,554.6770665000076,None,space,0,554.6770665000076,None,555.5023481000098,None,0.8047747999953572,,,,,,,,,,,,,,,,,,,,,,,,,,,,,,,P032,FENCOG,1,Pre,2022_Mar_30_1139,N-Back (New Version 2021),2021.1.4,120.43128852681482,
Conditions/Version_1Pr/threeback(1)_v1.xlsx,New rule: Press 'space' when you see 3-back (i.e. the same letter as the one that appeared 3 letters ago.),r,None,,,,,0,3,3,3,0,9,9,9,,,,,,,,,,,,,,,,,,,,,,,,,,,,,,,,,,,,,,,,,,,1.765,557.0073746999988,None,558.7797796000086,None,None,1,558.7797796000086,None,560.7838006999955,None,,,,,,,,,,,,,,,,,,,,,,,,,,,,,,,,P032,FENCOG,1,Pre,2022_Mar_30_1139,N-Back (New Version 2021),2021.1.4,120.43128852681482,
Conditions/Version_1Pr/threeback(1)_v1.xlsx,New rule: Press 'space' when you see 3-back (i.e. the same letter as the one that appeared 3 letters ago.),,,,,,,0,3,3,3,,,,,,,,,,,,,,,,,,,,,,,,,,,,,,,,,,,,,,,,,,,,,,,,,,,,,,,,,,,,,,,,,,,,,,,,,,,,,,,,,,,,,,,,,P032,FENCOG,1,Pre,2022_Mar_30_1139,N-Back (New Version 2021),2021.1.4,120.43128852681482,
,,,,,,,,,,,,,,,,,,,,,,,,,,,,,,,,,,,,,,,,,,,,,,,,,,,,,,,,,,,,,,,,,,,,,,562.2932131999987,None,space,1.5902834000007715,562.7873371000023,None,,,,,,,,,,,,,,,,,,,,,,,,,P032,FENCOG,1,Pre,2022_Mar_30_1139,N-Back (New Version 2021),2021.1.4,120.43128852681482,
,,,,,,,,,,,,,,,,,,,,,,,,,,,,,,,,,,,,,,,,,,,,,,,,,,,,,,,,,,,,,,,,,,,,,,,,,,,,564.4154326999997,None,space,3.6259782999986783,564.9036843000067,None,,,,,,,,,,,,,,,,,,,P032,FENCOG,1,Pre,2022_Mar_30_1139,N-Back (New Version 2021),2021.1.4,120.43128852681482,
,,,,Conditions/Version_1/zeroback(1)_v1.xlsx,Rule: Press 'space' when you see the letter 'x' or 'X'.,b,None,,,,,,,,,0,0,0,0,0,0,0,0,,,,,,,,,,,,,,,,,,,,,,,,,,,,,,,,,,,,,,,,,,,,,,,,,,,,,,,,,,,568.6703217000031,None,571.6618797999981,None,space,1.4356799999950454,571.6618797999981,None,568.6703217000031,None,1.2766,574.4259806000046,None,None,1,574.4259806000046,None,,P032,FENCOG,1,Pre,2022_Mar_30_1139,N-Back (New Version 2021),2021.1.4,120.43128852681482,
,,,,Conditions/Version_1/zeroback(1)_v1.xlsx,Rule: Press 'space' when you see the letter 'x' or 'X'.,T,None,,,,,,,,,0,0,0,0,0,1,1,1,,,,,,,,,,,,,,,,,,,,,,,,,,,,,,,,,,,,,,,,,,,,,,,,,,,,,,,,,,,,,,,,,,,,,1.3572,577.7956073000096,None,None,1,577.7956073000096,None,,P032,FENCOG,1,Pre,2022_Mar_30_1139,N-Back (New Version 2021),2021.1.4,120.43128852681482,
,,,,Conditions/Version_1/zeroback(1)_v1.xlsx,Rule: Press 'space' when you see the letter 'x' or 'X'.,L,None,,,,,,,,,0,0,0,0,0,2,2,2,,,,,,,,,,,,,,,,,,,,,,,,,,,,,,,,,,,,,,,,,,,,,,,,,,,,,,,,,,,,,,,,,,,,,1.0348,580.8470143000013,None,None,1,580.8470143000013,None,,P032,FENCOG,1,Pre,2022_Mar_30_1139,N-Back (New Version 2021),2021.1.4,120.43128852681482,
,,,,Conditions/Version_1/zeroback(1)_v1.xlsx,Rule: Press 'space' when you see the letter 'x' or 'X'.,x,space,,,,,,,,,0,0,0,0,0,3,3,3,,,,,,,,,,,,,,,,,,,,,,,,,,,,,,,,,,,,,,,,,,,,,,,,,,,,,,,,,,,,,,,,,,,,,1.8532,584.7111691000027,None,space,1,584.7111691000027,None,0.5463149999995949,P032,FENCOG,1,Pre,2022_Mar_30_1139,N-Back (New Version 2021),2021.1.4,120.43128852681482,
,,,,Conditions/Version_1/zeroback(1)_v1.xlsx,Rule: Press 'space' when you see the letter 'x' or 'X'.,o,None,,,,,,,,,0,0,0,0,0,4,4,4,,,,,,,,,,,,,,,,,,,,,,,,,,,,,,,,,,,,,,,,,,,,,,,,,,,,,,,,,,,,,,,,,,,,,1.1526,587.8688124000037,None,None,1,587.8688124000037,None,,P032,FENCOG,1,Pre,2022_Mar_30_1139,N-Back (New Version 2021),2021.1.4,120.43128852681482,
,,,,Conditions/Version_1/zeroback(1)_v1.xlsx,Rule: Press 'space' when you see the letter 'x' or 'X'.,P,None,,,,,,,,,0,0,0,0,0,5,5,5,,,,,,,,,,,,,,,,,,,,,,,,,,,,,,,,,,,,,,,,,,,,,,,,,,,,,,,,,,,,,,,,,,,,,1.754,591.6241765000013,None,None,1,591.6241765000013,None,,P032,FENCOG,1,Pre,2022_Mar_30_1139,N-Back (New Version 2021),2021.1.4,120.43128852681482,
,,,,Conditions/Version_1/zeroback(1)_v1.xlsx,Rule: Press 'space' when you see the letter 'x' or 'X'.,X,space,,,,,,,,,0,0,0,0,0,6,6,6,,,,,,,,,,,,,,,,,,,,,,,,,,,,,,,,,,,,,,,,,,,,,,,,,,,,,,,,,,,,,,,,,,,,,1.9586,595.5918478999956,None,space,1,595.5918478999956,None,0.3461408000002848,P032,FENCOG,1,Pre,2022_Mar_30_1139,N-Back (New Version 2021),2021.1.4,120.43128852681482,
,,,,Conditions/Version_1/zeroback(1)_v1.xlsx,Rule: Press 'space' when you see the letter 'x' or 'X'.,n,None,,,,,,,,,0,0,0,0,0,7,7,7,,,,,,,,,,,,,,,,,,,,,,,,,,,,,,,,,,,,,,,,,,,,,,,,,,,,,,,,,,,,,,,,,,,,,1.9896,599.5918088000035,None,None,1,599.5918088000035,None,,P032,FENCOG,1,Pre,2022_Mar_30_1139,N-Back (New Version 2021),2021.1.4,120.43128852681482,
,,,,Conditions/Version_1/zeroback(1)_v1.xlsx,Rule: Press 'space' when you see the letter 'x' or 'X'.,M,None,,,,,,,,,0,0,0,0,0,8,8,8,,,,,,,,,,,,,,,,,,,,,,,,,,,,,,,,,,,,,,,,,,,,,,,,,,,,,,,,,,,,,,,,,,,,,1.9958,603.5996088999964,None,None,1,603.5996088999964,None,,P032,FENCOG,1,Pre,2022_Mar_30_1139,N-Back (New Version 2021),2021.1.4,120.43128852681482,
,,,,Conditions/Version_1/zeroback(1)_v1.xlsx,Rule: Press 'space' when you see the letter 'x' or 'X'.,a,None,,,,,,,,,0,0,0,0,0,9,9,9,,,,,,,,,,,,,,,,,,,,,,,,,,,,,,,,,,,,,,,,,,,,,,,,,,,,,,,,,,,,,,,,,,,,,1.6672,607.2780153000058,None,None,1,607.2780153000058,None,,P032,FENCOG,1,Pre,2022_Mar_30_1139,N-Back (New Version 2021),2021.1.4,120.43128852681482,
,,,,Conditions/Version_1/zeroback(1)_v1.xlsx,Rule: Press 'space' when you see the letter 'x' or 'X'.,,,,,,,,,,,0,0,0,0,,,,,,,,,,,,,,,,,,,,,,,,,,,,,,,,,,,,,,,,,,,,,,,,,,,,,,,,,,,,,,,,,,,,,,,,,,,,,,,,,P032,FENCOG,1,Pre,2022_Mar_30_1139,N-Back (New Version 2021),2021.1.4,120.43128852681482,
,,,,Conditions/Version_1/oneback(1)_v1.xlsx,New rule: Press 'space' when you see 1-back (i.e. the same letter as the one that appeared 1 letter ago.),b,None,,,,,,,,,0,1,1,1,0,0,0,0,,,,,,,,,,,,,,,,,,,,,,,,,,,,,,,,,,,,,,,,,,,,,,,,,,,,,,,,,,,609.3405768000084,None,612.3185524,None,space,0.4989019000058761,612.3185524,None,609.3405768000084,None,1.8842,614.7406244000013,None,None,1,614.7406244000013,None,,P032,FENCOG,1,Pre,2022_Mar_30_1139,N-Back (New Version 2021),2021.1.4,120.43128852681482,
,,,,Conditions/Version_1/oneback(1)_v1.xlsx,New rule: Press 'space' when you see 1-back (i.e. the same letter as the one that appeared 1 letter ago.),p,None,,,,,,,,,0,1,1,1,0,1,1,1,,,,,,,,,,,,,,,,,,,,,,,,,,,,,,,,,,,,,,,,,,,,,,,,,,,,,,,,,,,,,,,,,,,,,1.1836,617.9418489000091,None,None,1,617.9418489000091,None,,P032,FENCOG,1,Pre,2022_Mar_30_1139,N-Back (New Version 2021),2021.1.4,120.43128852681482,
,,,,Conditions/Version_1/oneback(1)_v1.xlsx,New rule: Press 'space' when you see 1-back (i.e. the same letter as the one that appeared 1 letter ago.),M,None,,,,,,,,,0,1,1,1,0,2,2,2,,,,,,,,,,,,,,,,,,,,,,,,,,,,,,,,,,,,,,,,,,,,,,,,,,,,,,,,,,,,,,,,,,,,,1.5928,621.5510735999997,None,None,1,621.5510735999997,None,,P032,FENCOG,1,Pre,2022_Mar_30_1139,N-Back (New Version 2021),2021.1.4,120.43128852681482,
,,,,Conditions/Version_1/oneback(1)_v1.xlsx,New rule: Press 'space' when you see 1-back (i.e. the same letter as the one that appeared 1 letter ago.),M,space,,,,,,,,,0,1,1,1,0,3,3,3,,,,,,,,,,,,,,,,,,,,,,,,,,,,,,,,,,,,,,,,,,,,,,,,,,,,,,,,,,,,,,,,,,,,,1.9276,625.4777658000094,None,space,1,625.4777658000094,None,0.49213400000007823,P032,FENCOG,1,Pre,2022_Mar_30_1139,N-Back (New Version 2021),2021.1.4,120.43128852681482,
,,,,Conditions/Version_1/oneback(1)_v1.xlsx,New rule: Press 'space' when you see 1-back (i.e. the same letter as the one that appeared 1 letter ago.),n,None,,,,,,,,,0,1,1,1,0,4,4,4,,,,,,,,,,,,,,,,,,,,,,,,,,,,,,,,,,,,,,,,,,,,,,,,,,,,,,,,,,,,,,,,,,,,,1.2456,628.7311125999986,None,None,1,628.7311125999986,None,,P032,FENCOG,1,Pre,2022_Mar_30_1139,N-Back (New Version 2021),2021.1.4,120.43128852681482,
,,,,Conditions/Version_1/oneback(1)_v1.xlsx,New rule: Press 'space' when you see 1-back (i.e. the same letter as the one that appeared 1 letter ago.),g,None,,,,,,,,,0,1,1,1,0,5,5,5,,,,,,,,,,,,,,,,,,,,,,,,,,,,,,,,,,,,,,,,,,,,,,,,,,,,,,,,,,,,,,,,,,,,,1.8098,632.5548832000059,None,None,1,632.5548832000059,None,,P032,FENCOG,1,Pre,2022_Mar_30_1139,N-Back (New Version 2021),2021.1.4,120.43128852681482,
,,,,Conditions/Version_1/oneback(1)_v1.xlsx,New rule: Press 'space' when you see 1-back (i.e. the same letter as the one that appeared 1 letter ago.),P,None,,,,,,,,,0,1,1,1,0,6,6,6,,,,,,,,,,,,,,,,,,,,,,,,,,,,,,,,,,,,,,,,,,,,,,,,,,,,,,,,,,,,,,,,,,,,,1.7974,636.3593997999997,None,None,1,636.3593997999997,None,,P032,FENCOG,1,Pre,2022_Mar_30_1139,N-Back (New Version 2021),2021.1.4,120.43128852681482,
,,,,Conditions/Version_1/oneback(1)_v1.xlsx,New rule: Press 'space' when you see 1-back (i.e. the same letter as the one that appeared 1 letter ago.),o,None,,,,,,,,,0,1,1,1,0,7,7,7,,,,,,,,,,,,,,,,,,,,,,,,,,,,,,,,,,,,,,,,,,,,,,,,,,,,,,,,,,,,,,,,,,,,,1.4378,639.8098275000084,None,None,1,639.8098275000084,None,,P032,FENCOG,1,Pre,2022_Mar_30_1139,N-Back (New Version 2021),2021.1.4,120.43128852681482,
,,,,Conditions/Version_1/oneback(1)_v1.xlsx,New rule: Press 'space' when you see 1-back (i.e. the same letter as the one that appeared 1 letter ago.),f,None,,,,,,,,,0,1,1,1,0,8,8,8,,,,,,,,,,,,,,,,,,,,,,,,,,,,,,,,,,,,,,,,,,,,,,,,,,,,,,,,,,,,,,,,,,,,,1.2394,643.0723999000038,None,None,1,643.0723999000038,None,,P032,FENCOG,1,Pre,2022_Mar_30_1139,N-Back (New Version 2021),2021.1.4,120.43128852681482,
,,,,Conditions/Version_1/oneback(1)_v1.xlsx,New rule: Press 'space' when you see 1-back (i.e. the same letter as the one that appeared 1 letter ago.),F,space,,,,,,,,,0,1,1,1,0,9,9,9,,,,,,,,,,,,,,,,,,,,,,,,,,,,,,,,,,,,,,,,,,,,,,,,,,,,,,,,,,,,,,,,,,,,,1.9648,647.0465011000051,None,space,1,647.0465011000051,None,0.43540289999509696,P032,FENCOG,1,Pre,2022_Mar_30_1139,N-Back (New Version 2021),2021.1.4,120.43128852681482,
,,,,Conditions/Version_1/oneback(1)_v1.xlsx,New rule: Press 'space' when you see 1-back (i.e. the same letter as the one that appeared 1 letter ago.),,,,,,,,,,,0,1,1,1,,,,,,,,,,,,,,,,,,,,,,,,,,,,,,,,,,,,,,,,,,,,,,,,,,,,,,,,,,,,,,,,,,,,,,,,,,,,,,,,,P032,FENCOG,1,Pre,2022_Mar_30_1139,N-Back (New Version 2021),2021.1.4,120.43128852681482,
,,,,Conditions/Version_1/twoback(1)_v1.xlsx,New rule: Press 'space' when you see 2-back (i.e. the same letter as the one that appeared 2 letters ago.),b,None,,,,,,,,,0,2,2,2,0,0,0,0,,,,,,,,,,,,,,,,,,,,,,,,,,,,,,,,,,,,,,,,,,,,,,,,,,,,,,,,,,,649.0873318000085,None,652.0658140000014,None,space,2.7041334999958053,652.0658140000014,None,649.0873318000085,None,1.537,656.3476079999964,None,None,1,656.3476079999964,None,,P032,FENCOG,1,Pre,2022_Mar_30_1139,N-Back (New Version 2021),2021.1.4,120.43128852681482,
,,,,Conditions/Version_1/twoback(1)_v1.xlsx,New rule: Press 'space' when you see 2-back (i.e. the same letter as the one that appeared 2 letters ago.),h,None,,,,,,,,,0,2,2,2,0,1,1,1,,,,,,,,,,,,,,,,,,,,,,,,,,,,,,,,,,,,,,,,,,,,,,,,,,,,,,,,,,,,,,,,,,,,,1.1774,659.5431983000017,None,None,1,659.5431983000017,None,,P032,FENCOG,1,Pre,2022_Mar_30_1139,N-Back (New Version 2021),2021.1.4,120.43128852681482,
,,,,Conditions/Version_1/twoback(1)_v1.xlsx,New rule: Press 'space' when you see 2-back (i.e. the same letter as the one that appeared 2 letters ago.),j,None,,,,,,,,,0,2,2,2,0,2,2,2,,,,,,,,,,,,,,,,,,,,,,,,,,,,,,,,,,,,,,,,,,,,,,,,,,,,,,,,,,,,,,,,,,,,,1.1836,662.7297546000045,None,None,1,662.7297546000045,None,,P032,FENCOG,1,Pre,2022_Mar_30_1139,N-Back (New Version 2021),2021.1.4,120.43128852681482,
,,,,Conditions/Version_1/twoback(1)_v1.xlsx,New rule: Press 'space' when you see 2-back (i.e. the same letter as the one that appeared 2 letters ago.),H,space,,,,,,,,,0,2,2,2,0,3,3,3,,,,,,,,,,,,,,,,,,,,,,,,,,,,,,,,,,,,,,,,,,,,,,,,,,,,,,,,,,,,,,,,,,,,,1.7664,666.5134565000044,None,space,1,666.5134565000044,None,0.632351699998253,P032,FENCOG,1,Pre,2022_Mar_30_1139,N-Back (New Version 2021),2021.1.4,120.43128852681482,
,,,,Conditions/Version_1/twoback(1)_v1.xlsx,New rule: Press 'space' when you see 2-back (i.e. the same letter as the one that appeared 2 letters ago.),p,None,,,,,,,,,0,2,2,2,0,4,4,4,,,,,,,,,,,,,,,,,,,,,,,,,,,,,,,,,,,,,,,,,,,,,,,,,,,,,,,,,,,,,,,,,,,,,1.2146,669.730200799997,None,None,1,669.730200799997,None,,P032,FENCOG,1,Pre,2022_Mar_30_1139,N-Back (New Version 2021),2021.1.4,120.43128852681482,
,,,,Conditions/Version_1/twoback(1)_v1.xlsx,New rule: Press 'space' when you see 2-back (i.e. the same letter as the one that appeared 2 letters ago.),p,None,,,,,,,,,0,2,2,2,0,5,5,5,,,,,,,,,,,,,,,,,,,,,,,,,,,,,,,,,,,,,,,,,,,,,,,,,,,,,,,,,,,,,,,,,,,,,1.7726,673.5138546000089,None,None,1,673.5138546000089,None,,P032,FENCOG,1,Pre,2022_Mar_30_1139,N-Back (New Version 2021),2021.1.4,120.43128852681482,
,,,,Conditions/Version_1/twoback(1)_v1.xlsx,New rule: Press 'space' when you see 2-back (i.e. the same letter as the one that appeared 2 letters ago.),w,None,,,,,,,,,0,2,2,2,0,6,6,6,,,,,,,,,,,,,,,,,,,,,,,,,,,,,,,,,,,,,,,,,,,,,,,,,,,,,,,,,,,,,,,,,,,,,1.6052,677.132349499996,None,None,1,677.132349499996,None,,P032,FENCOG,1,Pre,2022_Mar_30_1139,N-Back (New Version 2021),2021.1.4,120.43128852681482,
,,,,Conditions/Version_1/twoback(1)_v1.xlsx,New rule: Press 'space' when you see 2-back (i.e. the same letter as the one that appeared 2 letters ago.),R,None,,,,,,,,,0,2,2,2,0,7,7,7,,,,,,,,,,,,,,,,,,,,,,,,,,,,,,,,,,,,,,,,,,,,,,,,,,,,,,,,,,,,,,,,,,,,,1.0596,680.2097300000023,None,None,1,680.2097300000023,None,,P032,FENCOG,1,Pre,2022_Mar_30_1139,N-Back (New Version 2021),2021.1.4,120.43128852681482,
,,,,Conditions/Version_1/twoback(1)_v1.xlsx,New rule: Press 'space' when you see 2-back (i.e. the same letter as the one that appeared 2 letters ago.),a,None,,,,,,,,,0,2,2,2,0,8,8,8,,,,,,,,,,,,,,,,,,,,,,,,,,,,,,,,,,,,,,,,,,,,,,,,,,,,,,,,,,,,,,,,,,,,,1.2642,683.4825637000031,None,None,1,683.4825637000031,None,,P032,FENCOG,1,Pre,2022_Mar_30_1139,N-Back (New Version 2021),2021.1.4,120.43128852681482,
,,,,Conditions/Version_1/twoback(1)_v1.xlsx,New rule: Press 'space' when you see 2-back (i.e. the same letter as the one that appeared 2 letters ago.),r,space,,,,,,,,,0,2,2,2,0,9,9,9,,,,,,,,,,,,,,,,,,,,,,,,,,,,,,,,,,,,,,,,,,,,,,,,,,,,,,,,,,,,,,,,,,,,,1.6858,687.1801711000007,None,space,1,687.1801711000007,None,0.41317960000014864,P032,FENCOG,1,Pre,2022_Mar_30_1139,N-Back (New Version 2021),2021.1.4,120.43128852681482,
,,,,Conditions/Version_1/twoback(1)_v1.xlsx,New rule: Press 'space' when you see 2-back (i.e. the same letter as the one that appeared 2 letters ago.),,,,,,,,,,,0,2,2,2,,,,,,,,,,,,,,,,,,,,,,,,,,,,,,,,,,,,,,,,,,,,,,,,,,,,,,,,,,,,,,,,,,,,,,,,,,,,,,,,,P032,FENCOG,1,Pre,2022_Mar_30_1139,N-Back (New Version 2021),2021.1.4,120.43128852681482,
,,,,Conditions/Version_1/threeback(1)_v1.xlsx,New rule: Press 'space' when you see 3-back (i.e. the same letter as the one that appeared 3 letters ago.),r,None,,,,,,,,,0,3,3,3,0,0,0,0,,,,,,,,,,,,,,,,,,,,,,,,,,,,,,,,,,,,,,,,,,,,,,,,,,,,,,,,,,,689.2236458999978,None,692.2029610000027,None,space,0.6706302999955369,692.2029610000027,None,689.2236458999978,None,1.6672,694.5818413000088,None,None,1,694.5818413000088,None,,P032,FENCOG,1,Pre,2022_Mar_30_1139,N-Back (New Version 2021),2021.1.4,120.43128852681482,
,,,,Conditions/Version_1/threeback(1)_v1.xlsx,New rule: Press 'space' when you see 3-back (i.e. the same letter as the one that appeared 3 letters ago.),o,None,,,,,,,,,0,3,3,3,0,1,1,1,,,,,,,,,,,,,,,,,,,,,,,,,,,,,,,,,,,,,,,,,,,,,,,,,,,,,,,,,,,,,,,,,,,,,1.8966,698.4935762999958,None,None,1,698.4935762999958,None,,P032,FENCOG,1,Pre,2022_Mar_30_1139,N-Back (New Version 2021),2021.1.4,120.43128852681482,
,,,,Conditions/Version_1/threeback(1)_v1.xlsx,New rule: Press 'space' when you see 3-back (i.e. the same letter as the one that appeared 3 letters ago.),P,None,,,,,,,,,0,3,3,3,0,2,2,2,,,,,,,,,,,,,,,,,,,,,,,,,,,,,,,,,,,,,,,,,,,,,,,,,,,,,,,,,,,,,,,,,,,,,1.7168,702.2187278000056,None,None,1,702.2187278000056,None,,P032,FENCOG,1,Pre,2022_Mar_30_1139,N-Back (New Version 2021),2021.1.4,120.43128852681482,
,,,,Conditions/Version_1/threeback(1)_v1.xlsx,New rule: Press 'space' when you see 3-back (i.e. the same letter as the one that appeared 3 letters ago.),R,space,,,,,,,,,0,3,3,3,0,3,3,3,,,,,,,,,,,,,,,,,,,,,,,,,,,,,,,,,,,,,,,,,,,,,,,,,,,,,,,,,,,,,,,,,,,,,1.289,705.5114011999976,None,space,1,705.5114011999976,None,0.6822324999957345,P032,FENCOG,1,Pre,2022_Mar_30_1139,N-Back (New Version 2021),2021.1.4,120.43128852681482,
,,,,Conditions/Version_1/threeback(1)_v1.xlsx,New rule: Press 'space' when you see 3-back (i.e. the same letter as the one that appeared 3 letters ago.),p,None,,,,,,,,,0,3,3,3,0,4,4,4,,,,,,,,,,,,,,,,,,,,,,,,,,,,,,,,,,,,,,,,,,,,,,,,,,,,,,,,,,,,,,,,,,,,,1.01,708.5314787000098,None,None,1,708.5314787000098,None,,P032,FENCOG,1,Pre,2022_Mar_30_1139,N-Back (New Version 2021),2021.1.4,120.43128852681482,
,,,,Conditions/Version_1/threeback(1)_v1.xlsx,New rule: Press 'space' when you see 3-back (i.e. the same letter as the one that appeared 3 letters ago.),E,None,,,,,,,,,0,3,3,3,0,5,5,5,,,,,,,,,,,,,,,,,,,,,,,,,,,,,,,,,,,,,,,,,,,,,,,,,,,,,,,,,,,,,,,,,,,,,1.5246,712.0637591999985,None,None,1,712.0637591999985,None,,P032,FENCOG,1,Pre,2022_Mar_30_1139,N-Back (New Version 2021),2021.1.4,120.43128852681482,
,,,,Conditions/Version_1/threeback(1)_v1.xlsx,New rule: Press 'space' when you see 3-back (i.e. the same letter as the one that appeared 3 letters ago.),e,None,,,,,,,,,0,3,3,3,0,6,6,6,,,,,,,,,,,,,,,,,,,,,,,,,,,,,,,,,,,,,,,,,,,,,,,,,,,,,,,,,,,,,,,,,,,,,1.1154,715.1860264999996,None,None,1,715.1860264999996,None,,P032,FENCOG,1,Pre,2022_Mar_30_1139,N-Back (New Version 2021),2021.1.4,120.43128852681482,
,,,,Conditions/Version_1/threeback(1)_v1.xlsx,New rule: Press 'space' when you see 3-back (i.e. the same letter as the one that appeared 3 letters ago.),m,None,,,,,,,,,0,3,3,3,0,7,7,7,,,,,,,,,,,,,,,,,,,,,,,,,,,,,,,,,,,,,,,,,,,,,,,,,,,,,,,,,,,,,,,,,,,,,1.2642,718.4628501999978,None,None,1,718.4628501999978,None,,P032,FENCOG,1,Pre,2022_Mar_30_1139,N-Back (New Version 2021),2021.1.4,120.43128852681482,
,,,,Conditions/Version_1/threeback(1)_v1.xlsx,New rule: Press 'space' when you see 3-back (i.e. the same letter as the one that appeared 3 letters ago.),n,None,,,,,,,,,0,3,3,3,0,8,8,8,,,,,,,,,,,,,,,,,,,,,,,,,,,,,,,,,,,,,,,,,,,,,,,,,,,,,,,,,,,,,,,,,,,,,1.8718,722.3470932000055,None,None,1,722.3470932000055,None,,P032,FENCOG,1,Pre,2022_Mar_30_1139,N-Back (New Version 2021),2021.1.4,120.43128852681482,
,,,,Conditions/Version_1/threeback(1)_v1.xlsx,New rule: Press 'space' when you see 3-back (i.e. the same letter as the one that appeared 3 letters ago.),e,space,,,,,,,,,0,3,3,3,0,9,9,9,,,,,,,,,,,,,,,,,,,,,,,,,,,,,,,,,,,,,,,,,,,,,,,,,,,,,,,,,,,,,,,,,,,,,1.94,726.2949398000055,None,space,1,726.2949398000055,None,0.6107341000024462,P032,FENCOG,1,Pre,2022_Mar_30_1139,N-Back (New Version 2021),2021.1.4,120.43128852681482,
,,,,Conditions/Version_1/threeback(1)_v1.xlsx,New rule: Press 'space' when you see 3-back (i.e. the same letter as the one that appeared 3 letters ago.),,,,,,,,,,,0,3,3,3,,,,,,,,,,,,,,,,,,,,,,,,,,,,,,,,,,,,,,,,,,,,,,,,,,,,,,,,,,,,,,,,,,,,,,,,,,,,,,,,,P032,FENCOG,1,Pre,2022_Mar_30_1139,N-Back (New Version 2021),2021.1.4,120.43128852681482,
,,,,Conditions/Version_1/oneback(2)_v1.xlsx,New rule: Press 'space' when you see 1-back (i.e. the same letter as the one that appeared 1 letter ago.),q,None,,,,,,,,,0,4,4,4,0,0,0,0,,,,,,,,,,,,,,,,,,,,,,,,,,,,,,,,,,,,,,,,,,,,,,,,,,,,,,,,,,,728.3307171000051,None,731.3183389000042,None,space,0.7392170000093756,731.3183389000042,None,728.3307171000051,None,1.0224,733.1116802000033,None,None,1,733.1116802000033,None,,P032,FENCOG,1,Pre,2022_Mar_30_1139,N-Back (New Version 2021),2021.1.4,120.43128852681482,
,,,,Conditions/Version_1/oneback(2)_v1.xlsx,New rule: Press 'space' when you see 1-back (i.e. the same letter as the one that appeared 1 letter ago.),Q,space,,,,,,,,,0,4,4,4,0,1,1,1,,,,,,,,,,,,,,,,,,,,,,,,,,,,,,,,,,,,,,,,,,,,,,,,,,,,,,,,,,,,,,,,,,,,,1.9338,737.0604206999997,None,space,1,737.0604206999997,None,1.085407500009751,P032,FENCOG,1,Pre,2022_Mar_30_1139,N-Back (New Version 2021),2021.1.4,120.43128852681482,
,,,,Conditions/Version_1/oneback(2)_v1.xlsx,New rule: Press 'space' when you see 1-back (i.e. the same letter as the one that appeared 1 letter ago.),P,None,,,,,,,,,0,4,4,4,0,2,2,2,,,,,,,,,,,,,,,,,,,,,,,,,,,,,,,,,,,,,,,,,,,,,,,,,,,,,,,,,,,,,,,,,,,,,1.8346,740.896198900009,None,None,1,740.896198900009,None,,P032,FENCOG,1,Pre,2022_Mar_30_1139,N-Back (New Version 2021),2021.1.4,120.43128852681482,
,,,,Conditions/Version_1/oneback(2)_v1.xlsx,New rule: Press 'space' when you see 1-back (i.e. the same letter as the one that appeared 1 letter ago.),o,None,,,,,,,,,0,4,4,4,0,3,3,3,,,,,,,,,,,,,,,,,,,,,,,,,,,,,,,,,,,,,,,,,,,,,,,,,,,,,,,,,,,,,,,,,,,,,1.0286,743.929000899996,None,None,1,743.929000899996,None,,P032,FENCOG,1,Pre,2022_Mar_30_1139,N-Back (New Version 2021),2021.1.4,120.43128852681482,
,,,,Conditions/Version_1/oneback(2)_v1.xlsx,New rule: Press 'space' when you see 1-back (i.e. the same letter as the one that appeared 1 letter ago.),m,None,,,,,,,,,0,4,4,4,0,4,4,4,,,,,,,,,,,,,,,,,,,,,,,,,,,,,,,,,,,,,,,,,,,,,,,,,,,,,,,,,,,,,,,,,,,,,1.9896,747.929553000009,None,None,1,747.929553000009,None,,P032,FENCOG,1,Pre,2022_Mar_30_1139,N-Back (New Version 2021),2021.1.4,120.43128852681482,
,,,,Conditions/Version_1/oneback(2)_v1.xlsx,New rule: Press 'space' when you see 1-back (i.e. the same letter as the one that appeared 1 letter ago.),Z,None,,,,,,,,,0,4,4,4,0,5,5,5,,,,,,,,,,,,,,,,,,,,,,,,,,,,,,,,,,,,,,,,,,,,,,,,,,,,,,,,,,,,,,,,,,,,,1.2146,751.1478317000001,None,None,1,751.1478317000001,None,,P032,FENCOG,1,Pre,2022_Mar_30_1139,N-Back (New Version 2021),2021.1.4,120.43128852681482,
,,,,Conditions/Version_1/oneback(2)_v1.xlsx,New rule: Press 'space' when you see 1-back (i.e. the same letter as the one that appeared 1 letter ago.),c,None,,,,,,,,,0,4,4,4,0,6,6,6,,,,,,,,,,,,,,,,,,,,,,,,,,,,,,,,,,,,,,,,,,,,,,,,,,,,,,,,,,,,,,,,,,,,,1.2766,754.4353054000094,None,None,1,754.4353054000094,None,,P032,FENCOG,1,Pre,2022_Mar_30_1139,N-Back (New Version 2021),2021.1.4,120.43128852681482,
,,,,Conditions/Version_1/oneback(2)_v1.xlsx,New rule: Press 'space' when you see 1-back (i.e. the same letter as the one that appeared 1 letter ago.),c,space,,,,,,,,,0,4,4,4,0,7,7,7,,,,,,,,,,,,,,,,,,,,,,,,,,,,,,,,,,,,,,,,,,,,,,,,,,,,,,,,,,,,,,,,,,,,,1.5432,757.9886849000031,None,space,1,757.9886849000031,None,0.5409666999912588,P032,FENCOG,1,Pre,2022_Mar_30_1139,N-Back (New Version 2021),2021.1.4,120.43128852681482,
,,,,Conditions/Version_1/oneback(2)_v1.xlsx,New rule: Press 'space' when you see 1-back (i.e. the same letter as the one that appeared 1 letter ago.),P,None,,,,,,,,,0,4,4,4,0,8,8,8,,,,,,,,,,,,,,,,,,,,,,,,,,,,,,,,,,,,,,,,,,,,,,,,,,,,,,,,,,,,,,,,,,,,,1.413,761.4171467999986,None,None,1,761.4171467999986,None,,P032,FENCOG,1,Pre,2022_Mar_30_1139,N-Back (New Version 2021),2021.1.4,120.43128852681482,
,,,,Conditions/Version_1/oneback(2)_v1.xlsx,New rule: Press 'space' when you see 1-back (i.e. the same letter as the one that appeared 1 letter ago.),p,space,,,,,,,,,0,4,4,4,0,9,9,9,,,,,,,,,,,,,,,,,,,,,,,,,,,,,,,,,,,,,,,,,,,,,,,,,,,,,,,,,,,,,,,,,,,,,1.1836,764.6068877000071,None,space,1,764.6068877000071,None,0.6029064000031212,P032,FENCOG,1,Pre,2022_Mar_30_1139,N-Back (New Version 2021),2021.1.4,120.43128852681482,
,,,,Conditions/Version_1/oneback(2)_v1.xlsx,New rule: Press 'space' when you see 1-back (i.e. the same letter as the one that appeared 1 letter ago.),,,,,,,,,,,0,4,4,4,,,,,,,,,,,,,,,,,,,,,,,,,,,,,,,,,,,,,,,,,,,,,,,,,,,,,,,,,,,,,,,,,,,,,,,,,,,,,,,,,P032,FENCOG,1,Pre,2022_Mar_30_1139,N-Back (New Version 2021),2021.1.4,120.43128852681482,
,,,,Conditions/Version_1/zeroback(2)_v1.xlsx,New rule: Press 'space' when you see the letter 'x' or 'X'.,p,None,,,,,,,,,0,5,5,5,0,0,0,0,,,,,,,,,,,,,,,,,,,,,,,,,,,,,,,,,,,,,,,,,,,,,,,,,,,,,,,,,,,766.6494173999963,None,769.6386538000079,None,space,32.95474239999021,769.6386538000079,None,766.6494173999963,None,1.5122,804.1422438000009,None,None,1,804.1422438000009,None,,P032,FENCOG,1,Pre,2022_Mar_30_1139,N-Back (New Version 2021),2021.1.4,120.43128852681482,
,,,,Conditions/Version_1/zeroback(2)_v1.xlsx,New rule: Press 'space' when you see the letter 'x' or 'X'.,L,None,,,,,,,,,0,5,5,5,0,1,1,1,,,,,,,,,,,,,,,,,,,,,,,,,,,,,,,,,,,,,,,,,,,,,,,,,,,,,,,,,,,,,,,,,,,,,1.041,807.1930025000038,None,None,1,807.1930025000038,None,,P032,FENCOG,1,Pre,2022_Mar_30_1139,N-Back (New Version 2021),2021.1.4,120.43128852681482,
,,,,Conditions/Version_1/zeroback(2)_v1.xlsx,New rule: Press 'space' when you see the letter 'x' or 'X'.,G,None,,,,,,,,,0,5,5,5,0,2,2,2,,,,,,,,,,,,,,,,,,,,,,,,,,,,,,,,,,,,,,,,,,,,,,,,,,,,,,,,,,,,,,,,,,,,,1.3138,810.5179864000092,None,None,1,810.5179864000092,None,,P032,FENCOG,1,Pre,2022_Mar_30_1139,N-Back (New Version 2021),2021.1.4,120.43128852681482,
,,,,Conditions/Version_1/zeroback(2)_v1.xlsx,New rule: Press 'space' when you see the letter 'x' or 'X'.,y,None,,,,,,,,,0,5,5,5,0,3,3,3,,,,,,,,,,,,,,,,,,,,,,,,,,,,,,,,,,,,,,,,,,,,,,,,,,,,,,,,,,,,,,,,,,,,,1.8656,814.3914308999956,None,None,1,814.3914308999956,None,,P032,FENCOG,1,Pre,2022_Mar_30_1139,N-Back (New Version 2021),2021.1.4,120.43128852681482,
,,,,Conditions/Version_1/zeroback(2)_v1.xlsx,New rule: Press 'space' when you see the letter 'x' or 'X'.,Y,None,,,,,,,,,0,5,5,5,0,4,4,4,,,,,,,,,,,,,,,,,,,,,,,,,,,,,,,,,,,,,,,,,,,,,,,,,,,,,,,,,,,,,,,,,,,,,1.5432,817.9409859000007,None,space,0,817.9409859000007,None,0.6047547000052873,P032,FENCOG,1,Pre,2022_Mar_30_1139,N-Back (New Version 2021),2021.1.4,120.43128852681482,
,,,,Conditions/Version_1/zeroback(2)_v1.xlsx,New rule: Press 'space' when you see the letter 'x' or 'X'.,W,None,,,,,,,,,0,5,5,5,0,5,5,5,,,,,,,,,,,,,,,,,,,,,,,,,,,,,,,,,,,,,,,,,,,,,,,,,,,,,,,,,,,,,,,,,,,,,1.0286,820.9826822000032,None,None,1,820.9826822000032,None,,P032,FENCOG,1,Pre,2022_Mar_30_1139,N-Back (New Version 2021),2021.1.4,120.43128852681482,
,,,,Conditions/Version_1/zeroback(2)_v1.xlsx,New rule: Press 'space' when you see the letter 'x' or 'X'.,x,space,,,,,,,,,0,5,5,5,0,6,6,6,,,,,,,,,,,,,,,,,,,,,,,,,,,,,,,,,,,,,,,,,,,,,,,,,,,,,,,,,,,,,,,,,,,,,1.2084,824.2059790000058,None,space,1,824.2059790000058,None,0.8196702999994159,P032,FENCOG,1,Pre,2022_Mar_30_1139,N-Back (New Version 2021),2021.1.4,120.43128852681482,
,,,,Conditions/Version_1/zeroback(2)_v1.xlsx,New rule: Press 'space' when you see the letter 'x' or 'X'.,X,space,,,,,,,,,0,5,5,5,0,7,7,7,,,,,,,,,,,,,,,,,,,,,,,,,,,,,,,,,,,,,,,,,,,,,,,,,,,,,,,,,,,,,,,,,,,,,1.134,827.3484834999981,None,space,1,827.3484834999981,None,0.5572779000067385,P032,FENCOG,1,Pre,2022_Mar_30_1139,N-Back (New Version 2021),2021.1.4,120.43128852681482,
,,,,Conditions/Version_1/zeroback(2)_v1.xlsx,New rule: Press 'space' when you see the letter 'x' or 'X'.,p,None,,,,,,,,,0,5,5,5,0,8,8,8,,,,,,,,,,,,,,,,,,,,,,,,,,,,,,,,,,,,,,,,,,,,,,,,,,,,,,,,,,,,,,,,,,,,,1.506,830.8640080000041,None,None,1,830.8640080000041,None,,P032,FENCOG,1,Pre,2022_Mar_30_1139,N-Back (New Version 2021),2021.1.4,120.43128852681482,
,,,,Conditions/Version_1/zeroback(2)_v1.xlsx,New rule: Press 'space' when you see the letter 'x' or 'X'.,h,None,,,,,,,,,0,5,5,5,0,9,9,9,,,,,,,,,,,,,,,,,,,,,,,,,,,,,,,,,,,,,,,,,,,,,,,,,,,,,,,,,,,,,,,,,,,,,1.2642,834.1365309999965,None,None,1,834.1365309999965,None,,P032,FENCOG,1,Pre,2022_Mar_30_1139,N-Back (New Version 2021),2021.1.4,120.43128852681482,
,,,,Conditions/Version_1/zeroback(2)_v1.xlsx,New rule: Press 'space' when you see the letter 'x' or 'X'.,,,,,,,,,,,0,5,5,5,,,,,,,,,,,,,,,,,,,,,,,,,,,,,,,,,,,,,,,,,,,,,,,,,,,,,,,,,,,,,,,,,,,,,,,,,,,,,,,,,P032,FENCOG,1,Pre,2022_Mar_30_1139,N-Back (New Version 2021),2021.1.4,120.43128852681482,
,,,,Conditions/Version_1/threeback(2)_v1.xlsx,New rule: Press 'space' when you see 3-back (i.e. the same letter as the one that appeared 3 letters ago.),q,None,,,,,,,,,0,6,6,6,0,0,0,0,,,,,,,,,,,,,,,,,,,,,,,,,,,,,,,,,,,,,,,,,,,,,,,,,,,,,,,,,,,836.1804704000097,None,839.1679967000091,None,space,0.5373127999919234,839.1679967000091,None,836.1804704000097,None,1.4254,841.1771997000033,None,None,1,841.1771997000033,None,,P032,FENCOG,1,Pre,2022_Mar_30_1139,N-Back (New Version 2021),2021.1.4,120.43128852681482,
,,,,Conditions/Version_1/threeback(2)_v1.xlsx,New rule: Press 'space' when you see 3-back (i.e. the same letter as the one that appeared 3 letters ago.),Y,None,,,,,,,,,0,6,6,6,0,1,1,1,,,,,,,,,,,,,,,,,,,,,,,,,,,,,,,,,,,,,,,,,,,,,,,,,,,,,,,,,,,,,,,,,,,,,1.9152,845.109586000006,None,None,1,845.109586000006,None,,P032,FENCOG,1,Pre,2022_Mar_30_1139,N-Back (New Version 2021),2021.1.4,120.43128852681482,
,,,,Conditions/Version_1/threeback(2)_v1.xlsx,New rule: Press 'space' when you see 3-back (i.e. the same letter as the one that appeared 3 letters ago.),p,None,,,,,,,,,0,6,6,6,0,2,2,2,,,,,,,,,,,,,,,,,,,,,,,,,,,,,,,,,,,,,,,,,,,,,,,,,,,,,,,,,,,,,,,,,,,,,1.6052,848.7257828000002,None,None,1,848.7257828000002,None,,P032,FENCOG,1,Pre,2022_Mar_30_1139,N-Back (New Version 2021),2021.1.4,120.43128852681482,
,,,,Conditions/Version_1/threeback(2)_v1.xlsx,New rule: Press 'space' when you see 3-back (i.e. the same letter as the one that appeared 3 letters ago.),p,None,,,,,,,,,0,6,6,6,0,3,3,3,,,,,,,,,,,,,,,,,,,,,,,,,,,,,,,,,,,,,,,,,,,,,,,,,,,,,,,,,,,,,,,,,,,,,1.134,851.8603071999969,None,None,1,851.8603071999969,None,,P032,FENCOG,1,Pre,2022_Mar_30_1139,N-Back (New Version 2021),2021.1.4,120.43128852681482,
,,,,Conditions/Version_1/threeback(2)_v1.xlsx,New rule: Press 'space' when you see 3-back (i.e. the same letter as the one that appeared 3 letters ago.),y,space,,,,,,,,,0,6,6,6,0,4,4,4,,,,,,,,,,,,,,,,,,,,,,,,,,,,,,,,,,,,,,,,,,,,,,,,,,,,,,,,,,,,,,,,,,,,,1.9338,855.8076964000065,None,space,1,855.8076964000065,None,0.46587820000422653,P032,FENCOG,1,Pre,2022_Mar_30_1139,N-Back (New Version 2021),2021.1.4,120.43128852681482,
,,,,Conditions/Version_1/threeback(2)_v1.xlsx,New rule: Press 'space' when you see 3-back (i.e. the same letter as the one that appeared 3 letters ago.),u,None,,,,,,,,,0,6,6,6,0,5,5,5,,,,,,,,,,,,,,,,,,,,,,,,,,,,,,,,,,,,,,,,,,,,,,,,,,,,,,,,,,,,,,,,,,,,,1.6362,859.4536006999988,None,None,1,859.4536006999988,None,,P032,FENCOG,1,Pre,2022_Mar_30_1139,N-Back (New Version 2021),2021.1.4,120.43128852681482,
,,,,Conditions/Version_1/threeback(2)_v1.xlsx,New rule: Press 'space' when you see 3-back (i.e. the same letter as the one that appeared 3 letters ago.),P,space,,,,,,,,,0,6,6,6,0,6,6,6,,,,,,,,,,,,,,,,,,,,,,,,,,,,,,,,,,,,,,,,,,,,,,,,,,,,,,,,,,,,,,,,,,,,,1.878,863.3474474999966,None,None,0,863.3474474999966,None,,P032,FENCOG,1,Pre,2022_Mar_30_1139,N-Back (New Version 2021),2021.1.4,120.43128852681482,
,,,,Conditions/Version_1/threeback(2)_v1.xlsx,New rule: Press 'space' when you see 3-back (i.e. the same letter as the one that appeared 3 letters ago.),a,None,,,,,,,,,0,6,6,6,0,7,7,7,,,,,,,,,,,,,,,,,,,,,,,,,,,,,,,,,,,,,,,,,,,,,,,,,,,,,,,,,,,,,,,,,,,,,1.6486,867.0090653000079,None,None,1,867.0090653000079,None,,P032,FENCOG,1,Pre,2022_Mar_30_1139,N-Back (New Version 2021),2021.1.4,120.43128852681482,
,,,,Conditions/Version_1/threeback(2)_v1.xlsx,New rule: Press 'space' when you see 3-back (i.e. the same letter as the one that appeared 3 letters ago.),U,space,,,,,,,,,0,6,6,6,0,8,8,8,,,,,,,,,,,,,,,,,,,,,,,,,,,,,,,,,,,,,,,,,,,,,,,,,,,,,,,,,,,,,,,,,,,,,1.3324,870.3600967000093,None,space,1,870.3600967000093,None,0.4180329999944661,P032,FENCOG,1,Pre,2022_Mar_30_1139,N-Back (New Version 2021),2021.1.4,120.43128852681482,
,,,,Conditions/Version_1/threeback(2)_v1.xlsx,New rule: Press 'space' when you see 3-back (i.e. the same letter as the one that appeared 3 letters ago.),q,None,,,,,,,,,0,6,6,6,0,9,9,9,,,,,,,,,,,,,,,,,,,,,,,,,,,,,,,,,,,,,,,,,,,,,,,,,,,,,,,,,,,,,,,,,,,,,1.289,873.659172300002,None,None,1,873.659172300002,None,,P032,FENCOG,1,Pre,2022_Mar_30_1139,N-Back (New Version 2021),2021.1.4,120.43128852681482,
,,,,Conditions/Version_1/threeback(2)_v1.xlsx,New rule: Press 'space' when you see 3-back (i.e. the same letter as the one that appeared 3 letters ago.),,,,,,,,,,,0,6,6,6,,,,,,,,,,,,,,,,,,,,,,,,,,,,,,,,,,,,,,,,,,,,,,,,,,,,,,,,,,,,,,,,,,,,,,,,,,,,,,,,,P032,FENCOG,1,Pre,2022_Mar_30_1139,N-Back (New Version 2021),2021.1.4,120.43128852681482,
,,,,Conditions/Version_1/twoback(2)_v1.xlsx,New rule: Press 'space' when you see 2-back (i.e. the same letter as the one that appeared 2 letters ago.),q,None,,,,,,,,,0,7,7,7,0,0,0,0,,,,,,,,,,,,,,,,,,,,,,,,,,,,,,,,,,,,,,,,,,,,,,,,,,,,,,,,,,,875.7043309000001,None,878.6902226000093,None,space,0.6950786000088556,878.6902226000093,None,875.7043309000001,None,1.0224,880.4519643999956,None,None,1,880.4519643999956,None,,P032,FENCOG,1,Pre,2022_Mar_30_1139,N-Back (New Version 2021),2021.1.4,120.43128852681482,
,,,,Conditions/Version_1/twoback(2)_v1.xlsx,New rule: Press 'space' when you see 2-back (i.e. the same letter as the one that appeared 2 letters ago.),r,None,,,,,,,,,0,7,7,7,0,1,1,1,,,,,,,,,,,,,,,,,,,,,,,,,,,,,,,,,,,,,,,,,,,,,,,,,,,,,,,,,,,,,,,,,,,,,1.258,883.7310823000007,None,None,1,883.7310823000007,None,,P032,FENCOG,1,Pre,2022_Mar_30_1139,N-Back (New Version 2021),2021.1.4,120.43128852681482,
,,,,Conditions/Version_1/twoback(2)_v1.xlsx,New rule: Press 'space' when you see 2-back (i.e. the same letter as the one that appeared 2 letters ago.),q,space,,,,,,,,,0,7,7,7,0,2,2,2,,,,,,,,,,,,,,,,,,,,,,,,,,,,,,,,,,,,,,,,,,,,,,,,,,,,,,,,,,,,,,,,,,,,,1.4006,887.1395387000084,None,space,1,887.1395387000084,None,0.4059300000080839,P032,FENCOG,1,Pre,2022_Mar_30_1139,N-Back (New Version 2021),2021.1.4,120.43128852681482,
,,,,Conditions/Version_1/twoback(2)_v1.xlsx,New rule: Press 'space' when you see 2-back (i.e. the same letter as the one that appeared 2 letters ago.),P,None,,,,,,,,,0,7,7,7,0,3,3,3,,,,,,,,,,,,,,,,,,,,,,,,,,,,,,,,,,,,,,,,,,,,,,,,,,,,,,,,,,,,,,,,,,,,,1.1588,890.3031754999975,None,None,1,890.3031754999975,None,,P032,FENCOG,1,Pre,2022_Mar_30_1139,N-Back (New Version 2021),2021.1.4,120.43128852681482,
,,,,Conditions/Version_1/twoback(2)_v1.xlsx,New rule: Press 'space' when you see 2-back (i.e. the same letter as the one that appeared 2 letters ago.),p,None,,,,,,,,,0,7,7,7,0,4,4,4,,,,,,,,,,,,,,,,,,,,,,,,,,,,,,,,,,,,,,,,,,,,,,,,,,,,,,,,,,,,,,,,,,,,,1.8656,894.1763677999988,None,None,1,894.1763677999988,None,,P032,FENCOG,1,Pre,2022_Mar_30_1139,N-Back (New Version 2021),2021.1.4,120.43128852681482,
,,,,Conditions/Version_1/twoback(2)_v1.xlsx,New rule: Press 'space' when you see 2-back (i.e. the same letter as the one that appeared 2 letters ago.),H,None,,,,,,,,,0,7,7,7,0,5,5,5,,,,,,,,,,,,,,,,,,,,,,,,,,,,,,,,,,,,,,,,,,,,,,,,,,,,,,,,,,,,,,,,,,,,,1.2952,897.4767902000021,None,None,1,897.4767902000021,None,,P032,FENCOG,1,Pre,2022_Mar_30_1139,N-Back (New Version 2021),2021.1.4,120.43128852681482,
,,,,Conditions/Version_1/twoback(2)_v1.xlsx,New rule: Press 'space' when you see 2-back (i.e. the same letter as the one that appeared 2 letters ago.),g,None,,,,,,,,,0,7,7,7,0,6,6,6,,,,,,,,,,,,,,,,,,,,,,,,,,,,,,,,,,,,,,,,,,,,,,,,,,,,,,,,,,,,,,,,,,,,,1.1464,900.633419500009,None,None,1,900.633419500009,None,,P032,FENCOG,1,Pre,2022_Mar_30_1139,N-Back (New Version 2021),2021.1.4,120.43128852681482,
,,,,Conditions/Version_1/twoback(2)_v1.xlsx,New rule: Press 'space' when you see 2-back (i.e. the same letter as the one that appeared 2 letters ago.),j,None,,,,,,,,,0,7,7,7,0,7,7,7,,,,,,,,,,,,,,,,,,,,,,,,,,,,,,,,,,,,,,,,,,,,,,,,,,,,,,,,,,,,,,,,,,,,,1.6238,904.2668294000032,None,None,1,904.2668294000032,None,,P032,FENCOG,1,Pre,2022_Mar_30_1139,N-Back (New Version 2021),2021.1.4,120.43128852681482,
,,,,Conditions/Version_1/twoback(2)_v1.xlsx,New rule: Press 'space' when you see 2-back (i.e. the same letter as the one that appeared 2 letters ago.),g,space,,,,,,,,,0,7,7,7,0,8,8,8,,,,,,,,,,,,,,,,,,,,,,,,,,,,,,,,,,,,,,,,,,,,,,,,,,,,,,,,,,,,,,,,,,,,,1.3448,907.6228524000035,None,space,1,907.6228524000035,None,0.4106275999947684,P032,FENCOG,1,Pre,2022_Mar_30_1139,N-Back (New Version 2021),2021.1.4,120.43128852681482,
,,,,Conditions/Version_1/twoback(2)_v1.xlsx,New rule: Press 'space' when you see 2-back (i.e. the same letter as the one that appeared 2 letters ago.),G,None,,,,,,,,,0,7,7,7,0,9,9,9,,,,,,,,,,,,,,,,,,,,,,,,,,,,,,,,,,,,,,,,,,,,,,,,,,,,,,,,,,,,,,,,,,,,,1.9648,911.5969616000075,None,None,1,911.5969616000075,None,,P032,FENCOG,1,Pre,2022_Mar_30_1139,N-Back (New Version 2021),2021.1.4,120.43128852681482,
,,,,Conditions/Version_1/twoback(2)_v1.xlsx,New rule: Press 'space' when you see 2-back (i.e. the same letter as the one that appeared 2 letters ago.),,,,,,,,,,,0,7,7,7,,,,,,,,,,,,,,,,,,,,,,,,,,,,,,,,,,,,,,,,,,,,,,,,,,,,,,,,,,,,,,,,,,,,,,,,,,,,,,,,,P032,FENCOG,1,Pre,2022_Mar_30_1139,N-Back (New Version 2021),2021.1.4,120.43128852681482,
,,,,Conditions/Version_1/threeback(3)_v1.xlsx,New rule: Press 'space' when you see 3-back (i.e. the same letter as the one that appeared 3 letters ago.),w,None,,,,,,,,,0,8,8,8,0,0,0,0,,,,,,,,,,,,,,,,,,,,,,,,,,,,,,,,,,,,,,,,,,,,,,,,,,,,,,,,,,,913.6436579000001,None,916.6289029000036,None,space,0.700436200000695,916.6289029000036,None,913.6436579000001,None,1.1216,918.493875900007,None,None,1,918.493875900007,None,,P032,FENCOG,1,Pre,2022_Mar_30_1139,N-Back (New Version 2021),2021.1.4,120.43128852681482,
,,,,Conditions/Version_1/threeback(3)_v1.xlsx,New rule: Press 'space' when you see 3-back (i.e. the same letter as the one that appeared 3 letters ago.),p,None,,,,,,,,,0,8,8,8,0,1,1,1,,,,,,,,,,,,,,,,,,,,,,,,,,,,,,,,,,,,,,,,,,,,,,,,,,,,,,,,,,,,,,,,,,,,,1.7044,922.2120576000016,None,None,1,922.2120576000016,None,,P032,FENCOG,1,Pre,2022_Mar_30_1139,N-Back (New Version 2021),2021.1.4,120.43128852681482,
,,,,Conditions/Version_1/threeback(3)_v1.xlsx,New rule: Press 'space' when you see 3-back (i.e. the same letter as the one that appeared 3 letters ago.),P,None,,,,,,,,,0,8,8,8,0,2,2,2,,,,,,,,,,,,,,,,,,,,,,,,,,,,,,,,,,,,,,,,,,,,,,,,,,,,,,,,,,,,,,,,,,,,,1.3944,925.6168460000044,None,None,1,925.6168460000044,None,,P032,FENCOG,1,Pre,2022_Mar_30_1139,N-Back (New Version 2021),2021.1.4,120.43128852681482,
,,,,Conditions/Version_1/threeback(3)_v1.xlsx,New rule: Press 'space' when you see 3-back (i.e. the same letter as the one that appeared 3 letters ago.),i,None,,,,,,,,,0,8,8,8,0,3,3,3,,,,,,,,,,,,,,,,,,,,,,,,,,,,,,,,,,,,,,,,,,,,,,,,,,,,,,,,,,,,,,,,,,,,,1.041,928.6673823000019,None,None,1,928.6673823000019,None,,P032,FENCOG,1,Pre,2022_Mar_30_1139,N-Back (New Version 2021),2021.1.4,120.43128852681482,
,,,,Conditions/Version_1/threeback(3)_v1.xlsx,New rule: Press 'space' when you see 3-back (i.e. the same letter as the one that appeared 3 letters ago.),f,None,,,,,,,,,0,8,8,8,0,4,4,4,,,,,,,,,,,,,,,,,,,,,,,,,,,,,,,,,,,,,,,,,,,,,,,,,,,,,,,,,,,,,,,,,,,,,1.4936,932.1716793000087,None,None,1,932.1716793000087,None,,P032,FENCOG,1,Pre,2022_Mar_30_1139,N-Back (New Version 2021),2021.1.4,120.43128852681482,
,,,,Conditions/Version_1/threeback(3)_v1.xlsx,New rule: Press 'space' when you see 3-back (i.e. the same letter as the one that appeared 3 letters ago.),o,None,,,,,,,,,0,8,8,8,0,5,5,5,,,,,,,,,,,,,,,,,,,,,,,,,,,,,,,,,,,,,,,,,,,,,,,,,,,,,,,,,,,,,,,,,,,,,1.7416,935.9303465999983,None,None,1,935.9303465999983,None,,P032,FENCOG,1,Pre,2022_Mar_30_1139,N-Back (New Version 2021),2021.1.4,120.43128852681482,
,,,,Conditions/Version_1/threeback(3)_v1.xlsx,New rule: Press 'space' when you see 3-back (i.e. the same letter as the one that appeared 3 letters ago.),w,None,,,,,,,,,0,8,8,8,0,6,6,6,,,,,,,,,,,,,,,,,,,,,,,,,,,,,,,,,,,,,,,,,,,,,,,,,,,,,,,,,,,,,,,,,,,,,1.289,939.2309469000029,None,None,1,939.2309469000029,None,,P032,FENCOG,1,Pre,2022_Mar_30_1139,N-Back (New Version 2021),2021.1.4,120.43128852681482,
,,,,Conditions/Version_1/threeback(3)_v1.xlsx,New rule: Press 'space' when you see 3-back (i.e. the same letter as the one that appeared 3 letters ago.),F,space,,,,,,,,,0,8,8,8,0,7,7,7,,,,,,,,,,,,,,,,,,,,,,,,,,,,,,,,,,,,,,,,,,,,,,,,,,,,,,,,,,,,,,,,,,,,,1.4688,942.7040602000052,None,None,0,942.7040602000052,None,,P032,FENCOG,1,Pre,2022_Mar_30_1139,N-Back (New Version 2021),2021.1.4,120.43128852681482,
,,,,Conditions/Version_1/threeback(3)_v1.xlsx,New rule: Press 'space' when you see 3-back (i.e. the same letter as the one that appeared 3 letters ago.),p,None,,,,,,,,,0,8,8,8,0,8,8,8,,,,,,,,,,,,,,,,,,,,,,,,,,,,,,,,,,,,,,,,,,,,,,,,,,,,,,,,,,,,,,,,,,,,,1.4378,946.152562999996,None,space,0,946.152562999996,None,1.0007389999955194,P032,FENCOG,1,Pre,2022_Mar_30_1139,N-Back (New Version 2021),2021.1.4,120.43128852681482,
,,,,Conditions/Version_1/threeback(3)_v1.xlsx,New rule: Press 'space' when you see 3-back (i.e. the same letter as the one that appeared 3 letters ago.),W,space,,,,,,,,,0,8,8,8,0,9,9,9,,,,,,,,,,,,,,,,,,,,,,,,,,,,,,,,,,,,,,,,,,,,,,,,,,,,,,,,,,,,,,,,,,,,,1.1588,949.3209852,None,None,0,949.3209852,None,,P032,FENCOG,1,Pre,2022_Mar_30_1139,N-Back (New Version 2021),2021.1.4,120.43128852681482,
,,,,Conditions/Version_1/threeback(3)_v1.xlsx,New rule: Press 'space' when you see 3-back (i.e. the same letter as the one that appeared 3 letters ago.),,,,,,,,,,,0,8,8,8,,,,,,,,,,,,,,,,,,,,,,,,,,,,,,,,,,,,,,,,,,,,,,,,,,,,,,,,,,,,,,,,,,,,,,,,,,,,,,,,,P032,FENCOG,1,Pre,2022_Mar_30_1139,N-Back (New Version 2021),2021.1.4,120.43128852681482,
,,,,Conditions/Version_1/zeroback(3)_v1.xlsx,New rule: Press 'space' when you see the letter 'x' or 'X'.,X,space,,,,,,,,,0,9,9,9,0,0,0,0,,,,,,,,,,,,,,,,,,,,,,,,,,,,,,,,,,,,,,,,,,,,,,,,,,,,,,,,,,,951.3554189999995,None,954.3431867000036,None,space,0.4102948999934597,954.3431867000036,None,951.3554189999995,None,1.537,956.3354983000027,None,space,1,956.3354983000027,None,0.7617911999986973,P032,FENCOG,1,Pre,2022_Mar_30_1139,N-Back (New Version 2021),2021.1.4,120.43128852681482,
,,,,Conditions/Version_1/zeroback(3)_v1.xlsx,New rule: Press 'space' when you see the letter 'x' or 'X'.,B,None,,,,,,,,,0,9,9,9,0,1,1,1,,,,,,,,,,,,,,,,,,,,,,,,,,,,,,,,,,,,,,,,,,,,,,,,,,,,,,,,,,,,,,,,,,,,,1.7106,960.0628740999964,None,None,1,960.0628740999964,None,,P032,FENCOG,1,Pre,2022_Mar_30_1139,N-Back (New Version 2021),2021.1.4,120.43128852681482,
,,,,Conditions/Version_1/zeroback(3)_v1.xlsx,New rule: Press 'space' when you see the letter 'x' or 'X'.,m,None,,,,,,,,,0,9,9,9,0,2,2,2,,,,,,,,,,,,,,,,,,,,,,,,,,,,,,,,,,,,,,,,,,,,,,,,,,,,,,,,,,,,,,,,,,,,,1.4564,963.5193525000068,None,None,1,963.5193525000068,None,,P032,FENCOG,1,Pre,2022_Mar_30_1139,N-Back (New Version 2021),2021.1.4,120.43128852681482,
,,,,Conditions/Version_1/zeroback(3)_v1.xlsx,New rule: Press 'space' when you see the letter 'x' or 'X'.,m,None,,,,,,,,,0,9,9,9,0,3,3,3,,,,,,,,,,,,,,,,,,,,,,,,,,,,,,,,,,,,,,,,,,,,,,,,,,,,,,,,,,,,,,,,,,,,,1.5742,967.1099033000064,None,None,1,967.1099033000064,None,,P032,FENCOG,1,Pre,2022_Mar_30_1139,N-Back (New Version 2021),2021.1.4,120.43128852681482,
,,,,Conditions/Version_1/zeroback(3)_v1.xlsx,New rule: Press 'space' when you see the letter 'x' or 'X'.,o,None,,,,,,,,,0,9,9,9,0,4,4,4,,,,,,,,,,,,,,,,,,,,,,,,,,,,,,,,,,,,,,,,,,,,,,,,,,,,,,,,,,,,,,,,,,,,,1.8346,970.9625086000015,None,None,1,970.9625086000015,None,,P032,FENCOG,1,Pre,2022_Mar_30_1139,N-Back (New Version 2021),2021.1.4,120.43128852681482,
,,,,Conditions/Version_1/zeroback(3)_v1.xlsx,New rule: Press 'space' when you see the letter 'x' or 'X'.,p,None,,,,,,,,,0,9,9,9,0,5,5,5,,,,,,,,,,,,,,,,,,,,,,,,,,,,,,,,,,,,,,,,,,,,,,,,,,,,,,,,,,,,,,,,,,,,,1.847,974.8190508999978,None,None,1,974.8190508999978,None,,P032,FENCOG,1,Pre,2022_Mar_30_1139,N-Back (New Version 2021),2021.1.4,120.43128852681482,
,,,,Conditions/Version_1/zeroback(3)_v1.xlsx,New rule: Press 'space' when you see the letter 'x' or 'X'.,G,None,,,,,,,,,0,9,9,9,0,6,6,6,,,,,,,,,,,,,,,,,,,,,,,,,,,,,,,,,,,,,,,,,,,,,,,,,,,,,,,,,,,,,,,,,,,,,1.0844,977.9181536999968,None,None,1,977.9181536999968,None,,P032,FENCOG,1,Pre,2022_Mar_30_1139,N-Back (New Version 2021),2021.1.4,120.43128852681482,
,,,,Conditions/Version_1/zeroback(3)_v1.xlsx,New rule: Press 'space' when you see the letter 'x' or 'X'.,X,space,,,,,,,,,0,9,9,9,0,7,7,7,,,,,,,,,,,,,,,,,,,,,,,,,,,,,,,,,,,,,,,,,,,,,,,,,,,,,,,,,,,,,,,,,,,,,1.8594,981.7843896999984,None,space,1,981.7843896999984,None,0.45702439999149647,P032,FENCOG,1,Pre,2022_Mar_30_1139,N-Back (New Version 2021),2021.1.4,120.43128852681482,
,,,,Conditions/Version_1/zeroback(3)_v1.xlsx,New rule: Press 'space' when you see the letter 'x' or 'X'.,p,None,,,,,,,,,0,9,9,9,0,8,8,8,,,,,,,,,,,,,,,,,,,,,,,,,,,,,,,,,,,,,,,,,,,,,,,,,,,,,,,,,,,,,,,,,,,,,1.8532,985.6510200000048,None,None,1,985.6510200000048,None,,P032,FENCOG,1,Pre,2022_Mar_30_1139,N-Back (New Version 2021),2021.1.4,120.43128852681482,
,,,,Conditions/Version_1/zeroback(3)_v1.xlsx,New rule: Press 'space' when you see the letter 'x' or 'X'.,x,space,,,,,,,,,0,9,9,9,0,9,9,9,,,,,,,,,,,,,,,,,,,,,,,,,,,,,,,,,,,,,,,,,,,,,,,,,,,,,,,,,,,,,,,,,,,,,1.3572,989.0150023000024,None,space,1,989.0150023000024,None,0.5464210000063758,P032,FENCOG,1,Pre,2022_Mar_30_1139,N-Back (New Version 2021),2021.1.4,120.43128852681482,
,,,,Conditions/Version_1/zeroback(3)_v1.xlsx,New rule: Press 'space' when you see the letter 'x' or 'X'.,,,,,,,,,,,0,9,9,9,,,,,,,,,,,,,,,,,,,,,,,,,,,,,,,,,,,,,,,,,,,,,,,,,,,,,,,,,,,,,,,,,,,,,,,,,,,,,,,,,P032,FENCOG,1,Pre,2022_Mar_30_1139,N-Back (New Version 2021),2021.1.4,120.43128852681482,
,,,,Conditions/Version_1/twoback(3)_v1.xlsx,New rule: Press 'space' when you see 2-back (i.e. the same letter as the one that appeared 2 letters ago.),e,None,,,,,,,,,0,10,10,10,0,0,0,0,,,,,,,,,,,,,,,,,,,,,,,,,,,,,,,,,,,,,,,,,,,,,,,,,,,,,,,,,,,991.0426375999959,None,994.0301936000033,None,space,0.43508189999556635,994.0301936000033,None,991.0426375999959,None,1.9896,996.5052147000097,None,None,1,996.5052147000097,None,,P032,FENCOG,1,Pre,2022_Mar_30_1139,N-Back (New Version 2021),2021.1.4,120.43128852681482,
,,,,Conditions/Version_1/twoback(3)_v1.xlsx,New rule: Press 'space' when you see 2-back (i.e. the same letter as the one that appeared 2 letters ago.),o,None,,,,,,,,,0,10,10,10,0,1,1,1,,,,,,,,,,,,,,,,,,,,,,,,,,,,,,,,,,,,,,,,,,,,,,,,,,,,,,,,,,,,,,,,,,,,,1.289,999.8058663999982,None,None,1,999.8058663999982,None,,P032,FENCOG,1,Pre,2022_Mar_30_1139,N-Back (New Version 2021),2021.1.4,120.43128852681482,
,,,,Conditions/Version_1/twoback(3)_v1.xlsx,New rule: Press 'space' when you see 2-back (i.e. the same letter as the one that appeared 2 letters ago.),P,None,,,,,,,,,0,10,10,10,0,2,2,2,,,,,,,,,,,,,,,,,,,,,,,,,,,,,,,,,,,,,,,,,,,,,,,,,,,,,,,,,,,,,,,,,,,,,1.6176,1003.4268452999968,None,None,1,1003.4268452999968,None,,P032,FENCOG,1,Pre,2022_Mar_30_1139,N-Back (New Version 2021),2021.1.4,120.43128852681482,
,,,,Conditions/Version_1/twoback(3)_v1.xlsx,New rule: Press 'space' when you see 2-back (i.e. the same letter as the one that appeared 2 letters ago.),z,None,,,,,,,,,0,10,10,10,0,3,3,3,,,,,,,,,,,,,,,,,,,,,,,,,,,,,,,,,,,,,,,,,,,,,,,,,,,,,,,,,,,,,,,,,,,,,1.2952,1006.7408581000054,None,None,1,1006.7408581000054,None,,P032,FENCOG,1,Pre,2022_Mar_30_1139,N-Back (New Version 2021),2021.1.4,120.43128852681482,
,,,,Conditions/Version_1/twoback(3)_v1.xlsx,New rule: Press 'space' when you see 2-back (i.e. the same letter as the one that appeared 2 letters ago.),X,None,,,,,,,,,0,10,10,10,0,4,4,4,,,,,,,,,,,,,,,,,,,,,,,,,,,,,,,,,,,,,,,,,,,,,,,,,,,,,,,,,,,,,,,,,,,,,1.6114,1010.3544743000093,None,None,1,1010.3544743000093,None,,P032,FENCOG,1,Pre,2022_Mar_30_1139,N-Back (New Version 2021),2021.1.4,120.43128852681482,
,,,,Conditions/Version_1/twoback(3)_v1.xlsx,New rule: Press 'space' when you see 2-back (i.e. the same letter as the one that appeared 2 letters ago.),z,space,,,,,,,,,0,10,10,10,0,5,5,5,,,,,,,,,,,,,,,,,,,,,,,,,,,,,,,,,,,,,,,,,,,,,,,,,,,,,,,,,,,,,,,,,,,,,1.8346,1014.201001399997,None,space,1,1014.201001399997,None,0.4725694999942789,P032,FENCOG,1,Pre,2022_Mar_30_1139,N-Back (New Version 2021),2021.1.4,120.43128852681482,
,,,,Conditions/Version_1/twoback(3)_v1.xlsx,New rule: Press 'space' when you see 2-back (i.e. the same letter as the one that appeared 2 letters ago.),x,space,,,,,,,,,0,10,10,10,0,6,6,6,,,,,,,,,,,,,,,,,,,,,,,,,,,,,,,,,,,,,,,,,,,,,,,,,,,,,,,,,,,,,,,,,,,,,1.382,1017.5903205000068,None,space,1,1017.5903205000068,None,0.6511436000000685,P032,FENCOG,1,Pre,2022_Mar_30_1139,N-Back (New Version 2021),2021.1.4,120.43128852681482,
,,,,Conditions/Version_1/twoback(3)_v1.xlsx,New rule: Press 'space' when you see 2-back (i.e. the same letter as the one that appeared 2 letters ago.),c,None,,,,,,,,,0,10,10,10,0,7,7,7,,,,,,,,,,,,,,,,,,,,,,,,,,,,,,,,,,,,,,,,,,,,,,,,,,,,,,,,,,,,,,,,,,,,,1.3758,1020.9725011999981,None,None,1,1020.9725011999981,None,,P032,FENCOG,1,Pre,2022_Mar_30_1139,N-Back (New Version 2021),2021.1.4,120.43128852681482,
,,,,Conditions/Version_1/twoback(3)_v1.xlsx,New rule: Press 'space' when you see 2-back (i.e. the same letter as the one that appeared 2 letters ago.),i,None,,,,,,,,,0,10,10,10,0,8,8,8,,,,,,,,,,,,,,,,,,,,,,,,,,,,,,,,,,,,,,,,,,,,,,,,,,,,,,,,,,,,,,,,,,,,,1.599,1024.5877557000058,None,None,1,1024.5877557000058,None,,P032,FENCOG,1,Pre,2022_Mar_30_1139,N-Back (New Version 2021),2021.1.4,120.43128852681482,
,,,,Conditions/Version_1/twoback(3)_v1.xlsx,New rule: Press 'space' when you see 2-back (i.e. the same letter as the one that appeared 2 letters ago.),C,space,,,,,,,,,0,10,10,10,0,9,9,9,,,,,,,,,,,,,,,,,,,,,,,,,,,,,,,,,,,,,,,,,,,,,,,,,,,,,,,,,,,,,,,,,,,,,1.878,1028.4764746,None,space,1,1028.4764746,None,0.533077999993111,P032,FENCOG,1,Pre,2022_Mar_30_1139,N-Back (New Version 2021),2021.1.4,120.43128852681482,
,,,,Conditions/Version_1/twoback(3)_v1.xlsx,New rule: Press 'space' when you see 2-back (i.e. the same letter as the one that appeared 2 letters ago.),,,,,,,,,,,0,10,10,10,,,,,,,,,,,,,,,,,,,,,,,,,,,,,,,,,,,,,,,,,,,,,,,,,,,,,,,,,,,,,,,,,,,,,,,,,,,,,,,,,P032,FENCOG,1,Pre,2022_Mar_30_1139,N-Back (New Version 2021),2021.1.4,120.43128852681482,
,,,,Conditions/Version_1/oneback(3)_v1.xlsx,New rule: Press 'space' when you see 1-back (i.e. the same letter as the one that appeared 1 letter ago.),o,None,,,,,,,,,0,11,11,11,0,0,0,0,,,,,,,,,,,,,,,,,,,,,,,,,,,,,,,,,,,,,,,,,,,,,,,,,,,,,,,,,,,1030.517106600004,None,1033.4937282000028,None,space,0.4273643000051379,1033.4937282000028,None,1030.517106600004,None,1.382,1035.3437456999964,None,None,1,1035.3437456999964,None,,P032,FENCOG,1,Pre,2022_Mar_30_1139,N-Back (New Version 2021),2021.1.4,120.43128852681482,
,,,,Conditions/Version_1/oneback(3)_v1.xlsx,New rule: Press 'space' when you see 1-back (i.e. the same letter as the one that appeared 1 letter ago.),O,space,,,,,,,,,0,11,11,11,0,1,1,1,,,,,,,,,,,,,,,,,,,,,,,,,,,,,,,,,,,,,,,,,,,,,,,,,,,,,,,,,,,,,,,,,,,,,1.6548,1039.0007348000072,None,space,1,1039.0007348000072,None,0.512820300005842,P032,FENCOG,1,Pre,2022_Mar_30_1139,N-Back (New Version 2021),2021.1.4,120.43128852681482,
,,,,Conditions/Version_1/oneback(3)_v1.xlsx,New rule: Press 'space' when you see 1-back (i.e. the same letter as the one that appeared 1 letter ago.),h,None,,,,,,,,,0,11,11,11,0,2,2,2,,,,,,,,,,,,,,,,,,,,,,,,,,,,,,,,,,,,,,,,,,,,,,,,,,,,,,,,,,,,,,,,,,,,,1.7292,1042.7403326000058,None,None,1,1042.7403326000058,None,,P032,FENCOG,1,Pre,2022_Mar_30_1139,N-Back (New Version 2021),2021.1.4,120.43128852681482,
,,,,Conditions/Version_1/oneback(3)_v1.xlsx,New rule: Press 'space' when you see 1-back (i.e. the same letter as the one that appeared 1 letter ago.),g,None,,,,,,,,,0,11,11,11,0,3,3,3,,,,,,,,,,,,,,,,,,,,,,,,,,,,,,,,,,,,,,,,,,,,,,,,,,,,,,,,,,,,,,,,,,,,,1.1526,1045.906302400006,None,None,1,1045.906302400006,None,,P032,FENCOG,1,Pre,2022_Mar_30_1139,N-Back (New Version 2021),2021.1.4,120.43128852681482,
,,,,Conditions/Version_1/oneback(3)_v1.xlsx,New rule: Press 'space' when you see 1-back (i.e. the same letter as the one that appeared 1 letter ago.),n,None,,,,,,,,,0,11,11,11,0,4,4,4,,,,,,,,,,,,,,,,,,,,,,,,,,,,,,,,,,,,,,,,,,,,,,,,,,,,,,,,,,,,,,,,,,,,,1.2394,1049.1583734000014,None,None,1,1049.1583734000014,None,,P032,FENCOG,1,Pre,2022_Mar_30_1139,N-Back (New Version 2021),2021.1.4,120.43128852681482,
,,,,Conditions/Version_1/oneback(3)_v1.xlsx,New rule: Press 'space' when you see 1-back (i.e. the same letter as the one that appeared 1 letter ago.),z,None,,,,,,,,,0,11,11,11,0,5,5,5,,,,,,,,,,,,,,,,,,,,,,,,,,,,,,,,,,,,,,,,,,,,,,,,,,,,,,,,,,,,,,,,,,,,,1.7416,1052.9144289999967,None,None,1,1052.9144289999967,None,,P032,FENCOG,1,Pre,2022_Mar_30_1139,N-Back (New Version 2021),2021.1.4,120.43128852681482,
,,,,Conditions/Version_1/oneback(3)_v1.xlsx,New rule: Press 'space' when you see 1-back (i.e. the same letter as the one that appeared 1 letter ago.),X,None,,,,,,,,,0,11,11,11,0,6,6,6,,,,,,,,,,,,,,,,,,,,,,,,,,,,,,,,,,,,,,,,,,,,,,,,,,,,,,,,,,,,,,,,,,,,,1.8656,1056.7881223000004,None,None,1,1056.7881223000004,None,,P032,FENCOG,1,Pre,2022_Mar_30_1139,N-Back (New Version 2021),2021.1.4,120.43128852681482,
,,,,Conditions/Version_1/oneback(3)_v1.xlsx,New rule: Press 'space' when you see 1-back (i.e. the same letter as the one that appeared 1 letter ago.),r,None,,,,,,,,,0,11,11,11,0,7,7,7,,,,,,,,,,,,,,,,,,,,,,,,,,,,,,,,,,,,,,,,,,,,,,,,,,,,,,,,,,,,,,,,,,,,,1.7478,1060.5438190999994,None,None,1,1060.5438190999994,None,,P032,FENCOG,1,Pre,2022_Mar_30_1139,N-Back (New Version 2021),2021.1.4,120.43128852681482,
,,,,Conditions/Version_1/oneback(3)_v1.xlsx,New rule: Press 'space' when you see 1-back (i.e. the same letter as the one that appeared 1 letter ago.),r,space,,,,,,,,,0,11,11,11,0,8,8,8,,,,,,,,,,,,,,,,,,,,,,,,,,,,,,,,,,,,,,,,,,,,,,,,,,,,,,,,,,,,,,,,,,,,,1.4068,1063.9652379000036,None,space,1,1063.9652379000036,None,0.6121163999923738,P032,FENCOG,1,Pre,2022_Mar_30_1139,N-Back (New Version 2021),2021.1.4,120.43128852681482,
,,,,Conditions/Version_1/oneback(3)_v1.xlsx,New rule: Press 'space' when you see 1-back (i.e. the same letter as the one that appeared 1 letter ago.),P,None,,,,,,,,,0,11,11,11,0,9,9,9,,,,,,,,,,,,,,,,,,,,,,,,,,,,,,,,,,,,,,,,,,,,,,,,,,,,,,,,,,,,,,,,,,,,,1.0782,1067.0568062000093,None,None,1,1067.0568062000093,None,,P032,FENCOG,1,Pre,2022_Mar_30_1139,N-Back (New Version 2021),2021.1.4,120.43128852681482,
,,,,Conditions/Version_1/oneback(3)_v1.xlsx,New rule: Press 'space' when you see 1-back (i.e. the same letter as the one that appeared 1 letter ago.),,,,,,,,,,,0,11,11,11,,,,,,,,,,,,,,,,,,,,,,,,,,,,,,,,,,,,,,,,,,,,,,,,,,,,,,,,,,,,,,,,,,,,,,,,,,,,,,,,,P032,FENCOG,1,Pre,2022_Mar_30_1139,N-Back (New Version 2021),2021.1.4,120.43128852681482,
,,,,Conditions/Version_1/twoback(4)_v1.xlsx,New rule: Press 'space' when you see 2-back (i.e. the same letter as the one that appeared 2 letters ago.),r,None,,,,,,,,,0,12,12,12,0,0,0,0,,,,,,,,,,,,,,,,,,,,,,,,,,,,,,,,,,,,,,,,,,,,,,,,,,,,,,,,,,,1069.0987056000013,None,1072.08293650001,None,space,0.30216800000926014,1072.08293650001,None,1069.0987056000013,None,1.2952,1073.765054500007,None,None,1,1073.765054500007,None,,P032,FENCOG,1,Pre,2022_Mar_30_1139,N-Back (New Version 2021),2021.1.4,120.43128852681482,
,,,,Conditions/Version_1/twoback(4)_v1.xlsx,New rule: Press 'space' when you see 2-back (i.e. the same letter as the one that appeared 2 letters ago.),T,None,,,,,,,,,0,12,12,12,0,1,1,1,,,,,,,,,,,,,,,,,,,,,,,,,,,,,,,,,,,,,,,,,,,,,,,,,,,,,,,,,,,,,,,,,,,,,1.3696,1077.1475049,None,None,1,1077.1475049,None,,P032,FENCOG,1,Pre,2022_Mar_30_1139,N-Back (New Version 2021),2021.1.4,120.43128852681482,
,,,,Conditions/Version_1/twoback(4)_v1.xlsx,New rule: Press 'space' when you see 2-back (i.e. the same letter as the one that appeared 2 letters ago.),o,None,,,,,,,,,0,12,12,12,0,2,2,2,,,,,,,,,,,,,,,,,,,,,,,,,,,,,,,,,,,,,,,,,,,,,,,,,,,,,,,,,,,,,,,,,,,,,1.7354,1080.890150200008,None,None,1,1080.890150200008,None,,P032,FENCOG,1,Pre,2022_Mar_30_1139,N-Back (New Version 2021),2021.1.4,120.43128852681482,
,,,,Conditions/Version_1/twoback(4)_v1.xlsx,New rule: Press 'space' when you see 2-back (i.e. the same letter as the one that appeared 2 letters ago.),p,None,,,,,,,,,0,12,12,12,0,3,3,3,,,,,,,,,,,,,,,,,,,,,,,,,,,,,,,,,,,,,,,,,,,,,,,,,,,,,,,,,,,,,,,,,,,,,1.8346,1084.7369215000072,None,None,1,1084.7369215000072,None,,P032,FENCOG,1,Pre,2022_Mar_30_1139,N-Back (New Version 2021),2021.1.4,120.43128852681482,
,,,,Conditions/Version_1/twoback(4)_v1.xlsx,New rule: Press 'space' when you see 2-back (i.e. the same letter as the one that appeared 2 letters ago.),p,None,,,,,,,,,0,12,12,12,0,4,4,4,,,,,,,,,,,,,,,,,,,,,,,,,,,,,,,,,,,,,,,,,,,,,,,,,,,,,,,,,,,,,,,,,,,,,1.661,1088.407351300004,None,None,1,1088.407351300004,None,,P032,FENCOG,1,Pre,2022_Mar_30_1139,N-Back (New Version 2021),2021.1.4,120.43128852681482,
,,,,Conditions/Version_1/twoback(4)_v1.xlsx,New rule: Press 'space' when you see 2-back (i.e. the same letter as the one that appeared 2 letters ago.),y,None,,,,,,,,,0,12,12,12,0,5,5,5,,,,,,,,,,,,,,,,,,,,,,,,,,,,,,,,,,,,,,,,,,,,,,,,,,,,,,,,,,,,,,,,,,,,,1.847,1092.2666367000056,None,None,1,1092.2666367000056,None,,P032,FENCOG,1,Pre,2022_Mar_30_1139,N-Back (New Version 2021),2021.1.4,120.43128852681482,
,,,,Conditions/Version_1/twoback(4)_v1.xlsx,New rule: Press 'space' when you see 2-back (i.e. the same letter as the one that appeared 2 letters ago.),P,space,,,,,,,,,0,12,12,12,0,6,6,6,,,,,,,,,,,,,,,,,,,,,,,,,,,,,,,,,,,,,,,,,,,,,,,,,,,,,,,,,,,,,,,,,,,,,1.5432,1095.8261509000004,None,space,1,1095.8261509000004,None,0.6312975999899209,P032,FENCOG,1,Pre,2022_Mar_30_1139,N-Back (New Version 2021),2021.1.4,120.43128852681482,
,,,,Conditions/Version_1/twoback(4)_v1.xlsx,New rule: Press 'space' when you see 2-back (i.e. the same letter as the one that appeared 2 letters ago.),y,None,,,,,,,,,0,12,12,12,0,7,7,7,,,,,,,,,,,,,,,,,,,,,,,,,,,,,,,,,,,,,,,,,,,,,,,,,,,,,,,,,,,,,,,,,,,,,1.0906,1098.9343784000084,None,space,0,1098.9343784000084,None,0.5954639999981737,P032,FENCOG,1,Pre,2022_Mar_30_1139,N-Back (New Version 2021),2021.1.4,120.43128852681482,
,,,,Conditions/Version_1/twoback(4)_v1.xlsx,New rule: Press 'space' when you see 2-back (i.e. the same letter as the one that appeared 2 letters ago.),y,space,,,,,,,,,0,12,12,12,0,8,8,8,,,,,,,,,,,,,,,,,,,,,,,,,,,,,,,,,,,,,,,,,,,,,,,,,,,,,,,,,,,,,,,,,,,,,1.8842,1102.8197131000052,None,None,0,1102.8197131000052,None,,P032,FENCOG,1,Pre,2022_Mar_30_1139,N-Back (New Version 2021),2021.1.4,120.43128852681482,
,,,,Conditions/Version_1/twoback(4)_v1.xlsx,New rule: Press 'space' when you see 2-back (i.e. the same letter as the one that appeared 2 letters ago.),,,,,,,,,,,0,12,12,12,,,,,,,,,,,,,,,,,,,,,,,,,,,,,,,,,,,,,,,,,,,,,,,,,,,,,,,,,,,,,,,,,,,,,,,,,,,,,,,,,P032,FENCOG,1,Pre,2022_Mar_30_1139,N-Back (New Version 2021),2021.1.4,120.43128852681482,
,,,,Conditions/Version_1/zeroback(4)_v1.xlsx,New rule: Press 'space' when you see the letter 'x' or 'X'.,o,None,,,,,,,,,0,13,13,13,0,0,0,0,,,,,,,,,,,,,,,,,,,,,,,,,,,,,,,,,,,,,,,,,,,,,,,,,,,,,,,,,,,1104.8596694000007,None,1107.8466272000078,None,space,0.4424760999972932,1107.8466272000078,None,1104.8596694000007,None,1.2084,1109.541158699998,None,None,1,1109.541158699998,None,,P032,FENCOG,1,Pre,2022_Mar_30_1139,N-Back (New Version 2021),2021.1.4,120.43128852681482,
,,,,Conditions/Version_1/zeroback(4)_v1.xlsx,New rule: Press 'space' when you see the letter 'x' or 'X'.,X,space,,,,,,,,,0,13,13,13,0,1,1,1,,,,,,,,,,,,,,,,,,,,,,,,,,,,,,,,,,,,,,,,,,,,,,,,,,,,,,,,,,,,,,,,,,,,,1.9958,1113.5457349000062,None,None,0,1113.5457349000062,None,,P032,FENCOG,1,Pre,2022_Mar_30_1139,N-Back (New Version 2021),2021.1.4,120.43128852681482,
,,,,Conditions/Version_1/zeroback(4)_v1.xlsx,New rule: Press 'space' when you see the letter 'x' or 'X'.,p,None,,,,,,,,,0,13,13,13,0,2,2,2,,,,,,,,,,,,,,,,,,,,,,,,,,,,,,,,,,,,,,,,,,,,,,,,,,,,,,,,,,,,,,,,,,,,,1.8842,1117.4332886000047,None,None,1,1117.4332886000047,None,,P032,FENCOG,1,Pre,2022_Mar_30_1139,N-Back (New Version 2021),2021.1.4,120.43128852681482,
,,,,Conditions/Version_1/zeroback(4)_v1.xlsx,New rule: Press 'space' when you see the letter 'x' or 'X'.,m,None,,,,,,,,,0,13,13,13,0,3,3,3,,,,,,,,,,,,,,,,,,,,,,,,,,,,,,,,,,,,,,,,,,,,,,,,,,,,,,,,,,,,,,,,,,,,,1.3944,1120.8348727999983,None,None,1,1120.8348727999983,None,,P032,FENCOG,1,Pre,2022_Mar_30_1139,N-Back (New Version 2021),2021.1.4,120.43128852681482,
,,,,Conditions/Version_1/zeroback(4)_v1.xlsx,New rule: Press 'space' when you see the letter 'x' or 'X'.,n,None,,,,,,,,,0,13,13,13,0,4,4,4,,,,,,,,,,,,,,,,,,,,,,,,,,,,,,,,,,,,,,,,,,,,,,,,,,,,,,,,,,,,,,,,,,,,,1.6858,1124.5270767000038,None,None,1,1124.5270767000038,None,,P032,FENCOG,1,Pre,2022_Mar_30_1139,N-Back (New Version 2021),2021.1.4,120.43128852681482,
,,,,Conditions/Version_1/zeroback(4)_v1.xlsx,New rule: Press 'space' when you see the letter 'x' or 'X'.,m,None,,,,,,,,,0,13,13,13,0,5,5,5,,,,,,,,,,,,,,,,,,,,,,,,,,,,,,,,,,,,,,,,,,,,,,,,,,,,,,,,,,,,,,,,,,,,,1.9834,1128.5114194000053,None,None,1,1128.5114194000053,None,,P032,FENCOG,1,Pre,2022_Mar_30_1139,N-Back (New Version 2021),2021.1.4,120.43128852681482,
,,,,Conditions/Version_1/zeroback(4)_v1.xlsx,New rule: Press 'space' when you see the letter 'x' or 'X'.,C,None,,,,,,,,,0,13,13,13,0,6,6,6,,,,,,,,,,,,,,,,,,,,,,,,,,,,,,,,,,,,,,,,,,,,,,,,,,,,,,,,,,,,,,,,,,,,,1.0782,1131.598181399997,None,None,1,1131.598181399997,None,,P032,FENCOG,1,Pre,2022_Mar_30_1139,N-Back (New Version 2021),2021.1.4,120.43128852681482,
,,,,Conditions/Version_1/zeroback(4)_v1.xlsx,New rule: Press 'space' when you see the letter 'x' or 'X'.,m,None,,,,,,,,,0,13,13,13,0,7,7,7,,,,,,,,,,,,,,,,,,,,,,,,,,,,,,,,,,,,,,,,,,,,,,,,,,,,,,,,,,,,,,,,,,,,,1.5122,1135.1270136000094,None,None,1,1135.1270136000094,None,,P032,FENCOG,1,Pre,2022_Mar_30_1139,N-Back (New Version 2021),2021.1.4,120.43128852681482,
,,,,Conditions/Version_1/zeroback(4)_v1.xlsx,New rule: Press 'space' when you see the letter 'x' or 'X'.,p,None,,,,,,,,,0,13,13,13,0,8,8,8,,,,,,,,,,,,,,,,,,,,,,,,,,,,,,,,,,,,,,,,,,,,,,,,,,,,,,,,,,,,,,,,,,,,,1.568,1138.7041750000062,None,None,1,1138.7041750000062,None,,P032,FENCOG,1,Pre,2022_Mar_30_1139,N-Back (New Version 2021),2021.1.4,120.43128852681482,
,,,,Conditions/Version_1/zeroback(4)_v1.xlsx,New rule: Press 'space' when you see the letter 'x' or 'X'.,X,space,,,,,,,,,0,13,13,13,0,9,9,9,,,,,,,,,,,,,,,,,,,,,,,,,,,,,,,,,,,,,,,,,,,,,,,,,,,,,,,,,,,,,,,,,,,,,1.4626,1142.1770012000052,None,space,1,1142.1770012000052,None,0.5767009999981383,P032,FENCOG,1,Pre,2022_Mar_30_1139,N-Back (New Version 2021),2021.1.4,120.43128852681482,
,,,,Conditions/Version_1/zeroback(4)_v1.xlsx,New rule: Press 'space' when you see the letter 'x' or 'X'.,,,,,,,,,,,0,13,13,13,,,,,,,,,,,,,,,,,,,,,,,,,,,,,,,,,,,,,,,,,,,,,,,,,,,,,,,,,,,,,,,,,,,,,,,,,,,,,,,,,P032,FENCOG,1,Pre,2022_Mar_30_1139,N-Back (New Version 2021),2021.1.4,120.43128852681482,
,,,,Conditions/Version_1/oneback(4)_v1.xlsx,New rule: Press 'space' when you see 1-back (i.e. the same letter as the one that appeared 1 letter ago.),w,None,,,,,,,,,0,14,14,14,0,0,0,0,,,,,,,,,,,,,,,,,,,,,,,,,,,,,,,,,,,,,,,,,,,,,,,,,,,,,,,,,,,1144.2193774000043,None,1147.2029880000046,None,space,0.5821203000086825,1147.2029880000046,None,1144.2193774000043,None,1.5246,1149.351088299998,None,None,1,1149.351088299998,None,,P032,FENCOG,1,Pre,2022_Mar_30_1139,N-Back (New Version 2021),2021.1.4,120.43128852681482,
,,,,Conditions/Version_1/oneback(4)_v1.xlsx,New rule: Press 'space' when you see 1-back (i.e. the same letter as the one that appeared 1 letter ago.),q,None,,,,,,,,,0,14,14,14,0,1,1,1,,,,,,,,,,,,,,,,,,,,,,,,,,,,,,,,,,,,,,,,,,,,,,,,,,,,,,,,,,,,,,,,,,,,,1.5432,1152.9087987999956,None,None,1,1152.9087987999956,None,,P032,FENCOG,1,Pre,2022_Mar_30_1139,N-Back (New Version 2021),2021.1.4,120.43128852681482,
,,,,Conditions/Version_1/oneback(4)_v1.xlsx,New rule: Press 'space' when you see 1-back (i.e. the same letter as the one that appeared 1 letter ago.),i,None,,,,,,,,,0,14,14,14,0,2,2,2,,,,,,,,,,,,,,,,,,,,,,,,,,,,,,,,,,,,,,,,,,,,,,,,,,,,,,,,,,,,,,,,,,,,,1.8284,1156.7505096000095,None,None,1,1156.7505096000095,None,,P032,FENCOG,1,Pre,2022_Mar_30_1139,N-Back (New Version 2021),2021.1.4,120.43128852681482,
,,,,Conditions/Version_1/oneback(4)_v1.xlsx,New rule: Press 'space' when you see 1-back (i.e. the same letter as the one that appeared 1 letter ago.),t,None,,,,,,,,,0,14,14,14,0,3,3,3,,,,,,,,,,,,,,,,,,,,,,,,,,,,,,,,,,,,,,,,,,,,,,,,,,,,,,,,,,,,,,,,,,,,,1.754,1160.5141469000082,None,None,1,1160.5141469000082,None,,P032,FENCOG,1,Pre,2022_Mar_30_1139,N-Back (New Version 2021),2021.1.4,120.43128852681482,
,,,,Conditions/Version_1/oneback(4)_v1.xlsx,New rule: Press 'space' when you see 1-back (i.e. the same letter as the one that appeared 1 letter ago.),v,None,,,,,,,,,0,14,14,14,0,4,4,4,,,,,,,,,,,,,,,,,,,,,,,,,,,,,,,,,,,,,,,,,,,,,,,,,,,,,,,,,,,,,,,,,,,,,1.4874,1164.017595199999,None,None,1,1164.017595199999,None,,P032,FENCOG,1,Pre,2022_Mar_30_1139,N-Back (New Version 2021),2021.1.4,120.43128852681482,
,,,,Conditions/Version_1/oneback(4)_v1.xlsx,New rule: Press 'space' when you see 1-back (i.e. the same letter as the one that appeared 1 letter ago.),V,space,,,,,,,,,0,14,14,14,0,5,5,5,,,,,,,,,,,,,,,,,,,,,,,,,,,,,,,,,,,,,,,,,,,,,,,,,,,,,,,,,,,,,,,,,,,,,1.6176,1167.6501281000092,None,space,1,1167.6501281000092,None,0.4473435999971116,P032,FENCOG,1,Pre,2022_Mar_30_1139,N-Back (New Version 2021),2021.1.4,120.43128852681482,
,,,,Conditions/Version_1/oneback(4)_v1.xlsx,New rule: Press 'space' when you see 1-back (i.e. the same letter as the one that appeared 1 letter ago.),v,space,,,,,,,,,0,14,14,14,0,6,6,6,,,,,,,,,,,,,,,,,,,,,,,,,,,,,,,,,,,,,,,,,,,,,,,,,,,,,,,,,,,,,,,,,,,,,1.32,1170.9795267000009,None,space,1,1170.9795267000009,None,0.7016145000088727,P032,FENCOG,1,Pre,2022_Mar_30_1139,N-Back (New Version 2021),2021.1.4,120.43128852681482,
,,,,Conditions/Version_1/oneback(4)_v1.xlsx,New rule: Press 'space' when you see 1-back (i.e. the same letter as the one that appeared 1 letter ago.),p,None,,,,,,,,,0,14,14,14,0,7,7,7,,,,,,,,,,,,,,,,,,,,,,,,,,,,,,,,,,,,,,,,,,,,,,,,,,,,,,,,,,,,,,,,,,,,,1.2766,1174.2671324999974,None,None,1,1174.2671324999974,None,,P032,FENCOG,1,Pre,2022_Mar_30_1139,N-Back (New Version 2021),2021.1.4,120.43128852681482,
,,,,Conditions/Version_1/oneback(4)_v1.xlsx,New rule: Press 'space' when you see 1-back (i.e. the same letter as the one that appeared 1 letter ago.),w,None,,,,,,,,,0,14,14,14,0,8,8,8,,,,,,,,,,,,,,,,,,,,,,,,,,,,,,,,,,,,,,,,,,,,,,,,,,,,,,,,,,,,,,,,,,,,,1.0162,1177.2948265000014,None,None,1,1177.2948265000014,None,,P032,FENCOG,1,Pre,2022_Mar_30_1139,N-Back (New Version 2021),2021.1.4,120.43128852681482,
,,,,Conditions/Version_1/oneback(4)_v1.xlsx,New rule: Press 'space' when you see 1-back (i.e. the same letter as the one that appeared 1 letter ago.),W,space,,,,,,,,,0,14,14,14,0,9,9,9,,,,,,,,,,,,,,,,,,,,,,,,,,,,,,,,,,,,,,,,,,,,,,,,,,,,,,,,,,,,,,,,,,,,,1.5804,1180.885613999999,None,space,1,1180.885613999999,None,0.39569019999180455,P032,FENCOG,1,Pre,2022_Mar_30_1139,N-Back (New Version 2021),2021.1.4,120.43128852681482,
,,,,Conditions/Version_1/oneback(4)_v1.xlsx,New rule: Press 'space' when you see 1-back (i.e. the same letter as the one that appeared 1 letter ago.),,,,,,,,,,,0,14,14,14,,,,,,,,,,,,,,,,,,,,,,,,,,,,,,,,,,,,,,,,,,,,,,,,,,,,,,,,,,,,,,,,,,,,,,,,,,,,,,,,,P032,FENCOG,1,Pre,2022_Mar_30_1139,N-Back (New Version 2021),2021.1.4,120.43128852681482,
,,,,Conditions/Version_1/threeback(4)_v1.xlsx,New rule: Press 'space' when you see 3-back (i.e. the same letter as the one that appeared 3 letters ago.),A,None,,,,,,,,,0,15,15,15,0,0,0,0,,,,,,,,,,,,,,,,,,,,,,,,,,,,,,,,,,,,,,,,,,,,,,,,,,,,,,,,,,,1182.9272426000098,None,1185.9077412000042,None,space,0.42929929999809247,1185.9077412000042,None,1182.9272426000098,None,1.5556,1187.9346328999964,None,None,1,1187.9346328999964,None,,P032,FENCOG,1,Pre,2022_Mar_30_1139,N-Back (New Version 2021),2021.1.4,120.43128852681482,
,,,,Conditions/Version_1/threeback(4)_v1.xlsx,New rule: Press 'space' when you see 3-back (i.e. the same letter as the one that appeared 3 letters ago.),n,None,,,,,,,,,0,15,15,15,0,1,1,1,,,,,,,,,,,,,,,,,,,,,,,,,,,,,,,,,,,,,,,,,,,,,,,,,,,,,,,,,,,,,,,,,,,,,1.1402,1191.090946700002,None,None,1,1191.090946700002,None,,P032,FENCOG,1,Pre,2022_Mar_30_1139,N-Back (New Version 2021),2021.1.4,120.43128852681482,
,,,,Conditions/Version_1/threeback(4)_v1.xlsx,New rule: Press 'space' when you see 3-back (i.e. the same letter as the one that appeared 3 letters ago.),g,None,,,,,,,,,0,15,15,15,0,2,2,2,,,,,,,,,,,,,,,,,,,,,,,,,,,,,,,,,,,,,,,,,,,,,,,,,,,,,,,,,,,,,,,,,,,,,1.2146,1194.3130491000047,None,None,1,1194.3130491000047,None,,P032,FENCOG,1,Pre,2022_Mar_30_1139,N-Back (New Version 2021),2021.1.4,120.43128852681482,
,,,,Conditions/Version_1/threeback(4)_v1.xlsx,New rule: Press 'space' when you see 3-back (i.e. the same letter as the one that appeared 3 letters ago.),A,space,,,,,,,,,0,15,15,15,0,3,3,3,,,,,,,,,,,,,,,,,,,,,,,,,,,,,,,,,,,,,,,,,,,,,,,,,,,,,,,,,,,,,,,,,,,,,1.6176,1197.9382616000075,None,space,1,1197.9382616000075,None,0.6792662000079872,P032,FENCOG,1,Pre,2022_Mar_30_1139,N-Back (New Version 2021),2021.1.4,120.43128852681482,
,,,,Conditions/Version_1/threeback(4)_v1.xlsx,New rule: Press 'space' when you see 3-back (i.e. the same letter as the one that appeared 3 letters ago.),p,None,,,,,,,,,0,15,15,15,0,4,4,4,,,,,,,,,,,,,,,,,,,,,,,,,,,,,,,,,,,,,,,,,,,,,,,,,,,,,,,,,,,,,,,,,,,,,1.8966,1201.845512800006,None,None,1,1201.845512800006,None,,P032,FENCOG,1,Pre,2022_Mar_30_1139,N-Back (New Version 2021),2021.1.4,120.43128852681482,
,,,,Conditions/Version_1/threeback(4)_v1.xlsx,New rule: Press 'space' when you see 3-back (i.e. the same letter as the one that appeared 3 letters ago.),O,None,,,,,,,,,0,15,15,15,0,5,5,5,,,,,,,,,,,,,,,,,,,,,,,,,,,,,,,,,,,,,,,,,,,,,,,,,,,,,,,,,,,,,,,,,,,,,1.3448,1205.2010384000023,None,None,1,1205.2010384000023,None,,P032,FENCOG,1,Pre,2022_Mar_30_1139,N-Back (New Version 2021),2021.1.4,120.43128852681482,
,,,,Conditions/Version_1/threeback(4)_v1.xlsx,New rule: Press 'space' when you see 3-back (i.e. the same letter as the one that appeared 3 letters ago.),a,space,,,,,,,,,0,15,15,15,0,6,6,6,,,,,,,,,,,,,,,,,,,,,,,,,,,,,,,,,,,,,,,,,,,,,,,,,,,,,,,,,,,,,,,,,,,,,1.0286,1208.2354790999962,None,space,1,1208.2354790999962,None,0.5580526000121608,P032,FENCOG,1,Pre,2022_Mar_30_1139,N-Back (New Version 2021),2021.1.4,120.43128852681482,
,,,,Conditions/Version_1/threeback(4)_v1.xlsx,New rule: Press 'space' when you see 3-back (i.e. the same letter as the one that appeared 3 letters ago.),p,space,,,,,,,,,0,15,15,15,0,7,7,7,,,,,,,,,,,,,,,,,,,,,,,,,,,,,,,,,,,,,,,,,,,,,,,,,,,,,,,,,,,,,,,,,,,,,1.8842,1212.1326238000038,None,space,1,1212.1326238000038,None,0.405196599996998,P032,FENCOG,1,Pre,2022_Mar_30_1139,N-Back (New Version 2021),2021.1.4,120.43128852681482,
,,,,Conditions/Version_1/threeback(4)_v1.xlsx,New rule: Press 'space' when you see 3-back (i.e. the same letter as the one that appeared 3 letters ago.),x,None,,,,,,,,,0,15,15,15,0,8,8,8,,,,,,,,,,,,,,,,,,,,,,,,,,,,,,,,,,,,,,,,,,,,,,,,,,,,,,,,,,,,,,,,,,,,,1.0658,1215.2119975000096,None,None,1,1215.2119975000096,None,,P032,FENCOG,1,Pre,2022_Mar_30_1139,N-Back (New Version 2021),2021.1.4,120.43128852681482,
,,,,Conditions/Version_1/threeback(4)_v1.xlsx,New rule: Press 'space' when you see 3-back (i.e. the same letter as the one that appeared 3 letters ago.),X,None,,,,,,,,,0,15,15,15,0,9,9,9,,,,,,,,,,,,,,,,,,,,,,,,,,,,,,,,,,,,,,,,,,,,,,,,,,,,,,,,,,,,,,,,,,,,,1.9338,1219.1572214000043,None,None,1,1219.1572214000043,None,,P032,FENCOG,1,Pre,2022_Mar_30_1139,N-Back (New Version 2021),2021.1.4,120.43128852681482,
,,,,Conditions/Version_1/threeback(4)_v1.xlsx,New rule: Press 'space' when you see 3-back (i.e. the same letter as the one that appeared 3 letters ago.),,,,,,,,,,,0,15,15,15,,,,,,,,,,,,,,,,,,,,,,,,,,,,,,,,,,,,,,,,,,,,,,,,,,,,,,,,,,,,,,,,,,,,,,,,,,,,,,,,,P032,FENCOG,1,Pre,2022_Mar_30_1139,N-Back (New Version 2021),2021.1.4,120.43128852681482,
