CondFileP,InstructionsP,LettersDisplayedP,CorrectnessP,CondFile,Instructions,LettersDisplayed,Correctness,practicetrials.thisRepN,practicetrials.thisTrialN,practicetrials.thisN,practicetrials.thisIndex,InnerLoopPractice.thisRepN,InnerLoopPractice.thisTrialN,InnerLoopPractice.thisN,InnerLoopPractice.thisIndex,trials.thisRepN,trials.thisTrialN,trials.thisN,trials.thisIndex,InnerLoop.thisRepN,InnerLoop.thisTrialN,InnerLoop.thisN,InnerLoop.thisIndex,TaskVersionText.started,TaskVersionText.stopped,InstrKey1.keys,InstrKey1.rt,InstrKey1.started,InstrKey1.stopped,text.started,text.stopped,key_resp_4.keys,key_resp_4.rt,key_resp_4.started,key_resp_4.stopped,text_2.started,text_2.stopped,key_resp_3.keys,key_resp_3.rt,key_resp_3.started,key_resp_3.stopped,text_3.started,text_3.stopped,key_resp_2.keys,key_resp_2.rt,key_resp_2.started,key_resp_2.stopped,PractIn1.started,PractIn1.stopped,PractIn2.started,PractIn2.stopped,PractInstructionPass.keys,PractInstructionPass.rt,PractInstructionPass.started,PractInstructionPass.stopped,PractBlock1.started,PractBlock1.stopped,ISIjitterPractice,ISI_Pract_Fixation.started,ISI_Pract_Fixation.stopped,N_backP.started,N_backP.stopped,KeyPractice.keys,KeyPractice.corr,KeyPractice.rt,KeyPractice.started,KeyPractice.stopped,text_4.started,text_4.stopped,TransitionText.started,TransitionText.stopped,key_resp_6.keys,key_resp_6.rt,key_resp_6.started,key_resp_6.stopped,text_5.started,text_5.stopped,key_resp_5.keys,key_resp_5.rt,key_resp_5.started,key_resp_5.stopped,MainInt1.started,MainInt1.stopped,MainInt2.started,MainInt2.stopped,InstructionPass.keys,InstructionPass.rt,InstructionPass.started,InstructionPass.stopped,Blocks1.started,Blocks1.stopped,ISIjitter,N_backD.started,N_backD.stopped,key_resp.keys,key_resp.corr,key_resp.started,key_resp.stopped,key_resp.rt,participant,Study Name,Task Version (required to run),PRE/POST,date,expName,psychopyVersion,frameRate
,,,,,,,,,,,,,,,,,,,,,,,,54.867827,None,space,17.2418892,55.364439,None,,,,,,,,,,,,,,,,,,,,,,,,,,,,,,,,,,,,,,,,,,,,,,,,,,,,,,,,,,,,,,,,,,,,,,,P032,FENCOG,2,Post,2022_Apr_06_1159,N-Back (New Version 2021),2021.1.4,120.0993462
,,,,,,,,,,,,,,,,,,,,,,,,,,,,,,72.6386266,None,space,15.5355937,73.1346937,None,,,,,,,,,,,,,,,,,,,,,,,,,,,,,,,,,,,,,,,,,,,,,,,,,,,,,,,,,,,,,,,,,P032,FENCOG,2,Post,2022_Apr_06_1159,N-Back (New Version 2021),2021.1.4,120.0993462
,,,,,,,,,,,,,,,,,,,,,,,,,,,,,,,,,,,,88.7035747,None,space,1.9136292,89.1965618,None,,,,,,,,,,,,,,,,,,,,,,,,,,,,,,,,,,,,,,,,,,,,,,,,,,,,,,,,,,,P032,FENCOG,2,Post,2022_Apr_06_1159,N-Back (New Version 2021),2021.1.4,120.0993462
,,,,,,,,,,,,,,,,,,,,,,,,,,,,,,,,,,,,,,,,,,91.1392181,None,space,3.9208717,91.6294078,None,,,,,,,,,,,,,,,,,,,,,,,,,,,,,,,,,,,,,,,,,,,,,,,,,,,,,P032,FENCOG,2,Post,2022_Apr_06_1159,N-Back (New Version 2021),2021.1.4,120.0993462
Conditions/Version_2Pr/zeroback(1)_v2.xlsx,Rule: Press 'space' when you see the letter 'x' or 'X'.,x,space,,,,,0,0,0,0,0,0,0,0,,,,,,,,,,,,,,,,,,,,,,,,,,,,,,,,,96.9458525,None,99.9276123,None,space,0.4625562,99.9276123,None,96.9458525,None,1.49,100.4239383,None,101.9228447,None,space,1,0.587684,101.9228447,None,102.5300669,None,,,,,,,,,,,,,,,,,,,,,,,,,,,,,,,P032,FENCOG,2,Post,2022_Apr_06_1159,N-Back (New Version 2021),2021.1.4,120.0993462
Conditions/Version_2Pr/zeroback(1)_v2.xlsx,Rule: Press 'space' when you see the letter 'x' or 'X'.,R,None,,,,,0,0,0,0,0,1,1,1,,,,,,,,,,,,,,,,,,,,,,,,,,,,,,,,,,,,,,,,,,,1.665,104.033185,None,105.7023363,None,None,1,,105.7023363,None,107.7068549,None,,,,,,,,,,,,,,,,,,,,,,,,,,,,,,,P032,FENCOG,2,Post,2022_Apr_06_1159,N-Back (New Version 2021),2021.1.4,120.0993462
Conditions/Version_2Pr/zeroback(1)_v2.xlsx,Rule: Press 'space' when you see the letter 'x' or 'X'.,p,None,,,,,0,0,0,0,0,2,2,2,,,,,,,,,,,,,,,,,,,,,,,,,,,,,,,,,,,,,,,,,,,1.24,109.2064573,None,110.4482961,None,None,1,,110.4482961,None,112.4472534,None,,,,,,,,,,,,,,,,,,,,,,,,,,,,,,,P032,FENCOG,2,Post,2022_Apr_06_1159,N-Back (New Version 2021),2021.1.4,120.0993462
Conditions/Version_2Pr/zeroback(1)_v2.xlsx,Rule: Press 'space' when you see the letter 'x' or 'X'.,O,None,,,,,0,0,0,0,0,3,3,3,,,,,,,,,,,,,,,,,,,,,,,,,,,,,,,,,,,,,,,,,,,1.815,113.9468468,None,115.7660647,None,None,1,,115.7660647,None,117.7706537,None,,,,,,,,,,,,,,,,,,,,,,,,,,,,,,,P032,FENCOG,2,Post,2022_Apr_06_1159,N-Back (New Version 2021),2021.1.4,120.0993462
Conditions/Version_2Pr/zeroback(1)_v2.xlsx,Rule: Press 'space' when you see the letter 'x' or 'X'.,i,None,,,,,0,0,0,0,0,4,4,4,,,,,,,,,,,,,,,,,,,,,,,,,,,,,,,,,,,,,,,,,,,1.74,119.2699791,None,121.0122123,None,space,0,0.5058511,121.0122123,None,121.5315989,None,,,,,,,,,,,,,,,,,,,,,,,,,,,,,,,P032,FENCOG,2,Post,2022_Apr_06_1159,N-Back (New Version 2021),2021.1.4,120.0993462
Conditions/Version_2Pr/zeroback(1)_v2.xlsx,Rule: Press 'space' when you see the letter 'x' or 'X'.,U,None,,,,,0,0,0,0,0,5,5,5,,,,,,,,,,,,,,,,,,,,,,,,,,,,,,,,,,,,,,,,,,,2.015,123.0357486,None,125.0524977,None,None,1,,125.0524977,None,127.0593338,None,,,,,,,,,,,,,,,,,,,,,,,,,,,,,,,P032,FENCOG,2,Post,2022_Apr_06_1159,N-Back (New Version 2021),2021.1.4,120.0993462
Conditions/Version_2Pr/zeroback(1)_v2.xlsx,Rule: Press 'space' when you see the letter 'x' or 'X'.,N,None,,,,,0,0,0,0,0,6,6,6,,,,,,,,,,,,,,,,,,,,,,,,,,,,,,,,,,,,,,,,,,,1.765,128.5588798,None,130.3264629,None,None,1,,130.3264629,None,132.3328132,None,,,,,,,,,,,,,,,,,,,,,,,,,,,,,,,P032,FENCOG,2,Post,2022_Apr_06_1159,N-Back (New Version 2021),2021.1.4,120.0993462
Conditions/Version_2Pr/zeroback(1)_v2.xlsx,Rule: Press 'space' when you see the letter 'x' or 'X'.,m,None,,,,,0,0,0,0,0,7,7,7,,,,,,,,,,,,,,,,,,,,,,,,,,,,,,,,,,,,,,,,,,,1.565,133.8323124,None,135.3994023,None,None,1,,135.3994023,None,137.4062868,None,,,,,,,,,,,,,,,,,,,,,,,,,,,,,,,P032,FENCOG,2,Post,2022_Apr_06_1159,N-Back (New Version 2021),2021.1.4,120.0993462
Conditions/Version_2Pr/zeroback(1)_v2.xlsx,Rule: Press 'space' when you see the letter 'x' or 'X'.,x,space,,,,,0,0,0,0,0,8,8,8,,,,,,,,,,,,,,,,,,,,,,,,,,,,,,,,,,,,,,,,,,,1.265,138.9065344,None,140.1721135,None,space,1,0.6580134,140.1721135,None,140.8389267,None,,,,,,,,,,,,,,,,,,,,,,,,,,,,,,,P032,FENCOG,2,Post,2022_Apr_06_1159,N-Back (New Version 2021),2021.1.4,120.0993462
Conditions/Version_2Pr/zeroback(1)_v2.xlsx,Rule: Press 'space' when you see the letter 'x' or 'X'.,X,space,,,,,0,0,0,0,0,9,9,9,,,,,,,,,,,,,,,,,,,,,,,,,,,,,,,,,,,,,,,,,,,1.715,142.3381849,None,144.0548183,None,space,1,0.4313228,144.0548183,None,144.4967024,None,,,,,,,,,,,,,,,,,,,,,,,,,,,,,,,P032,FENCOG,2,Post,2022_Apr_06_1159,N-Back (New Version 2021),2021.1.4,120.0993462
Conditions/Version_2Pr/zeroback(1)_v2.xlsx,Rule: Press 'space' when you see the letter 'x' or 'X'.,,,,,,,0,0,0,0,,,,,,,,,,,,,,,,,,,,,,,,,,,,,,,,,,,,,,,,,,,,,,,,,,,,,,,,,,,,,,,,,,,,,,,,,,,,,,,,,,,,,,,,,P032,FENCOG,2,Post,2022_Apr_06_1159,N-Back (New Version 2021),2021.1.4,120.0993462
Conditions/Version_2Pr/oneback(1)_v2.xlsx,New rule: Press 'space' when you see 1-back (i.e. the same letter as the one that appeared 1 letter ago.),r,None,,,,,0,1,1,1,0,0,0,0,,,,,,,,,,,,,,,,,,,,,,,,,,,,,,,,,146.0236736,None,149.0134106,None,space,0.472781,149.0134106,None,146.0236736,None,1.965,149.5121286,None,151.4779974,None,None,1,,151.4779974,None,153.4849454,None,,,,,,,,,,,,,,,,,,,,,,,,,,,,,,,P032,FENCOG,2,Post,2022_Apr_06_1159,N-Back (New Version 2021),2021.1.4,120.0993462
Conditions/Version_2Pr/oneback(1)_v2.xlsx,New rule: Press 'space' when you see 1-back (i.e. the same letter as the one that appeared 1 letter ago.),t,None,,,,,0,1,1,1,0,1,1,1,,,,,,,,,,,,,,,,,,,,,,,,,,,,,,,,,,,,,,,,,,,1.715,154.984461,None,156.7009961,None,None,1,,156.7009961,None,158.7000361,None,,,,,,,,,,,,,,,,,,,,,,,,,,,,,,,P032,FENCOG,2,Post,2022_Apr_06_1159,N-Back (New Version 2021),2021.1.4,120.0993462
Conditions/Version_2Pr/oneback(1)_v2.xlsx,New rule: Press 'space' when you see 1-back (i.e. the same letter as the one that appeared 1 letter ago.),Y,None,,,,,0,1,1,1,0,2,2,2,,,,,,,,,,,,,,,,,,,,,,,,,,,,,,,,,,,,,,,,,,,1.19,160.1996135,None,161.3912393,None,None,1,,161.3912393,None,163.390322,None,,,,,,,,,,,,,,,,,,,,,,,,,,,,,,,P032,FENCOG,2,Post,2022_Apr_06_1159,N-Back (New Version 2021),2021.1.4,120.0993462
Conditions/Version_2Pr/oneback(1)_v2.xlsx,New rule: Press 'space' when you see 1-back (i.e. the same letter as the one that appeared 1 letter ago.),y,space,,,,,0,1,1,1,0,3,3,3,,,,,,,,,,,,,,,,,,,,,,,,,,,,,,,,,,,,,,,,,,,1.865,164.8898944,None,166.7565239,None,space,1,0.9855264,166.7565239,None,167.7562708,None,,,,,,,,,,,,,,,,,,,,,,,,,,,,,,,P032,FENCOG,2,Post,2022_Apr_06_1159,N-Back (New Version 2021),2021.1.4,120.0993462
Conditions/Version_2Pr/oneback(1)_v2.xlsx,New rule: Press 'space' when you see 1-back (i.e. the same letter as the one that appeared 1 letter ago.),p,None,,,,,0,1,1,1,0,4,4,4,,,,,,,,,,,,,,,,,,,,,,,,,,,,,,,,,,,,,,,,,,,1.89,169.2552605,None,171.1463465,None,None,1,,171.1463465,None,173.1457571,None,,,,,,,,,,,,,,,,,,,,,,,,,,,,,,,P032,FENCOG,2,Post,2022_Apr_06_1159,N-Back (New Version 2021),2021.1.4,120.0993462
Conditions/Version_2Pr/oneback(1)_v2.xlsx,New rule: Press 'space' when you see 1-back (i.e. the same letter as the one that appeared 1 letter ago.),P,space,,,,,0,1,1,1,0,5,5,5,,,,,,,,,,,,,,,,,,,,,,,,,,,,,,,,,,,,,,,,,,,1.59,174.6460859,None,176.2374619,None,None,0,,176.2374619,None,178.245266,None,,,,,,,,,,,,,,,,,,,,,,,,,,,,,,,P032,FENCOG,2,Post,2022_Apr_06_1159,N-Back (New Version 2021),2021.1.4,120.0993462
Conditions/Version_2Pr/oneback(1)_v2.xlsx,New rule: Press 'space' when you see 1-back (i.e. the same letter as the one that appeared 1 letter ago.),e,None,,,,,0,1,1,1,0,6,6,6,,,,,,,,,,,,,,,,,,,,,,,,,,,,,,,,,,,,,,,,,,,1.44,179.7438398,None,181.1858636,None,None,1,,181.1858636,None,183.1929186,None,,,,,,,,,,,,,,,,,,,,,,,,,,,,,,,P032,FENCOG,2,Post,2022_Apr_06_1159,N-Back (New Version 2021),2021.1.4,120.0993462
Conditions/Version_2Pr/oneback(1)_v2.xlsx,New rule: Press 'space' when you see 1-back (i.e. the same letter as the one that appeared 1 letter ago.),r,None,,,,,0,1,1,1,0,7,7,7,,,,,,,,,,,,,,,,,,,,,,,,,,,,,,,,,,,,,,,,,,,1.29,184.6923835,None,185.9846835,None,None,1,,185.9846835,None,187.9917494,None,,,,,,,,,,,,,,,,,,,,,,,,,,,,,,,P032,FENCOG,2,Post,2022_Apr_06_1159,N-Back (New Version 2021),2021.1.4,120.0993462
Conditions/Version_2Pr/oneback(1)_v2.xlsx,New rule: Press 'space' when you see 1-back (i.e. the same letter as the one that appeared 1 letter ago.),R,space,,,,,0,1,1,1,0,8,8,8,,,,,,,,,,,,,,,,,,,,,,,,,,,,,,,,,,,,,,,,,,,1.94,189.4910843,None,191.4320673,None,space,1,0.4221054,191.4320673,None,191.8664498,None,,,,,,,,,,,,,,,,,,,,,,,,,,,,,,,P032,FENCOG,2,Post,2022_Apr_06_1159,N-Back (New Version 2021),2021.1.4,120.0993462
Conditions/Version_2Pr/oneback(1)_v2.xlsx,New rule: Press 'space' when you see 1-back (i.e. the same letter as the one that appeared 1 letter ago.),p,None,,,,,0,1,1,1,0,9,9,9,,,,,,,,,,,,,,,,,,,,,,,,,,,,,,,,,,,,,,,,,,,1.065,193.3731089,None,194.4399255,None,None,1,,194.4399255,None,196.439369,None,,,,,,,,,,,,,,,,,,,,,,,,,,,,,,,P032,FENCOG,2,Post,2022_Apr_06_1159,N-Back (New Version 2021),2021.1.4,120.0993462
Conditions/Version_2Pr/oneback(1)_v2.xlsx,New rule: Press 'space' when you see 1-back (i.e. the same letter as the one that appeared 1 letter ago.),,,,,,,0,1,1,1,,,,,,,,,,,,,,,,,,,,,,,,,,,,,,,,,,,,,,,,,,,,,,,,,,,,,,,,,,,,,,,,,,,,,,,,,,,,,,,,,,,,,,,,,P032,FENCOG,2,Post,2022_Apr_06_1159,N-Back (New Version 2021),2021.1.4,120.0993462
Conditions/Version_2Pr/twoback(1)_v2.xlsx,New rule: Press 'space' when you see 2-back (i.e. the same letter as the one that appeared 2 letters ago.),r,None,,,,,0,2,2,2,0,0,0,0,,,,,,,,,,,,,,,,,,,,,,,,,,,,,,,,,197.9655015,None,200.9485473,None,space,0.4575877,200.9485473,None,197.9655015,None,1.69,201.4375901,None,203.130052,None,None,1,,203.130052,None,205.1367494,None,,,,,,,,,,,,,,,,,,,,,,,,,,,,,,,P032,FENCOG,2,Post,2022_Apr_06_1159,N-Back (New Version 2021),2021.1.4,120.0993462
Conditions/Version_2Pr/twoback(1)_v2.xlsx,New rule: Press 'space' when you see 2-back (i.e. the same letter as the one that appeared 2 letters ago.),P,None,,,,,0,2,2,2,0,1,1,1,,,,,,,,,,,,,,,,,,,,,,,,,,,,,,,,,,,,,,,,,,,1.54,206.6362523,None,208.1773161,None,None,1,,208.1773161,None,210.1769953,None,,,,,,,,,,,,,,,,,,,,,,,,,,,,,,,P032,FENCOG,2,Post,2022_Apr_06_1159,N-Back (New Version 2021),2021.1.4,120.0993462
Conditions/Version_2Pr/twoback(1)_v2.xlsx,New rule: Press 'space' when you see 2-back (i.e. the same letter as the one that appeared 2 letters ago.),o,None,,,,,0,2,2,2,0,2,2,2,,,,,,,,,,,,,,,,,,,,,,,,,,,,,,,,,,,,,,,,,,,1.965,211.6761356,None,213.6465212,None,None,1,,213.6465212,None,215.6503785,None,,,,,,,,,,,,,,,,,,,,,,,,,,,,,,,P032,FENCOG,2,Post,2022_Apr_06_1159,N-Back (New Version 2021),2021.1.4,120.0993462
Conditions/Version_2Pr/twoback(1)_v2.xlsx,New rule: Press 'space' when you see 2-back (i.e. the same letter as the one that appeared 2 letters ago.),p,space,,,,,0,2,2,2,0,3,3,3,,,,,,,,,,,,,,,,,,,,,,,,,,,,,,,,,,,,,,,,,,,1.89,217.1499612,None,219.0425762,None,space,1,0.5077612,219.0425762,None,219.5602567,None,,,,,,,,,,,,,,,,,,,,,,,,,,,,,,,P032,FENCOG,2,Post,2022_Apr_06_1159,N-Back (New Version 2021),2021.1.4,120.0993462
Conditions/Version_2Pr/twoback(1)_v2.xlsx,New rule: Press 'space' when you see 2-back (i.e. the same letter as the one that appeared 2 letters ago.),Y,None,,,,,0,2,2,2,0,4,4,4,,,,,,,,,,,,,,,,,,,,,,,,,,,,,,,,,,,,,,,,,,,1.79,221.0653491,None,222.8563151,None,None,1,,222.8563151,None,224.8558473,None,,,,,,,,,,,,,,,,,,,,,,,,,,,,,,,P032,FENCOG,2,Post,2022_Apr_06_1159,N-Back (New Version 2021),2021.1.4,120.0993462
Conditions/Version_2Pr/twoback(1)_v2.xlsx,New rule: Press 'space' when you see 2-back (i.e. the same letter as the one that appeared 2 letters ago.),q,None,,,,,0,2,2,2,0,5,5,5,,,,,,,,,,,,,,,,,,,,,,,,,,,,,,,,,,,,,,,,,,,1.065,226.3555031,None,227.4282355,None,None,1,,227.4282355,None,229.4294767,None,,,,,,,,,,,,,,,,,,,,,,,,,,,,,,,P032,FENCOG,2,Post,2022_Apr_06_1159,N-Back (New Version 2021),2021.1.4,120.0993462
Conditions/Version_2Pr/twoback(1)_v2.xlsx,New rule: Press 'space' when you see 2-back (i.e. the same letter as the one that appeared 2 letters ago.),m,None,,,,,0,2,2,2,0,6,6,6,,,,,,,,,,,,,,,,,,,,,,,,,,,,,,,,,,,,,,,,,,,1.74,230.9291698,None,232.6712755,None,None,1,,232.6712755,None,234.6780916,None,,,,,,,,,,,,,,,,,,,,,,,,,,,,,,,P032,FENCOG,2,Post,2022_Apr_06_1159,N-Back (New Version 2021),2021.1.4,120.0993462
Conditions/Version_2Pr/twoback(1)_v2.xlsx,New rule: Press 'space' when you see 2-back (i.e. the same letter as the one that appeared 2 letters ago.),Q,space,,,,,0,2,2,2,0,7,7,7,,,,,,,,,,,,,,,,,,,,,,,,,,,,,,,,,,,,,,,,,,,1.715,236.1776189,None,237.8957243,None,space,1,0.6146274,237.8957243,None,238.5194428,None,,,,,,,,,,,,,,,,,,,,,,,,,,,,,,,P032,FENCOG,2,Post,2022_Apr_06_1159,N-Back (New Version 2021),2021.1.4,120.0993462
Conditions/Version_2Pr/twoback(1)_v2.xlsx,New rule: Press 'space' when you see 2-back (i.e. the same letter as the one that appeared 2 letters ago.),L,None,,,,,0,2,2,2,0,8,8,8,,,,,,,,,,,,,,,,,,,,,,,,,,,,,,,,,,,,,,,,,,,1.24,240.026479,None,241.269699,None,None,1,,241.269699,None,243.2721912,None,,,,,,,,,,,,,,,,,,,,,,,,,,,,,,,P032,FENCOG,2,Post,2022_Apr_06_1159,N-Back (New Version 2021),2021.1.4,120.0993462
Conditions/Version_2Pr/twoback(1)_v2.xlsx,New rule: Press 'space' when you see 2-back (i.e. the same letter as the one that appeared 2 letters ago.),q,space,,,,,0,2,2,2,0,9,9,9,,,,,,,,,,,,,,,,,,,,,,,,,,,,,,,,,,,,,,,,,,,1.115,244.7750994,None,245.8946055,None,space,1,0.6554787,245.8946055,None,246.5586865,None,,,,,,,,,,,,,,,,,,,,,,,,,,,,,,,P032,FENCOG,2,Post,2022_Apr_06_1159,N-Back (New Version 2021),2021.1.4,120.0993462
Conditions/Version_2Pr/twoback(1)_v2.xlsx,New rule: Press 'space' when you see 2-back (i.e. the same letter as the one that appeared 2 letters ago.),,,,,,,0,2,2,2,,,,,,,,,,,,,,,,,,,,,,,,,,,,,,,,,,,,,,,,,,,,,,,,,,,,,,,,,,,,,,,,,,,,,,,,,,,,,,,,,,,,,,,,,P032,FENCOG,2,Post,2022_Apr_06_1159,N-Back (New Version 2021),2021.1.4,120.0993462
Conditions/Version_2Pr/threeback(1)_v2.xlsx,New rule: Press 'space' when you see 3-back (i.e. the same letter as the one that appeared 3 letters ago.),u,None,,,,,0,3,3,3,0,0,0,0,,,,,,,,,,,,,,,,,,,,,,,,,,,,,,,,,248.0875067,None,251.0748788,None,space,0.5073604,251.0748788,None,248.0875067,None,1.565,251.6150369,None,253.1829899,None,None,1,,253.1829899,None,255.1886768,None,,,,,,,,,,,,,,,,,,,,,,,,,,,,,,,P032,FENCOG,2,Post,2022_Apr_06_1159,N-Back (New Version 2021),2021.1.4,120.0993462
Conditions/Version_2Pr/threeback(1)_v2.xlsx,New rule: Press 'space' when you see 3-back (i.e. the same letter as the one that appeared 3 letters ago.),U,None,,,,,0,3,3,3,0,1,1,1,,,,,,,,,,,,,,,,,,,,,,,,,,,,,,,,,,,,,,,,,,,1.165,256.6882565,None,257.8553476,None,None,1,,257.8553476,None,259.8623913,None,,,,,,,,,,,,,,,,,,,,,,,,,,,,,,,P032,FENCOG,2,Post,2022_Apr_06_1159,N-Back (New Version 2021),2021.1.4,120.0993462
Conditions/Version_2Pr/threeback(1)_v2.xlsx,New rule: Press 'space' when you see 3-back (i.e. the same letter as the one that appeared 3 letters ago.),p,None,,,,,0,3,3,3,0,2,2,2,,,,,,,,,,,,,,,,,,,,,,,,,,,,,,,,,,,,,,,,,,,1.94,261.3618517,None,263.3037299,None,None,1,,263.3037299,None,265.3103821,None,,,,,,,,,,,,,,,,,,,,,,,,,,,,,,,P032,FENCOG,2,Post,2022_Apr_06_1159,N-Back (New Version 2021),2021.1.4,120.0993462
Conditions/Version_2Pr/threeback(1)_v2.xlsx,New rule: Press 'space' when you see 3-back (i.e. the same letter as the one that appeared 3 letters ago.),U,space,,,,,0,3,3,3,0,3,3,3,,,,,,,,,,,,,,,,,,,,,,,,,,,,,,,,,,,,,,,,,,,1.815,266.809908,None,268.6271534,None,space,1,0.5868773,268.6271534,None,269.2283791,None,,,,,,,,,,,,,,,,,,,,,,,,,,,,,,,P032,FENCOG,2,Post,2022_Apr_06_1159,N-Back (New Version 2021),2021.1.4,120.0993462
Conditions/Version_2Pr/threeback(1)_v2.xlsx,New rule: Press 'space' when you see 3-back (i.e. the same letter as the one that appeared 3 letters ago.),e,None,,,,,0,3,3,3,0,4,4,4,,,,,,,,,,,,,,,,,,,,,,,,,,,,,,,,,,,,,,,,,,,1.665,270.7337143,None,272.3998966,None,None,1,,272.3998966,None,274.3997102,None,,,,,,,,,,,,,,,,,,,,,,,,,,,,,,,P032,FENCOG,2,Post,2022_Apr_06_1159,N-Back (New Version 2021),2021.1.4,120.0993462
Conditions/Version_2Pr/threeback(1)_v2.xlsx,New rule: Press 'space' when you see 3-back (i.e. the same letter as the one that appeared 3 letters ago.),R,None,,,,,0,3,3,3,0,5,5,5,,,,,,,,,,,,,,,,,,,,,,,,,,,,,,,,,,,,,,,,,,,1.615,275.8992709,None,277.5172599,None,None,1,,277.5172599,None,279.5228463,None,,,,,,,,,,,,,,,,,,,,,,,,,,,,,,,P032,FENCOG,2,Post,2022_Apr_06_1159,N-Back (New Version 2021),2021.1.4,120.0993462
Conditions/Version_2Pr/threeback(1)_v2.xlsx,New rule: Press 'space' when you see 3-back (i.e. the same letter as the one that appeared 3 letters ago.),p,None,,,,,0,3,3,3,0,6,6,6,,,,,,,,,,,,,,,,,,,,,,,,,,,,,,,,,,,,,,,,,,,1.79,281.0226698,None,282.8136505,None,None,1,,282.8136505,None,284.8156161,None,,,,,,,,,,,,,,,,,,,,,,,,,,,,,,,P032,FENCOG,2,Post,2022_Apr_06_1159,N-Back (New Version 2021),2021.1.4,120.0993462
Conditions/Version_2Pr/threeback(1)_v2.xlsx,New rule: Press 'space' when you see 3-back (i.e. the same letter as the one that appeared 3 letters ago.),E,space,,,,,0,3,3,3,0,7,7,7,,,,,,,,,,,,,,,,,,,,,,,,,,,,,,,,,,,,,,,,,,,1.49,286.3211914,None,287.8140152,None,space,1,0.4320796,287.8140152,None,288.2555431,None,,,,,,,,,,,,,,,,,,,,,,,,,,,,,,,P032,FENCOG,2,Post,2022_Apr_06_1159,N-Back (New Version 2021),2021.1.4,120.0993462
Conditions/Version_2Pr/threeback(1)_v2.xlsx,New rule: Press 'space' when you see 3-back (i.e. the same letter as the one that appeared 3 letters ago.),k,None,,,,,0,3,3,3,0,8,8,8,,,,,,,,,,,,,,,,,,,,,,,,,,,,,,,,,,,,,,,,,,,1.04,289.7618721,None,290.8057552,None,None,1,,290.8057552,None,292.8110179,None,,,,,,,,,,,,,,,,,,,,,,,,,,,,,,,P032,FENCOG,2,Post,2022_Apr_06_1159,N-Back (New Version 2021),2021.1.4,120.0993462
Conditions/Version_2Pr/threeback(1)_v2.xlsx,New rule: Press 'space' when you see 3-back (i.e. the same letter as the one that appeared 3 letters ago.),m,None,,,,,0,3,3,3,0,9,9,9,,,,,,,,,,,,,,,,,,,,,,,,,,,,,,,,,,,,,,,,,,,1.265,294.3103641,None,295.5775206,None,space,0,0.7647945,295.5775206,None,296.3553763,None,,,,,,,,,,,,,,,,,,,,,,,,,,,,,,,P032,FENCOG,2,Post,2022_Apr_06_1159,N-Back (New Version 2021),2021.1.4,120.0993462
Conditions/Version_2Pr/threeback(1)_v2.xlsx,New rule: Press 'space' when you see 3-back (i.e. the same letter as the one that appeared 3 letters ago.),,,,,,,0,3,3,3,,,,,,,,,,,,,,,,,,,,,,,,,,,,,,,,,,,,,,,,,,,,,,,,,,,,,,,,,,,,,,,,,,,,,,,,,,,,,,,,,,,,,,,,,P032,FENCOG,2,Post,2022_Apr_06_1159,N-Back (New Version 2021),2021.1.4,120.0993462
,,,,,,,,,,,,,,,,,,,,,,,,,,,,,,,,,,,,,,,,,,,,,,,,,,,,,,,,,,,,,,,,,,,,,,297.8666177,None,space,1.222964,298.3596161,None,,,,,,,,,,,,,,,,,,,,,,,,,P032,FENCOG,2,Post,2022_Apr_06_1159,N-Back (New Version 2021),2021.1.4,120.0993462
,,,,,,,,,,,,,,,,,,,,,,,,,,,,,,,,,,,,,,,,,,,,,,,,,,,,,,,,,,,,,,,,,,,,,,,,,,,,299.6068434,None,space,1.9614882,300.0927113,None,,,,,,,,,,,,,,,,,,,P032,FENCOG,2,Post,2022_Apr_06_1159,N-Back (New Version 2021),2021.1.4,120.0993462
,,,,Conditions/Version_1/zeroback(1)_v1.xlsx,Rule: Press 'space' when you see the letter 'x' or 'X'.,b,None,,,,,,,,,0,0,0,0,0,0,0,0,,,,,,,,,,,,,,,,,,,,,,,,,,,,,,,,,,,,,,,,,,,,,,,,,,,,,,,,,,,302.1773898,None,305.1678887,None,space,0.6305049,305.1678887,None,302.1773898,None,1.94,307.7745646,None,None,1,307.7745646,None,,P032,FENCOG,2,Post,2022_Apr_06_1159,N-Back (New Version 2021),2021.1.4,120.0993462
,,,,Conditions/Version_1/zeroback(1)_v1.xlsx,Rule: Press 'space' when you see the letter 'x' or 'X'.,T,None,,,,,,,,,0,0,0,0,0,1,1,1,,,,,,,,,,,,,,,,,,,,,,,,,,,,,,,,,,,,,,,,,,,,,,,,,,,,,,,,,,,,,,,,,,,,,1.7664,311.5485965,None,None,1,311.5485965,None,,P032,FENCOG,2,Post,2022_Apr_06_1159,N-Back (New Version 2021),2021.1.4,120.0993462
,,,,Conditions/Version_1/zeroback(1)_v1.xlsx,Rule: Press 'space' when you see the letter 'x' or 'X'.,L,None,,,,,,,,,0,0,0,0,0,2,2,2,,,,,,,,,,,,,,,,,,,,,,,,,,,,,,,,,,,,,,,,,,,,,,,,,,,,,,,,,,,,,,,,,,,,,1.4564,315.0125062,None,None,1,315.0125062,None,,P032,FENCOG,2,Post,2022_Apr_06_1159,N-Back (New Version 2021),2021.1.4,120.0993462
,,,,Conditions/Version_1/zeroback(1)_v1.xlsx,Rule: Press 'space' when you see the letter 'x' or 'X'.,x,space,,,,,,,,,0,0,0,0,0,3,3,3,,,,,,,,,,,,,,,,,,,,,,,,,,,,,,,,,,,,,,,,,,,,,,,,,,,,,,,,,,,,,,,,,,,,,1.6486,318.6626867,None,space,1,318.6626867,None,0.3676407,P032,FENCOG,2,Post,2022_Apr_06_1159,N-Back (New Version 2021),2021.1.4,120.0993462
,,,,Conditions/Version_1/zeroback(1)_v1.xlsx,Rule: Press 'space' when you see the letter 'x' or 'X'.,o,None,,,,,,,,,0,0,0,0,0,4,4,4,,,,,,,,,,,,,,,,,,,,,,,,,,,,,,,,,,,,,,,,,,,,,,,,,,,,,,,,,,,,,,,,,,,,,1.0286,321.7020435,None,None,1,321.7020435,None,,P032,FENCOG,2,Post,2022_Apr_06_1159,N-Back (New Version 2021),2021.1.4,120.0993462
,,,,Conditions/Version_1/zeroback(1)_v1.xlsx,Rule: Press 'space' when you see the letter 'x' or 'X'.,P,None,,,,,,,,,0,0,0,0,0,5,5,5,,,,,,,,,,,,,,,,,,,,,,,,,,,,,,,,,,,,,,,,,,,,,,,,,,,,,,,,,,,,,,,,,,,,,1.1588,324.8596843,None,None,1,324.8596843,None,,P032,FENCOG,2,Post,2022_Apr_06_1159,N-Back (New Version 2021),2021.1.4,120.0993462
,,,,Conditions/Version_1/zeroback(1)_v1.xlsx,Rule: Press 'space' when you see the letter 'x' or 'X'.,X,space,,,,,,,,,0,0,0,0,0,6,6,6,,,,,,,,,,,,,,,,,,,,,,,,,,,,,,,,,,,,,,,,,,,,,,,,,,,,,,,,,,,,,,,,,,,,,1.7354,328.6001972,None,space,1,328.6001972,None,0.4227445,P032,FENCOG,2,Post,2022_Apr_06_1159,N-Back (New Version 2021),2021.1.4,120.0993462
,,,,Conditions/Version_1/zeroback(1)_v1.xlsx,Rule: Press 'space' when you see the letter 'x' or 'X'.,n,None,,,,,,,,,0,0,0,0,0,7,7,7,,,,,,,,,,,,,,,,,,,,,,,,,,,,,,,,,,,,,,,,,,,,,,,,,,,,,,,,,,,,,,,,,,,,,1.5308,332.1345037,None,None,1,332.1345037,None,,P032,FENCOG,2,Post,2022_Apr_06_1159,N-Back (New Version 2021),2021.1.4,120.0993462
,,,,Conditions/Version_1/zeroback(1)_v1.xlsx,Rule: Press 'space' when you see the letter 'x' or 'X'.,M,None,,,,,,,,,0,0,0,0,0,8,8,8,,,,,,,,,,,,,,,,,,,,,,,,,,,,,,,,,,,,,,,,,,,,,,,,,,,,,,,,,,,,,,,,,,,,,1.2828,335.424871,None,None,1,335.424871,None,,P032,FENCOG,2,Post,2022_Apr_06_1159,N-Back (New Version 2021),2021.1.4,120.0993462
,,,,Conditions/Version_1/zeroback(1)_v1.xlsx,Rule: Press 'space' when you see the letter 'x' or 'X'.,a,None,,,,,,,,,0,0,0,0,0,9,9,9,,,,,,,,,,,,,,,,,,,,,,,,,,,,,,,,,,,,,,,,,,,,,,,,,,,,,,,,,,,,,,,,,,,,,1.2642,338.6980202,None,None,1,338.6980202,None,,P032,FENCOG,2,Post,2022_Apr_06_1159,N-Back (New Version 2021),2021.1.4,120.0993462
,,,,Conditions/Version_1/zeroback(1)_v1.xlsx,Rule: Press 'space' when you see the letter 'x' or 'X'.,,,,,,,,,,,0,0,0,0,,,,,,,,,,,,,,,,,,,,,,,,,,,,,,,,,,,,,,,,,,,,,,,,,,,,,,,,,,,,,,,,,,,,,,,,,,,,,,,,,P032,FENCOG,2,Post,2022_Apr_06_1159,N-Back (New Version 2021),2021.1.4,120.0993462
,,,,Conditions/Version_1/oneback(1)_v1.xlsx,New rule: Press 'space' when you see 1-back (i.e. the same letter as the one that appeared 1 letter ago.),b,None,,,,,,,,,0,1,1,1,0,0,0,0,,,,,,,,,,,,,,,,,,,,,,,,,,,,,,,,,,,,,,,,,,,,,,,,,,,,,,,,,,,340.7247807,None,343.7061496,None,space,0.8039021,343.7061496,None,340.7247807,None,1.94,346.4780764,None,None,1,346.4780764,None,,P032,FENCOG,2,Post,2022_Apr_06_1159,N-Back (New Version 2021),2021.1.4,120.0993462
,,,,Conditions/Version_1/oneback(1)_v1.xlsx,New rule: Press 'space' when you see 1-back (i.e. the same letter as the one that appeared 1 letter ago.),p,None,,,,,,,,,0,1,1,1,0,1,1,1,,,,,,,,,,,,,,,,,,,,,,,,,,,,,,,,,,,,,,,,,,,,,,,,,,,,,,,,,,,,,,,,,,,,,1.4316,349.9133756,None,None,1,349.9133756,None,,P032,FENCOG,2,Post,2022_Apr_06_1159,N-Back (New Version 2021),2021.1.4,120.0993462
,,,,Conditions/Version_1/oneback(1)_v1.xlsx,New rule: Press 'space' when you see 1-back (i.e. the same letter as the one that appeared 1 letter ago.),M,None,,,,,,,,,0,1,1,1,0,2,2,2,,,,,,,,,,,,,,,,,,,,,,,,,,,,,,,,,,,,,,,,,,,,,,,,,,,,,,,,,,,,,,,,,,,,,1.661,353.5856586,None,None,1,353.5856586,None,,P032,FENCOG,2,Post,2022_Apr_06_1159,N-Back (New Version 2021),2021.1.4,120.0993462
,,,,Conditions/Version_1/oneback(1)_v1.xlsx,New rule: Press 'space' when you see 1-back (i.e. the same letter as the one that appeared 1 letter ago.),M,space,,,,,,,,,0,1,1,1,0,3,3,3,,,,,,,,,,,,,,,,,,,,,,,,,,,,,,,,,,,,,,,,,,,,,,,,,,,,,,,,,,,,,,,,,,,,,1.3324,356.9253774,None,space,1,356.9253774,None,0.8329611,P032,FENCOG,2,Post,2022_Apr_06_1159,N-Back (New Version 2021),2021.1.4,120.0993462
,,,,Conditions/Version_1/oneback(1)_v1.xlsx,New rule: Press 'space' when you see 1-back (i.e. the same letter as the one that appeared 1 letter ago.),n,None,,,,,,,,,0,1,1,1,0,4,4,4,,,,,,,,,,,,,,,,,,,,,,,,,,,,,,,,,,,,,,,,,,,,,,,,,,,,,,,,,,,,,,,,,,,,,1.3014,360.2325264,None,None,1,360.2325264,None,,P032,FENCOG,2,Post,2022_Apr_06_1159,N-Back (New Version 2021),2021.1.4,120.0993462
,,,,Conditions/Version_1/oneback(1)_v1.xlsx,New rule: Press 'space' when you see 1-back (i.e. the same letter as the one that appeared 1 letter ago.),g,None,,,,,,,,,0,1,1,1,0,5,5,5,,,,,,,,,,,,,,,,,,,,,,,,,,,,,,,,,,,,,,,,,,,,,,,,,,,,,,,,,,,,,,,,,,,,,1.0906,363.3243042,None,None,1,363.3243042,None,,P032,FENCOG,2,Post,2022_Apr_06_1159,N-Back (New Version 2021),2021.1.4,120.0993462
,,,,Conditions/Version_1/oneback(1)_v1.xlsx,New rule: Press 'space' when you see 1-back (i.e. the same letter as the one that appeared 1 letter ago.),P,None,,,,,,,,,0,1,1,1,0,6,6,6,,,,,,,,,,,,,,,,,,,,,,,,,,,,,,,,,,,,,,,,,,,,,,,,,,,,,,,,,,,,,,,,,,,,,1.6052,366.9390098,None,None,1,366.9390098,None,,P032,FENCOG,2,Post,2022_Apr_06_1159,N-Back (New Version 2021),2021.1.4,120.0993462
,,,,Conditions/Version_1/oneback(1)_v1.xlsx,New rule: Press 'space' when you see 1-back (i.e. the same letter as the one that appeared 1 letter ago.),o,None,,,,,,,,,0,1,1,1,0,7,7,7,,,,,,,,,,,,,,,,,,,,,,,,,,,,,,,,,,,,,,,,,,,,,,,,,,,,,,,,,,,,,,,,,,,,,1.6114,370.5572184,None,None,1,370.5572184,None,,P032,FENCOG,2,Post,2022_Apr_06_1159,N-Back (New Version 2021),2021.1.4,120.0993462
,,,,Conditions/Version_1/oneback(1)_v1.xlsx,New rule: Press 'space' when you see 1-back (i.e. the same letter as the one that appeared 1 letter ago.),f,None,,,,,,,,,0,1,1,1,0,8,8,8,,,,,,,,,,,,,,,,,,,,,,,,,,,,,,,,,,,,,,,,,,,,,,,,,,,,,,,,,,,,,,,,,,,,,1.847,374.4145688,None,None,1,374.4145688,None,,P032,FENCOG,2,Post,2022_Apr_06_1159,N-Back (New Version 2021),2021.1.4,120.0993462
,,,,Conditions/Version_1/oneback(1)_v1.xlsx,New rule: Press 'space' when you see 1-back (i.e. the same letter as the one that appeared 1 letter ago.),F,space,,,,,,,,,0,1,1,1,0,9,9,9,,,,,,,,,,,,,,,,,,,,,,,,,,,,,,,,,,,,,,,,,,,,,,,,,,,,,,,,,,,,,,,,,,,,,1.568,377.9947156,None,space,1,377.9947156,None,0.4437352,P032,FENCOG,2,Post,2022_Apr_06_1159,N-Back (New Version 2021),2021.1.4,120.0993462
,,,,Conditions/Version_1/oneback(1)_v1.xlsx,New rule: Press 'space' when you see 1-back (i.e. the same letter as the one that appeared 1 letter ago.),,,,,,,,,,,0,1,1,1,,,,,,,,,,,,,,,,,,,,,,,,,,,,,,,,,,,,,,,,,,,,,,,,,,,,,,,,,,,,,,,,,,,,,,,,,,,,,,,,,P032,FENCOG,2,Post,2022_Apr_06_1159,N-Back (New Version 2021),2021.1.4,120.0993462
,,,,Conditions/Version_1/twoback(1)_v1.xlsx,New rule: Press 'space' when you see 2-back (i.e. the same letter as the one that appeared 2 letters ago.),b,None,,,,,,,,,0,2,2,2,0,0,0,0,,,,,,,,,,,,,,,,,,,,,,,,,,,,,,,,,,,,,,,,,,,,,,,,,,,,,,,,,,,380.0214751,None,383.0036043,None,space,0.642524,383.0036043,None,380.0214751,None,1.7974,385.4777129,None,None,1,385.4777129,None,,P032,FENCOG,2,Post,2022_Apr_06_1159,N-Back (New Version 2021),2021.1.4,120.0993462
,,,,Conditions/Version_1/twoback(1)_v1.xlsx,New rule: Press 'space' when you see 2-back (i.e. the same letter as the one that appeared 2 letters ago.),h,None,,,,,,,,,0,2,2,2,0,1,1,1,,,,,,,,,,,,,,,,,,,,,,,,,,,,,,,,,,,,,,,,,,,,,,,,,,,,,,,,,,,,,,,,,,,,,1.5184,389.0078719,None,None,1,389.0078719,None,,P032,FENCOG,2,Post,2022_Apr_06_1159,N-Back (New Version 2021),2021.1.4,120.0993462
,,,,Conditions/Version_1/twoback(1)_v1.xlsx,New rule: Press 'space' when you see 2-back (i.e. the same letter as the one that appeared 2 letters ago.),j,None,,,,,,,,,0,2,2,2,0,2,2,2,,,,,,,,,,,,,,,,,,,,,,,,,,,,,,,,,,,,,,,,,,,,,,,,,,,,,,,,,,,,,,,,,,,,,1.8656,392.8843517,None,None,1,392.8843517,None,,P032,FENCOG,2,Post,2022_Apr_06_1159,N-Back (New Version 2021),2021.1.4,120.0993462
,,,,Conditions/Version_1/twoback(1)_v1.xlsx,New rule: Press 'space' when you see 2-back (i.e. the same letter as the one that appeared 2 letters ago.),H,space,,,,,,,,,0,2,2,2,0,3,3,3,,,,,,,,,,,,,,,,,,,,,,,,,,,,,,,,,,,,,,,,,,,,,,,,,,,,,,,,,,,,,,,,,,,,,1.9648,396.8593314,None,space,1,396.8593314,None,0.6269899,P032,FENCOG,2,Post,2022_Apr_06_1159,N-Back (New Version 2021),2021.1.4,120.0993462
,,,,Conditions/Version_1/twoback(1)_v1.xlsx,New rule: Press 'space' when you see 2-back (i.e. the same letter as the one that appeared 2 letters ago.),p,None,,,,,,,,,0,2,2,2,0,4,4,4,,,,,,,,,,,,,,,,,,,,,,,,,,,,,,,,,,,,,,,,,,,,,,,,,,,,,,,,,,,,,,,,,,,,,1.4564,400.3228197,None,None,1,400.3228197,None,,P032,FENCOG,2,Post,2022_Apr_06_1159,N-Back (New Version 2021),2021.1.4,120.0993462
,,,,Conditions/Version_1/twoback(1)_v1.xlsx,New rule: Press 'space' when you see 2-back (i.e. the same letter as the one that appeared 2 letters ago.),p,None,,,,,,,,,0,2,2,2,0,5,5,5,,,,,,,,,,,,,,,,,,,,,,,,,,,,,,,,,,,,,,,,,,,,,,,,,,,,,,,,,,,,,,,,,,,,,1.0782,403.4116921,None,None,1,403.4116921,None,,P032,FENCOG,2,Post,2022_Apr_06_1159,N-Back (New Version 2021),2021.1.4,120.0993462
,,,,Conditions/Version_1/twoback(1)_v1.xlsx,New rule: Press 'space' when you see 2-back (i.e. the same letter as the one that appeared 2 letters ago.),w,None,,,,,,,,,0,2,2,2,0,6,6,6,,,,,,,,,,,,,,,,,,,,,,,,,,,,,,,,,,,,,,,,,,,,,,,,,,,,,,,,,,,,,,,,,,,,,1.5432,406.9638353,None,None,1,406.9638353,None,,P032,FENCOG,2,Post,2022_Apr_06_1159,N-Back (New Version 2021),2021.1.4,120.0993462
,,,,Conditions/Version_1/twoback(1)_v1.xlsx,New rule: Press 'space' when you see 2-back (i.e. the same letter as the one that appeared 2 letters ago.),R,None,,,,,,,,,0,2,2,2,0,7,7,7,,,,,,,,,,,,,,,,,,,,,,,,,,,,,,,,,,,,,,,,,,,,,,,,,,,,,,,,,,,,,,,,,,,,,1.6424,410.6177596,None,None,1,410.6177596,None,,P032,FENCOG,2,Post,2022_Apr_06_1159,N-Back (New Version 2021),2021.1.4,120.0993462
,,,,Conditions/Version_1/twoback(1)_v1.xlsx,New rule: Press 'space' when you see 2-back (i.e. the same letter as the one that appeared 2 letters ago.),a,None,,,,,,,,,0,2,2,2,0,8,8,8,,,,,,,,,,,,,,,,,,,,,,,,,,,,,,,,,,,,,,,,,,,,,,,,,,,,,,,,,,,,,,,,,,,,,1.692,414.3102761,None,None,1,414.3102761,None,,P032,FENCOG,2,Post,2022_Apr_06_1159,N-Back (New Version 2021),2021.1.4,120.0993462
,,,,Conditions/Version_1/twoback(1)_v1.xlsx,New rule: Press 'space' when you see 2-back (i.e. the same letter as the one that appeared 2 letters ago.),r,space,,,,,,,,,0,2,2,2,0,9,9,9,,,,,,,,,,,,,,,,,,,,,,,,,,,,,,,,,,,,,,,,,,,,,,,,,,,,,,,,,,,,,,,,,,,,,1.537,417.85741,None,space,1,417.85741,None,0.4529028,P032,FENCOG,2,Post,2022_Apr_06_1159,N-Back (New Version 2021),2021.1.4,120.0993462
,,,,Conditions/Version_1/twoback(1)_v1.xlsx,New rule: Press 'space' when you see 2-back (i.e. the same letter as the one that appeared 2 letters ago.),,,,,,,,,,,0,2,2,2,,,,,,,,,,,,,,,,,,,,,,,,,,,,,,,,,,,,,,,,,,,,,,,,,,,,,,,,,,,,,,,,,,,,,,,,,,,,,,,,,P032,FENCOG,2,Post,2022_Apr_06_1159,N-Back (New Version 2021),2021.1.4,120.0993462
,,,,Conditions/Version_1/threeback(1)_v1.xlsx,New rule: Press 'space' when you see 3-back (i.e. the same letter as the one that appeared 3 letters ago.),r,None,,,,,,,,,0,3,3,3,0,0,0,0,,,,,,,,,,,,,,,,,,,,,,,,,,,,,,,,,,,,,,,,,,,,,,,,,,,,,,,,,,,419.878255,None,422.8664408,None,space,0.5717034,422.8664408,None,419.878255,None,1.8532,425.3302664,None,None,1,425.3302664,None,,P032,FENCOG,2,Post,2022_Apr_06_1159,N-Back (New Version 2021),2021.1.4,120.0993462
,,,,Conditions/Version_1/threeback(1)_v1.xlsx,New rule: Press 'space' when you see 3-back (i.e. the same letter as the one that appeared 3 letters ago.),o,None,,,,,,,,,0,3,3,3,0,1,1,1,,,,,,,,,,,,,,,,,,,,,,,,,,,,,,,,,,,,,,,,,,,,,,,,,,,,,,,,,,,,,,,,,,,,,1.413,428.7458297,None,None,1,428.7458297,None,,P032,FENCOG,2,Post,2022_Apr_06_1159,N-Back (New Version 2021),2021.1.4,120.0993462
,,,,Conditions/Version_1/threeback(1)_v1.xlsx,New rule: Press 'space' when you see 3-back (i.e. the same letter as the one that appeared 3 letters ago.),P,None,,,,,,,,,0,3,3,3,0,2,2,2,,,,,,,,,,,,,,,,,,,,,,,,,,,,,,,,,,,,,,,,,,,,,,,,,,,,,,,,,,,,,,,,,,,,,1.3448,432.0951341,None,None,1,432.0951341,None,,P032,FENCOG,2,Post,2022_Apr_06_1159,N-Back (New Version 2021),2021.1.4,120.0993462
,,,,Conditions/Version_1/threeback(1)_v1.xlsx,New rule: Press 'space' when you see 3-back (i.e. the same letter as the one that appeared 3 letters ago.),R,space,,,,,,,,,0,3,3,3,0,3,3,3,,,,,,,,,,,,,,,,,,,,,,,,,,,,,,,,,,,,,,,,,,,,,,,,,,,,,,,,,,,,,,,,,,,,,1.0286,435.128271,None,space,1,435.128271,None,0.6941574,P032,FENCOG,2,Post,2022_Apr_06_1159,N-Back (New Version 2021),2021.1.4,120.0993462
,,,,Conditions/Version_1/threeback(1)_v1.xlsx,New rule: Press 'space' when you see 3-back (i.e. the same letter as the one that appeared 3 letters ago.),p,None,,,,,,,,,0,3,3,3,0,4,4,4,,,,,,,,,,,,,,,,,,,,,,,,,,,,,,,,,,,,,,,,,,,,,,,,,,,,,,,,,,,,,,,,,,,,,1.2518,438.3928448,None,None,1,438.3928448,None,,P032,FENCOG,2,Post,2022_Apr_06_1159,N-Back (New Version 2021),2021.1.4,120.0993462
,,,,Conditions/Version_1/threeback(1)_v1.xlsx,New rule: Press 'space' when you see 3-back (i.e. the same letter as the one that appeared 3 letters ago.),E,None,,,,,,,,,0,3,3,3,0,5,5,5,,,,,,,,,,,,,,,,,,,,,,,,,,,,,,,,,,,,,,,,,,,,,,,,,,,,,,,,,,,,,,,,,,,,,1.9152,442.3093812,None,None,1,442.3093812,None,,P032,FENCOG,2,Post,2022_Apr_06_1159,N-Back (New Version 2021),2021.1.4,120.0993462
,,,,Conditions/Version_1/threeback(1)_v1.xlsx,New rule: Press 'space' when you see 3-back (i.e. the same letter as the one that appeared 3 letters ago.),e,None,,,,,,,,,0,3,3,3,0,6,6,6,,,,,,,,,,,,,,,,,,,,,,,,,,,,,,,,,,,,,,,,,,,,,,,,,,,,,,,,,,,,,,,,,,,,,1.103,445.4251051,None,None,1,445.4251051,None,,P032,FENCOG,2,Post,2022_Apr_06_1159,N-Back (New Version 2021),2021.1.4,120.0993462
,,,,Conditions/Version_1/threeback(1)_v1.xlsx,New rule: Press 'space' when you see 3-back (i.e. the same letter as the one that appeared 3 letters ago.),m,None,,,,,,,,,0,3,3,3,0,7,7,7,,,,,,,,,,,,,,,,,,,,,,,,,,,,,,,,,,,,,,,,,,,,,,,,,,,,,,,,,,,,,,,,,,,,,1.5804,449.0168424,None,None,1,449.0168424,None,,P032,FENCOG,2,Post,2022_Apr_06_1159,N-Back (New Version 2021),2021.1.4,120.0993462
,,,,Conditions/Version_1/threeback(1)_v1.xlsx,New rule: Press 'space' when you see 3-back (i.e. the same letter as the one that appeared 3 letters ago.),n,None,,,,,,,,,0,3,3,3,0,8,8,8,,,,,,,,,,,,,,,,,,,,,,,,,,,,,,,,,,,,,,,,,,,,,,,,,,,,,,,,,,,,,,,,,,,,,1.2828,452.3063934,None,None,1,452.3063934,None,,P032,FENCOG,2,Post,2022_Apr_06_1159,N-Back (New Version 2021),2021.1.4,120.0993462
,,,,Conditions/Version_1/threeback(1)_v1.xlsx,New rule: Press 'space' when you see 3-back (i.e. the same letter as the one that appeared 3 letters ago.),e,space,,,,,,,,,0,3,3,3,0,9,9,9,,,,,,,,,,,,,,,,,,,,,,,,,,,,,,,,,,,,,,,,,,,,,,,,,,,,,,,,,,,,,,,,,,,,,1.0782,455.3964827,None,space,1,455.3964827,None,0.5059054,P032,FENCOG,2,Post,2022_Apr_06_1159,N-Back (New Version 2021),2021.1.4,120.0993462
,,,,Conditions/Version_1/threeback(1)_v1.xlsx,New rule: Press 'space' when you see 3-back (i.e. the same letter as the one that appeared 3 letters ago.),,,,,,,,,,,0,3,3,3,,,,,,,,,,,,,,,,,,,,,,,,,,,,,,,,,,,,,,,,,,,,,,,,,,,,,,,,,,,,,,,,,,,,,,,,,,,,,,,,,P032,FENCOG,2,Post,2022_Apr_06_1159,N-Back (New Version 2021),2021.1.4,120.0993462
,,,,Conditions/Version_1/oneback(2)_v1.xlsx,New rule: Press 'space' when you see 1-back (i.e. the same letter as the one that appeared 1 letter ago.),q,None,,,,,,,,,0,4,4,4,0,0,0,0,,,,,,,,,,,,,,,,,,,,,,,,,,,,,,,,,,,,,,,,,,,,,,,,,,,,,,,,,,,457.4211581,None,460.4054423,None,space,1.1288293,460.4054423,None,457.4211581,None,1.3324,462.9024347,None,None,1,462.9024347,None,,P032,FENCOG,2,Post,2022_Apr_06_1159,N-Back (New Version 2021),2021.1.4,120.0993462
,,,,Conditions/Version_1/oneback(2)_v1.xlsx,New rule: Press 'space' when you see 1-back (i.e. the same letter as the one that appeared 1 letter ago.),Q,space,,,,,,,,,0,4,4,4,0,1,1,1,,,,,,,,,,,,,,,,,,,,,,,,,,,,,,,,,,,,,,,,,,,,,,,,,,,,,,,,,,,,,,,,,,,,,1.7726,466.6767558,None,space,1,466.6767558,None,0.6173655,P032,FENCOG,2,Post,2022_Apr_06_1159,N-Back (New Version 2021),2021.1.4,120.0993462
,,,,Conditions/Version_1/oneback(2)_v1.xlsx,New rule: Press 'space' when you see 1-back (i.e. the same letter as the one that appeared 1 letter ago.),P,None,,,,,,,,,0,4,4,4,0,2,2,2,,,,,,,,,,,,,,,,,,,,,,,,,,,,,,,,,,,,,,,,,,,,,,,,,,,,,,,,,,,,,,,,,,,,,1.072,469.7503762,None,None,1,469.7503762,None,,P032,FENCOG,2,Post,2022_Apr_06_1159,N-Back (New Version 2021),2021.1.4,120.0993462
,,,,Conditions/Version_1/oneback(2)_v1.xlsx,New rule: Press 'space' when you see 1-back (i.e. the same letter as the one that appeared 1 letter ago.),o,None,,,,,,,,,0,4,4,4,0,3,3,3,,,,,,,,,,,,,,,,,,,,,,,,,,,,,,,,,,,,,,,,,,,,,,,,,,,,,,,,,,,,,,,,,,,,,1.3262,473.0829392,None,None,1,473.0829392,None,,P032,FENCOG,2,Post,2022_Apr_06_1159,N-Back (New Version 2021),2021.1.4,120.0993462
,,,,Conditions/Version_1/oneback(2)_v1.xlsx,New rule: Press 'space' when you see 1-back (i.e. the same letter as the one that appeared 1 letter ago.),m,None,,,,,,,,,0,4,4,4,0,4,4,4,,,,,,,,,,,,,,,,,,,,,,,,,,,,,,,,,,,,,,,,,,,,,,,,,,,,,,,,,,,,,,,,,,,,,1.7354,476.8233314,None,None,1,476.8233314,None,,P032,FENCOG,2,Post,2022_Apr_06_1159,N-Back (New Version 2021),2021.1.4,120.0993462
,,,,Conditions/Version_1/oneback(2)_v1.xlsx,New rule: Press 'space' when you see 1-back (i.e. the same letter as the one that appeared 1 letter ago.),Z,None,,,,,,,,,0,4,4,4,0,5,5,5,,,,,,,,,,,,,,,,,,,,,,,,,,,,,,,,,,,,,,,,,,,,,,,,,,,,,,,,,,,,,,,,,,,,,1.7044,480.5321715,None,None,1,480.5321715,None,,P032,FENCOG,2,Post,2022_Apr_06_1159,N-Back (New Version 2021),2021.1.4,120.0993462
,,,,Conditions/Version_1/oneback(2)_v1.xlsx,New rule: Press 'space' when you see 1-back (i.e. the same letter as the one that appeared 1 letter ago.),c,None,,,,,,,,,0,4,4,4,0,6,6,6,,,,,,,,,,,,,,,,,,,,,,,,,,,,,,,,,,,,,,,,,,,,,,,,,,,,,,,,,,,,,,,,,,,,,1.041,483.5811661,None,None,1,483.5811661,None,,P032,FENCOG,2,Post,2022_Apr_06_1159,N-Back (New Version 2021),2021.1.4,120.0993462
,,,,Conditions/Version_1/oneback(2)_v1.xlsx,New rule: Press 'space' when you see 1-back (i.e. the same letter as the one that appeared 1 letter ago.),c,space,,,,,,,,,0,4,4,4,0,7,7,7,,,,,,,,,,,,,,,,,,,,,,,,,,,,,,,,,,,,,,,,,,,,,,,,,,,,,,,,,,,,,,,,,,,,,1.4812,487.0704093,None,space,1,487.0704093,None,0.5119597,P032,FENCOG,2,Post,2022_Apr_06_1159,N-Back (New Version 2021),2021.1.4,120.0993462
,,,,Conditions/Version_1/oneback(2)_v1.xlsx,New rule: Press 'space' when you see 1-back (i.e. the same letter as the one that appeared 1 letter ago.),P,None,,,,,,,,,0,4,4,4,0,8,8,8,,,,,,,,,,,,,,,,,,,,,,,,,,,,,,,,,,,,,,,,,,,,,,,,,,,,,,,,,,,,,,,,,,,,,1.1402,490.2109279,None,None,1,490.2109279,None,,P032,FENCOG,2,Post,2022_Apr_06_1159,N-Back (New Version 2021),2021.1.4,120.0993462
,,,,Conditions/Version_1/oneback(2)_v1.xlsx,New rule: Press 'space' when you see 1-back (i.e. the same letter as the one that appeared 1 letter ago.),p,space,,,,,,,,,0,4,4,4,0,9,9,9,,,,,,,,,,,,,,,,,,,,,,,,,,,,,,,,,,,,,,,,,,,,,,,,,,,,,,,,,,,,,,,,,,,,,1.971,494.1856384,None,space,1,494.1856384,None,0.4205678,P032,FENCOG,2,Post,2022_Apr_06_1159,N-Back (New Version 2021),2021.1.4,120.0993462
,,,,Conditions/Version_1/oneback(2)_v1.xlsx,New rule: Press 'space' when you see 1-back (i.e. the same letter as the one that appeared 1 letter ago.),,,,,,,,,,,0,4,4,4,,,,,,,,,,,,,,,,,,,,,,,,,,,,,,,,,,,,,,,,,,,,,,,,,,,,,,,,,,,,,,,,,,,,,,,,,,,,,,,,,P032,FENCOG,2,Post,2022_Apr_06_1159,N-Back (New Version 2021),2021.1.4,120.0993462
,,,,Conditions/Version_1/zeroback(2)_v1.xlsx,New rule: Press 'space' when you see the letter 'x' or 'X'.,p,None,,,,,,,,,0,5,5,5,0,0,0,0,,,,,,,,,,,,,,,,,,,,,,,,,,,,,,,,,,,,,,,,,,,,,,,,,,,,,,,,,,,496.2124867,None,499.2014187,None,space,1.1729264,499.2014187,None,496.2124867,None,1.599,502.0077282,None,None,1,502.0077282,None,,P032,FENCOG,2,Post,2022_Apr_06_1159,N-Back (New Version 2021),2021.1.4,120.0993462
,,,,Conditions/Version_1/zeroback(2)_v1.xlsx,New rule: Press 'space' when you see the letter 'x' or 'X'.,L,None,,,,,,,,,0,5,5,5,0,1,1,1,,,,,,,,,,,,,,,,,,,,,,,,,,,,,,,,,,,,,,,,,,,,,,,,,,,,,,,,,,,,,,,,,,,,,1.2456,505.2564937,None,None,1,505.2564937,None,,P032,FENCOG,2,Post,2022_Apr_06_1159,N-Back (New Version 2021),2021.1.4,120.0993462
,,,,Conditions/Version_1/zeroback(2)_v1.xlsx,New rule: Press 'space' when you see the letter 'x' or 'X'.,G,None,,,,,,,,,0,5,5,5,0,2,2,2,,,,,,,,,,,,,,,,,,,,,,,,,,,,,,,,,,,,,,,,,,,,,,,,,,,,,,,,,,,,,,,,,,,,,1.785,509.0491633,None,None,1,509.0491633,None,,P032,FENCOG,2,Post,2022_Apr_06_1159,N-Back (New Version 2021),2021.1.4,120.0993462
,,,,Conditions/Version_1/zeroback(2)_v1.xlsx,New rule: Press 'space' when you see the letter 'x' or 'X'.,y,None,,,,,,,,,0,5,5,5,0,3,3,3,,,,,,,,,,,,,,,,,,,,,,,,,,,,,,,,,,,,,,,,,,,,,,,,,,,,,,,,,,,,,,,,,,,,,1.4998,512.5544918,None,None,1,512.5544918,None,,P032,FENCOG,2,Post,2022_Apr_06_1159,N-Back (New Version 2021),2021.1.4,120.0993462
,,,,Conditions/Version_1/zeroback(2)_v1.xlsx,New rule: Press 'space' when you see the letter 'x' or 'X'.,Y,None,,,,,,,,,0,5,5,5,0,4,4,4,,,,,,,,,,,,,,,,,,,,,,,,,,,,,,,,,,,,,,,,,,,,,,,,,,,,,,,,,,,,,,,,,,,,,1.7664,516.320246,None,space,0,516.320246,None,0.7501346,P032,FENCOG,2,Post,2022_Apr_06_1159,N-Back (New Version 2021),2021.1.4,120.0993462
,,,,Conditions/Version_1/zeroback(2)_v1.xlsx,New rule: Press 'space' when you see the letter 'x' or 'X'.,W,None,,,,,,,,,0,5,5,5,0,5,5,5,,,,,,,,,,,,,,,,,,,,,,,,,,,,,,,,,,,,,,,,,,,,,,,,,,,,,,,,,,,,,,,,,,,,,1.9214,520.250987,None,None,1,520.250987,None,,P032,FENCOG,2,Post,2022_Apr_06_1159,N-Back (New Version 2021),2021.1.4,120.0993462
,,,,Conditions/Version_1/zeroback(2)_v1.xlsx,New rule: Press 'space' when you see the letter 'x' or 'X'.,x,space,,,,,,,,,0,5,5,5,0,6,6,6,,,,,,,,,,,,,,,,,,,,,,,,,,,,,,,,,,,,,,,,,,,,,,,,,,,,,,,,,,,,,,,,,,,,,1.8346,524.0930252,None,space,1,524.0930252,None,0.7053342,P032,FENCOG,2,Post,2022_Apr_06_1159,N-Back (New Version 2021),2021.1.4,120.0993462
,,,,Conditions/Version_1/zeroback(2)_v1.xlsx,New rule: Press 'space' when you see the letter 'x' or 'X'.,X,space,,,,,,,,,0,5,5,5,0,7,7,7,,,,,,,,,,,,,,,,,,,,,,,,,,,,,,,,,,,,,,,,,,,,,,,,,,,,,,,,,,,,,,,,,,,,,1.692,527.8009515,None,space,1,527.8009515,None,0.4454698,P032,FENCOG,2,Post,2022_Apr_06_1159,N-Back (New Version 2021),2021.1.4,120.0993462
,,,,Conditions/Version_1/zeroback(2)_v1.xlsx,New rule: Press 'space' when you see the letter 'x' or 'X'.,p,None,,,,,,,,,0,5,5,5,0,8,8,8,,,,,,,,,,,,,,,,,,,,,,,,,,,,,,,,,,,,,,,,,,,,,,,,,,,,,,,,,,,,,,,,,,,,,1.8036,531.615415,None,None,1,531.615415,None,,P032,FENCOG,2,Post,2022_Apr_06_1159,N-Back (New Version 2021),2021.1.4,120.0993462
,,,,Conditions/Version_1/zeroback(2)_v1.xlsx,New rule: Press 'space' when you see the letter 'x' or 'X'.,h,None,,,,,,,,,0,5,5,5,0,9,9,9,,,,,,,,,,,,,,,,,,,,,,,,,,,,,,,,,,,,,,,,,,,,,,,,,,,,,,,,,,,,,,,,,,,,,1.351,534.9746911,None,None,1,534.9746911,None,,P032,FENCOG,2,Post,2022_Apr_06_1159,N-Back (New Version 2021),2021.1.4,120.0993462
,,,,Conditions/Version_1/zeroback(2)_v1.xlsx,New rule: Press 'space' when you see the letter 'x' or 'X'.,,,,,,,,,,,0,5,5,5,,,,,,,,,,,,,,,,,,,,,,,,,,,,,,,,,,,,,,,,,,,,,,,,,,,,,,,,,,,,,,,,,,,,,,,,,,,,,,,,,P032,FENCOG,2,Post,2022_Apr_06_1159,N-Back (New Version 2021),2021.1.4,120.0993462
,,,,Conditions/Version_1/threeback(2)_v1.xlsx,New rule: Press 'space' when you see 3-back (i.e. the same letter as the one that appeared 3 letters ago.),q,None,,,,,,,,,0,6,6,6,0,0,0,0,,,,,,,,,,,,,,,,,,,,,,,,,,,,,,,,,,,,,,,,,,,,,,,,,,,,,,,,,,,537.0031309,None,539.9912578,None,space,0.3829447,539.9912578,None,537.0031309,None,1.4192,541.8290068,None,None,1,541.8290068,None,,P032,FENCOG,2,Post,2022_Apr_06_1159,N-Back (New Version 2021),2021.1.4,120.0993462
,,,,Conditions/Version_1/threeback(2)_v1.xlsx,New rule: Press 'space' when you see 3-back (i.e. the same letter as the one that appeared 3 letters ago.),Y,None,,,,,,,,,0,6,6,6,0,1,1,1,,,,,,,,,,,,,,,,,,,,,,,,,,,,,,,,,,,,,,,,,,,,,,,,,,,,,,,,,,,,,,,,,,,,,1.7974,545.6279908,None,None,1,545.6279908,None,,P032,FENCOG,2,Post,2022_Apr_06_1159,N-Back (New Version 2021),2021.1.4,120.0993462
,,,,Conditions/Version_1/threeback(2)_v1.xlsx,New rule: Press 'space' when you see 3-back (i.e. the same letter as the one that appeared 3 letters ago.),p,None,,,,,,,,,0,6,6,6,0,2,2,2,,,,,,,,,,,,,,,,,,,,,,,,,,,,,,,,,,,,,,,,,,,,,,,,,,,,,,,,,,,,,,,,,,,,,1.9152,549.5435235,None,None,1,549.5435235,None,,P032,FENCOG,2,Post,2022_Apr_06_1159,N-Back (New Version 2021),2021.1.4,120.0993462
,,,,Conditions/Version_1/threeback(2)_v1.xlsx,New rule: Press 'space' when you see 3-back (i.e. the same letter as the one that appeared 3 letters ago.),p,None,,,,,,,,,0,6,6,6,0,3,3,3,,,,,,,,,,,,,,,,,,,,,,,,,,,,,,,,,,,,,,,,,,,,,,,,,,,,,,,,,,,,,,,,,,,,,1.5804,553.125969,None,None,1,553.125969,None,,P032,FENCOG,2,Post,2022_Apr_06_1159,N-Back (New Version 2021),2021.1.4,120.0993462
,,,,Conditions/Version_1/threeback(2)_v1.xlsx,New rule: Press 'space' when you see 3-back (i.e. the same letter as the one that appeared 3 letters ago.),y,space,,,,,,,,,0,6,6,6,0,4,4,4,,,,,,,,,,,,,,,,,,,,,,,,,,,,,,,,,,,,,,,,,,,,,,,,,,,,,,,,,,,,,,,,,,,,,1.1216,556.2503674,None,space,1,556.2503674,None,1.0281426,P032,FENCOG,2,Post,2022_Apr_06_1159,N-Back (New Version 2021),2021.1.4,120.0993462
,,,,Conditions/Version_1/threeback(2)_v1.xlsx,New rule: Press 'space' when you see 3-back (i.e. the same letter as the one that appeared 3 letters ago.),u,None,,,,,,,,,0,6,6,6,0,5,5,5,,,,,,,,,,,,,,,,,,,,,,,,,,,,,,,,,,,,,,,,,,,,,,,,,,,,,,,,,,,,,,,,,,,,,1.475,559.7238752,None,None,1,559.7238752,None,,P032,FENCOG,2,Post,2022_Apr_06_1159,N-Back (New Version 2021),2021.1.4,120.0993462
,,,,Conditions/Version_1/threeback(2)_v1.xlsx,New rule: Press 'space' when you see 3-back (i.e. the same letter as the one that appeared 3 letters ago.),P,space,,,,,,,,,0,6,6,6,0,6,6,6,,,,,,,,,,,,,,,,,,,,,,,,,,,,,,,,,,,,,,,,,,,,,,,,,,,,,,,,,,,,,,,,,,,,,1.971,563.6975173,None,space,1,563.6975173,None,1.0207229,P032,FENCOG,2,Post,2022_Apr_06_1159,N-Back (New Version 2021),2021.1.4,120.0993462
,,,,Conditions/Version_1/threeback(2)_v1.xlsx,New rule: Press 'space' when you see 3-back (i.e. the same letter as the one that appeared 3 letters ago.),a,None,,,,,,,,,0,6,6,6,0,7,7,7,,,,,,,,,,,,,,,,,,,,,,,,,,,,,,,,,,,,,,,,,,,,,,,,,,,,,,,,,,,,,,,,,,,,,1.1836,566.8822957,None,None,1,566.8822957,None,,P032,FENCOG,2,Post,2022_Apr_06_1159,N-Back (New Version 2021),2021.1.4,120.0993462
,,,,Conditions/Version_1/threeback(2)_v1.xlsx,New rule: Press 'space' when you see 3-back (i.e. the same letter as the one that appeared 3 letters ago.),U,space,,,,,,,,,0,6,6,6,0,8,8,8,,,,,,,,,,,,,,,,,,,,,,,,,,,,,,,,,,,,,,,,,,,,,,,,,,,,,,,,,,,,,,,,,,,,,1.6238,570.513322,None,space,1,570.513322,None,0.7171047,P032,FENCOG,2,Post,2022_Apr_06_1159,N-Back (New Version 2021),2021.1.4,120.0993462
,,,,Conditions/Version_1/threeback(2)_v1.xlsx,New rule: Press 'space' when you see 3-back (i.e. the same letter as the one that appeared 3 letters ago.),q,None,,,,,,,,,0,6,6,6,0,9,9,9,,,,,,,,,,,,,,,,,,,,,,,,,,,,,,,,,,,,,,,,,,,,,,,,,,,,,,,,,,,,,,,,,,,,,1.0596,573.5864831,None,None,1,573.5864831,None,,P032,FENCOG,2,Post,2022_Apr_06_1159,N-Back (New Version 2021),2021.1.4,120.0993462
,,,,Conditions/Version_1/threeback(2)_v1.xlsx,New rule: Press 'space' when you see 3-back (i.e. the same letter as the one that appeared 3 letters ago.),,,,,,,,,,,0,6,6,6,,,,,,,,,,,,,,,,,,,,,,,,,,,,,,,,,,,,,,,,,,,,,,,,,,,,,,,,,,,,,,,,,,,,,,,,,,,,,,,,,P032,FENCOG,2,Post,2022_Apr_06_1159,N-Back (New Version 2021),2021.1.4,120.0993462
,,,,Conditions/Version_1/twoback(2)_v1.xlsx,New rule: Press 'space' when you see 2-back (i.e. the same letter as the one that appeared 2 letters ago.),q,None,,,,,,,,,0,7,7,7,0,0,0,0,,,,,,,,,,,,,,,,,,,,,,,,,,,,,,,,,,,,,,,,,,,,,,,,,,,,,,,,,,,575.610121,None,578.5959527,None,space,0.4184059,578.5959527,None,575.610121,None,1.8346,580.88438,None,None,1,580.88438,None,,P032,FENCOG,2,Post,2022_Apr_06_1159,N-Back (New Version 2021),2021.1.4,120.0993462
,,,,Conditions/Version_1/twoback(2)_v1.xlsx,New rule: Press 'space' when you see 2-back (i.e. the same letter as the one that appeared 2 letters ago.),r,None,,,,,,,,,0,7,7,7,0,1,1,1,,,,,,,,,,,,,,,,,,,,,,,,,,,,,,,,,,,,,,,,,,,,,,,,,,,,,,,,,,,,,,,,,,,,,1.4192,584.309467,None,None,1,584.309467,None,,P032,FENCOG,2,Post,2022_Apr_06_1159,N-Back (New Version 2021),2021.1.4,120.0993462
,,,,Conditions/Version_1/twoback(2)_v1.xlsx,New rule: Press 'space' when you see 2-back (i.e. the same letter as the one that appeared 2 letters ago.),q,space,,,,,,,,,0,7,7,7,0,2,2,2,,,,,,,,,,,,,,,,,,,,,,,,,,,,,,,,,,,,,,,,,,,,,,,,,,,,,,,,,,,,,,,,,,,,,1.4564,587.7739523,None,space,1,587.7739523,None,0.7524421,P032,FENCOG,2,Post,2022_Apr_06_1159,N-Back (New Version 2021),2021.1.4,120.0993462
,,,,Conditions/Version_1/twoback(2)_v1.xlsx,New rule: Press 'space' when you see 2-back (i.e. the same letter as the one that appeared 2 letters ago.),P,None,,,,,,,,,0,7,7,7,0,3,3,3,,,,,,,,,,,,,,,,,,,,,,,,,,,,,,,,,,,,,,,,,,,,,,,,,,,,,,,,,,,,,,,,,,,,,1.9958,591.7731638,None,None,1,591.7731638,None,,P032,FENCOG,2,Post,2022_Apr_06_1159,N-Back (New Version 2021),2021.1.4,120.0993462
,,,,Conditions/Version_1/twoback(2)_v1.xlsx,New rule: Press 'space' when you see 2-back (i.e. the same letter as the one that appeared 2 letters ago.),p,None,,,,,,,,,0,7,7,7,0,4,4,4,,,,,,,,,,,,,,,,,,,,,,,,,,,,,,,,,,,,,,,,,,,,,,,,,,,,,,,,,,,,,,,,,,,,,1.9772,595.7567988,None,None,1,595.7567988,None,,P032,FENCOG,2,Post,2022_Apr_06_1159,N-Back (New Version 2021),2021.1.4,120.0993462
,,,,Conditions/Version_1/twoback(2)_v1.xlsx,New rule: Press 'space' when you see 2-back (i.e. the same letter as the one that appeared 2 letters ago.),H,None,,,,,,,,,0,7,7,7,0,5,5,5,,,,,,,,,,,,,,,,,,,,,,,,,,,,,,,,,,,,,,,,,,,,,,,,,,,,,,,,,,,,,,,,,,,,,1.4378,599.2038789,None,None,1,599.2038789,None,,P032,FENCOG,2,Post,2022_Apr_06_1159,N-Back (New Version 2021),2021.1.4,120.0993462
,,,,Conditions/Version_1/twoback(2)_v1.xlsx,New rule: Press 'space' when you see 2-back (i.e. the same letter as the one that appeared 2 letters ago.),g,None,,,,,,,,,0,7,7,7,0,6,6,6,,,,,,,,,,,,,,,,,,,,,,,,,,,,,,,,,,,,,,,,,,,,,,,,,,,,,,,,,,,,,,,,,,,,,1.3634,602.5695373,None,None,1,602.5695373,None,,P032,FENCOG,2,Post,2022_Apr_06_1159,N-Back (New Version 2021),2021.1.4,120.0993462
,,,,Conditions/Version_1/twoback(2)_v1.xlsx,New rule: Press 'space' when you see 2-back (i.e. the same letter as the one that appeared 2 letters ago.),j,None,,,,,,,,,0,7,7,7,0,7,7,7,,,,,,,,,,,,,,,,,,,,,,,,,,,,,,,,,,,,,,,,,,,,,,,,,,,,,,,,,,,,,,,,,,,,,1.2704,605.8446168,None,None,1,605.8446168,None,,P032,FENCOG,2,Post,2022_Apr_06_1159,N-Back (New Version 2021),2021.1.4,120.0993462
,,,,Conditions/Version_1/twoback(2)_v1.xlsx,New rule: Press 'space' when you see 2-back (i.e. the same letter as the one that appeared 2 letters ago.),g,space,,,,,,,,,0,7,7,7,0,8,8,8,,,,,,,,,,,,,,,,,,,,,,,,,,,,,,,,,,,,,,,,,,,,,,,,,,,,,,,,,,,,,,,,,,,,,1.0968,608.9520407,None,space,1,608.9520407,None,0.7023489,P032,FENCOG,2,Post,2022_Apr_06_1159,N-Back (New Version 2021),2021.1.4,120.0993462
,,,,Conditions/Version_1/twoback(2)_v1.xlsx,New rule: Press 'space' when you see 2-back (i.e. the same letter as the one that appeared 2 letters ago.),G,None,,,,,,,,,0,7,7,7,0,9,9,9,,,,,,,,,,,,,,,,,,,,,,,,,,,,,,,,,,,,,,,,,,,,,,,,,,,,,,,,,,,,,,,,,,,,,1.1526,612.118243,None,None,1,612.118243,None,,P032,FENCOG,2,Post,2022_Apr_06_1159,N-Back (New Version 2021),2021.1.4,120.0993462
,,,,Conditions/Version_1/twoback(2)_v1.xlsx,New rule: Press 'space' when you see 2-back (i.e. the same letter as the one that appeared 2 letters ago.),,,,,,,,,,,0,7,7,7,,,,,,,,,,,,,,,,,,,,,,,,,,,,,,,,,,,,,,,,,,,,,,,,,,,,,,,,,,,,,,,,,,,,,,,,,,,,,,,,,P032,FENCOG,2,Post,2022_Apr_06_1159,N-Back (New Version 2021),2021.1.4,120.0993462
,,,,Conditions/Version_1/threeback(3)_v1.xlsx,New rule: Press 'space' when you see 3-back (i.e. the same letter as the one that appeared 3 letters ago.),w,None,,,,,,,,,0,8,8,8,0,0,0,0,,,,,,,,,,,,,,,,,,,,,,,,,,,,,,,,,,,,,,,,,,,,,,,,,,,,,,,,,,,614.1486795,None,617.1340717,None,space,0.2961577,617.1340717,None,614.1486795,None,1.9524,619.4146618,None,None,1,619.4146618,None,,P032,FENCOG,2,Post,2022_Apr_06_1159,N-Back (New Version 2021),2021.1.4,120.0993462
,,,,Conditions/Version_1/threeback(3)_v1.xlsx,New rule: Press 'space' when you see 3-back (i.e. the same letter as the one that appeared 3 letters ago.),p,None,,,,,,,,,0,8,8,8,0,1,1,1,,,,,,,,,,,,,,,,,,,,,,,,,,,,,,,,,,,,,,,,,,,,,,,,,,,,,,,,,,,,,,,,,,,,,1.5308,622.9469728,None,None,1,622.9469728,None,,P032,FENCOG,2,Post,2022_Apr_06_1159,N-Back (New Version 2021),2021.1.4,120.0993462
,,,,Conditions/Version_1/threeback(3)_v1.xlsx,New rule: Press 'space' when you see 3-back (i.e. the same letter as the one that appeared 3 letters ago.),P,None,,,,,,,,,0,8,8,8,0,2,2,2,,,,,,,,,,,,,,,,,,,,,,,,,,,,,,,,,,,,,,,,,,,,,,,,,,,,,,,,,,,,,,,,,,,,,1.4564,626.4063113,None,None,1,626.4063113,None,,P032,FENCOG,2,Post,2022_Apr_06_1159,N-Back (New Version 2021),2021.1.4,120.0993462
,,,,Conditions/Version_1/threeback(3)_v1.xlsx,New rule: Press 'space' when you see 3-back (i.e. the same letter as the one that appeared 3 letters ago.),i,None,,,,,,,,,0,8,8,8,0,3,3,3,,,,,,,,,,,,,,,,,,,,,,,,,,,,,,,,,,,,,,,,,,,,,,,,,,,,,,,,,,,,,,,,,,,,,1.4998,629.9134911,None,None,1,629.9134911,None,,P032,FENCOG,2,Post,2022_Apr_06_1159,N-Back (New Version 2021),2021.1.4,120.0993462
,,,,Conditions/Version_1/threeback(3)_v1.xlsx,New rule: Press 'space' when you see 3-back (i.e. the same letter as the one that appeared 3 letters ago.),f,None,,,,,,,,,0,8,8,8,0,4,4,4,,,,,,,,,,,,,,,,,,,,,,,,,,,,,,,,,,,,,,,,,,,,,,,,,,,,,,,,,,,,,,,,,,,,,1.3758,633.3020879,None,None,1,633.3020879,None,,P032,FENCOG,2,Post,2022_Apr_06_1159,N-Back (New Version 2021),2021.1.4,120.0993462
,,,,Conditions/Version_1/threeback(3)_v1.xlsx,New rule: Press 'space' when you see 3-back (i.e. the same letter as the one that appeared 3 letters ago.),o,None,,,,,,,,,0,8,8,8,0,5,5,5,,,,,,,,,,,,,,,,,,,,,,,,,,,,,,,,,,,,,,,,,,,,,,,,,,,,,,,,,,,,,,,,,,,,,1.7044,637.0091816,None,None,1,637.0091816,None,,P032,FENCOG,2,Post,2022_Apr_06_1159,N-Back (New Version 2021),2021.1.4,120.0993462
,,,,Conditions/Version_1/threeback(3)_v1.xlsx,New rule: Press 'space' when you see 3-back (i.e. the same letter as the one that appeared 3 letters ago.),w,None,,,,,,,,,0,8,8,8,0,6,6,6,,,,,,,,,,,,,,,,,,,,,,,,,,,,,,,,,,,,,,,,,,,,,,,,,,,,,,,,,,,,,,,,,,,,,1.7726,640.7830975,None,None,1,640.7830975,None,,P032,FENCOG,2,Post,2022_Apr_06_1159,N-Back (New Version 2021),2021.1.4,120.0993462
,,,,Conditions/Version_1/threeback(3)_v1.xlsx,New rule: Press 'space' when you see 3-back (i.e. the same letter as the one that appeared 3 letters ago.),F,space,,,,,,,,,0,8,8,8,0,7,7,7,,,,,,,,,,,,,,,,,,,,,,,,,,,,,,,,,,,,,,,,,,,,,,,,,,,,,,,,,,,,,,,,,,,,,1.9214,644.7083532,None,space,1,644.7083532,None,0.6098312,P032,FENCOG,2,Post,2022_Apr_06_1159,N-Back (New Version 2021),2021.1.4,120.0993462
,,,,Conditions/Version_1/threeback(3)_v1.xlsx,New rule: Press 'space' when you see 3-back (i.e. the same letter as the one that appeared 3 letters ago.),p,None,,,,,,,,,0,8,8,8,0,8,8,8,,,,,,,,,,,,,,,,,,,,,,,,,,,,,,,,,,,,,,,,,,,,,,,,,,,,,,,,,,,,,,,,,,,,,1.9462,648.6640935,None,None,1,648.6640935,None,,P032,FENCOG,2,Post,2022_Apr_06_1159,N-Back (New Version 2021),2021.1.4,120.0993462
,,,,Conditions/Version_1/threeback(3)_v1.xlsx,New rule: Press 'space' when you see 3-back (i.e. the same letter as the one that appeared 3 letters ago.),W,space,,,,,,,,,0,8,8,8,0,9,9,9,,,,,,,,,,,,,,,,,,,,,,,,,,,,,,,,,,,,,,,,,,,,,,,,,,,,,,,,,,,,,,,,,,,,,1.5122,652.1800027,None,space,1,652.1800027,None,0.7621979,P032,FENCOG,2,Post,2022_Apr_06_1159,N-Back (New Version 2021),2021.1.4,120.0993462
,,,,Conditions/Version_1/threeback(3)_v1.xlsx,New rule: Press 'space' when you see 3-back (i.e. the same letter as the one that appeared 3 letters ago.),,,,,,,,,,,0,8,8,8,,,,,,,,,,,,,,,,,,,,,,,,,,,,,,,,,,,,,,,,,,,,,,,,,,,,,,,,,,,,,,,,,,,,,,,,,,,,,,,,,P032,FENCOG,2,Post,2022_Apr_06_1159,N-Back (New Version 2021),2021.1.4,120.0993462
,,,,Conditions/Version_1/zeroback(3)_v1.xlsx,New rule: Press 'space' when you see the letter 'x' or 'X'.,X,space,,,,,,,,,0,9,9,9,0,0,0,0,,,,,,,,,,,,,,,,,,,,,,,,,,,,,,,,,,,,,,,,,,,,,,,,,,,,,,,,,,,654.1957229,None,657.1882479,None,space,0.5219688,657.1882479,None,654.1957229,None,1.816,659.5525628,None,None,0,659.5525628,None,,P032,FENCOG,2,Post,2022_Apr_06_1159,N-Back (New Version 2021),2021.1.4,120.0993462
,,,,Conditions/Version_1/zeroback(3)_v1.xlsx,New rule: Press 'space' when you see the letter 'x' or 'X'.,B,None,,,,,,,,,0,9,9,9,0,1,1,1,,,,,,,,,,,,,,,,,,,,,,,,,,,,,,,,,,,,,,,,,,,,,,,,,,,,,,,,,,,,,,,,,,,,,1.2642,662.8184563,None,None,1,662.8184563,None,,P032,FENCOG,2,Post,2022_Apr_06_1159,N-Back (New Version 2021),2021.1.4,120.0993462
,,,,Conditions/Version_1/zeroback(3)_v1.xlsx,New rule: Press 'space' when you see the letter 'x' or 'X'.,m,None,,,,,,,,,0,9,9,9,0,2,2,2,,,,,,,,,,,,,,,,,,,,,,,,,,,,,,,,,,,,,,,,,,,,,,,,,,,,,,,,,,,,,,,,,,,,,1.5866,666.4088743,None,None,1,666.4088743,None,,P032,FENCOG,2,Post,2022_Apr_06_1159,N-Back (New Version 2021),2021.1.4,120.0993462
,,,,Conditions/Version_1/zeroback(3)_v1.xlsx,New rule: Press 'space' when you see the letter 'x' or 'X'.,m,None,,,,,,,,,0,9,9,9,0,3,3,3,,,,,,,,,,,,,,,,,,,,,,,,,,,,,,,,,,,,,,,,,,,,,,,,,,,,,,,,,,,,,,,,,,,,,1.5122,669.9245054,None,None,1,669.9245054,None,,P032,FENCOG,2,Post,2022_Apr_06_1159,N-Back (New Version 2021),2021.1.4,120.0993462
,,,,Conditions/Version_1/zeroback(3)_v1.xlsx,New rule: Press 'space' when you see the letter 'x' or 'X'.,o,None,,,,,,,,,0,9,9,9,0,4,4,4,,,,,,,,,,,,,,,,,,,,,,,,,,,,,,,,,,,,,,,,,,,,,,,,,,,,,,,,,,,,,,,,,,,,,1.9028,673.8318668,None,None,1,673.8318668,None,,P032,FENCOG,2,Post,2022_Apr_06_1159,N-Back (New Version 2021),2021.1.4,120.0993462
,,,,Conditions/Version_1/zeroback(3)_v1.xlsx,New rule: Press 'space' when you see the letter 'x' or 'X'.,p,None,,,,,,,,,0,9,9,9,0,5,5,5,,,,,,,,,,,,,,,,,,,,,,,,,,,,,,,,,,,,,,,,,,,,,,,,,,,,,,,,,,,,,,,,,,,,,1.0348,676.8732962,None,None,1,676.8732962,None,,P032,FENCOG,2,Post,2022_Apr_06_1159,N-Back (New Version 2021),2021.1.4,120.0993462
,,,,Conditions/Version_1/zeroback(3)_v1.xlsx,New rule: Press 'space' when you see the letter 'x' or 'X'.,G,None,,,,,,,,,0,9,9,9,0,6,6,6,,,,,,,,,,,,,,,,,,,,,,,,,,,,,,,,,,,,,,,,,,,,,,,,,,,,,,,,,,,,,,,,,,,,,1.072,679.9551333,None,None,1,679.9551333,None,,P032,FENCOG,2,Post,2022_Apr_06_1159,N-Back (New Version 2021),2021.1.4,120.0993462
,,,,Conditions/Version_1/zeroback(3)_v1.xlsx,New rule: Press 'space' when you see the letter 'x' or 'X'.,X,space,,,,,,,,,0,9,9,9,0,7,7,7,,,,,,,,,,,,,,,,,,,,,,,,,,,,,,,,,,,,,,,,,,,,,,,,,,,,,,,,,,,,,,,,,,,,,1.8222,683.7791684,None,space,1,683.7791684,None,0.3950412,P032,FENCOG,2,Post,2022_Apr_06_1159,N-Back (New Version 2021),2021.1.4,120.0993462
,,,,Conditions/Version_1/zeroback(3)_v1.xlsx,New rule: Press 'space' when you see the letter 'x' or 'X'.,p,None,,,,,,,,,0,9,9,9,0,8,8,8,,,,,,,,,,,,,,,,,,,,,,,,,,,,,,,,,,,,,,,,,,,,,,,,,,,,,,,,,,,,,,,,,,,,,1.351,687.1364356,None,None,1,687.1364356,None,,P032,FENCOG,2,Post,2022_Apr_06_1159,N-Back (New Version 2021),2021.1.4,120.0993462
,,,,Conditions/Version_1/zeroback(3)_v1.xlsx,New rule: Press 'space' when you see the letter 'x' or 'X'.,x,space,,,,,,,,,0,9,9,9,0,9,9,9,,,,,,,,,,,,,,,,,,,,,,,,,,,,,,,,,,,,,,,,,,,,,,,,,,,,,,,,,,,,,,,,,,,,,1.1278,690.2686401,None,space,1,690.2686401,None,0.4816344,P032,FENCOG,2,Post,2022_Apr_06_1159,N-Back (New Version 2021),2021.1.4,120.0993462
,,,,Conditions/Version_1/zeroback(3)_v1.xlsx,New rule: Press 'space' when you see the letter 'x' or 'X'.,,,,,,,,,,,0,9,9,9,,,,,,,,,,,,,,,,,,,,,,,,,,,,,,,,,,,,,,,,,,,,,,,,,,,,,,,,,,,,,,,,,,,,,,,,,,,,,,,,,P032,FENCOG,2,Post,2022_Apr_06_1159,N-Back (New Version 2021),2021.1.4,120.0993462
,,,,Conditions/Version_1/twoback(3)_v1.xlsx,New rule: Press 'space' when you see 2-back (i.e. the same letter as the one that appeared 2 letters ago.),e,None,,,,,,,,,0,10,10,10,0,0,0,0,,,,,,,,,,,,,,,,,,,,,,,,,,,,,,,,,,,,,,,,,,,,,,,,,,,,,,,,,,,692.2860132,None,695.2768088,None,space,0.3614371,695.2768088,None,692.2860132,None,1.01,696.6833026,None,None,1,696.6833026,None,,P032,FENCOG,2,Post,2022_Apr_06_1159,N-Back (New Version 2021),2021.1.4,120.0993462
,,,,Conditions/Version_1/twoback(3)_v1.xlsx,New rule: Press 'space' when you see 2-back (i.e. the same letter as the one that appeared 2 letters ago.),o,None,,,,,,,,,0,10,10,10,0,1,1,1,,,,,,,,,,,,,,,,,,,,,,,,,,,,,,,,,,,,,,,,,,,,,,,,,,,,,,,,,,,,,,,,,,,,,1.909,700.5988792,None,None,1,700.5988792,None,,P032,FENCOG,2,Post,2022_Apr_06_1159,N-Back (New Version 2021),2021.1.4,120.0993462
,,,,Conditions/Version_1/twoback(3)_v1.xlsx,New rule: Press 'space' when you see 2-back (i.e. the same letter as the one that appeared 2 letters ago.),P,None,,,,,,,,,0,10,10,10,0,2,2,2,,,,,,,,,,,,,,,,,,,,,,,,,,,,,,,,,,,,,,,,,,,,,,,,,,,,,,,,,,,,,,,,,,,,,1.2208,703.8228638,None,None,1,703.8228638,None,,P032,FENCOG,2,Post,2022_Apr_06_1159,N-Back (New Version 2021),2021.1.4,120.0993462
,,,,Conditions/Version_1/twoback(3)_v1.xlsx,New rule: Press 'space' when you see 2-back (i.e. the same letter as the one that appeared 2 letters ago.),z,None,,,,,,,,,0,10,10,10,0,3,3,3,,,,,,,,,,,,,,,,,,,,,,,,,,,,,,,,,,,,,,,,,,,,,,,,,,,,,,,,,,,,,,,,,,,,,1.1588,706.9816959,None,None,1,706.9816959,None,,P032,FENCOG,2,Post,2022_Apr_06_1159,N-Back (New Version 2021),2021.1.4,120.0993462
,,,,Conditions/Version_1/twoback(3)_v1.xlsx,New rule: Press 'space' when you see 2-back (i.e. the same letter as the one that appeared 2 letters ago.),X,None,,,,,,,,,0,10,10,10,0,4,4,4,,,,,,,,,,,,,,,,,,,,,,,,,,,,,,,,,,,,,,,,,,,,,,,,,,,,,,,,,,,,,,,,,,,,,1.0596,710.0545457,None,None,1,710.0545457,None,,P032,FENCOG,2,Post,2022_Apr_06_1159,N-Back (New Version 2021),2021.1.4,120.0993462
,,,,Conditions/Version_1/twoback(3)_v1.xlsx,New rule: Press 'space' when you see 2-back (i.e. the same letter as the one that appeared 2 letters ago.),z,space,,,,,,,,,0,10,10,10,0,5,5,5,,,,,,,,,,,,,,,,,,,,,,,,,,,,,,,,,,,,,,,,,,,,,,,,,,,,,,,,,,,,,,,,,,,,,1.7106,713.7701526,None,space,1,713.7701526,None,0.6682303,P032,FENCOG,2,Post,2022_Apr_06_1159,N-Back (New Version 2021),2021.1.4,120.0993462
,,,,Conditions/Version_1/twoback(3)_v1.xlsx,New rule: Press 'space' when you see 2-back (i.e. the same letter as the one that appeared 2 letters ago.),x,space,,,,,,,,,0,10,10,10,0,6,6,6,,,,,,,,,,,,,,,,,,,,,,,,,,,,,,,,,,,,,,,,,,,,,,,,,,,,,,,,,,,,,,,,,,,,,1.8408,717.6111325,None,space,1,717.6111325,None,0.5392726,P032,FENCOG,2,Post,2022_Apr_06_1159,N-Back (New Version 2021),2021.1.4,120.0993462
,,,,Conditions/Version_1/twoback(3)_v1.xlsx,New rule: Press 'space' when you see 2-back (i.e. the same letter as the one that appeared 2 letters ago.),c,None,,,,,,,,,0,10,10,10,0,7,7,7,,,,,,,,,,,,,,,,,,,,,,,,,,,,,,,,,,,,,,,,,,,,,,,,,,,,,,,,,,,,,,,,,,,,,1.8284,721.442978,None,None,1,721.442978,None,,P032,FENCOG,2,Post,2022_Apr_06_1159,N-Back (New Version 2021),2021.1.4,120.0993462
,,,,Conditions/Version_1/twoback(3)_v1.xlsx,New rule: Press 'space' when you see 2-back (i.e. the same letter as the one that appeared 2 letters ago.),i,None,,,,,,,,,0,10,10,10,0,8,8,8,,,,,,,,,,,,,,,,,,,,,,,,,,,,,,,,,,,,,,,,,,,,,,,,,,,,,,,,,,,,,,,,,,,,,1.475,724.9187128,None,None,1,724.9187128,None,,P032,FENCOG,2,Post,2022_Apr_06_1159,N-Back (New Version 2021),2021.1.4,120.0993462
,,,,Conditions/Version_1/twoback(3)_v1.xlsx,New rule: Press 'space' when you see 2-back (i.e. the same letter as the one that appeared 2 letters ago.),C,space,,,,,,,,,0,10,10,10,0,9,9,9,,,,,,,,,,,,,,,,,,,,,,,,,,,,,,,,,,,,,,,,,,,,,,,,,,,,,,,,,,,,,,,,,,,,,1.0782,728.0092271,None,space,1,728.0092271,None,0.6050015,P032,FENCOG,2,Post,2022_Apr_06_1159,N-Back (New Version 2021),2021.1.4,120.0993462
,,,,Conditions/Version_1/twoback(3)_v1.xlsx,New rule: Press 'space' when you see 2-back (i.e. the same letter as the one that appeared 2 letters ago.),,,,,,,,,,,0,10,10,10,,,,,,,,,,,,,,,,,,,,,,,,,,,,,,,,,,,,,,,,,,,,,,,,,,,,,,,,,,,,,,,,,,,,,,,,,,,,,,,,,P032,FENCOG,2,Post,2022_Apr_06_1159,N-Back (New Version 2021),2021.1.4,120.0993462
,,,,Conditions/Version_1/oneback(3)_v1.xlsx,New rule: Press 'space' when you see 1-back (i.e. the same letter as the one that appeared 1 letter ago.),o,None,,,,,,,,,0,11,11,11,0,0,0,0,,,,,,,,,,,,,,,,,,,,,,,,,,,,,,,,,,,,,,,,,,,,,,,,,,,,,,,,,,,730.0380678,None,733.0242776,None,space,0.3179257,733.0242776,None,730.0380678,None,1.5308,734.9057027,None,None,1,734.9057027,None,,P032,FENCOG,2,Post,2022_Apr_06_1159,N-Back (New Version 2021),2021.1.4,120.0993462
,,,,Conditions/Version_1/oneback(3)_v1.xlsx,New rule: Press 'space' when you see 1-back (i.e. the same letter as the one that appeared 1 letter ago.),O,space,,,,,,,,,0,11,11,11,0,1,1,1,,,,,,,,,,,,,,,,,,,,,,,,,,,,,,,,,,,,,,,,,,,,,,,,,,,,,,,,,,,,,,,,,,,,,1.8346,738.7472268,None,space,1,738.7472268,None,0.4591393,P032,FENCOG,2,Post,2022_Apr_06_1159,N-Back (New Version 2021),2021.1.4,120.0993462
,,,,Conditions/Version_1/oneback(3)_v1.xlsx,New rule: Press 'space' when you see 1-back (i.e. the same letter as the one that appeared 1 letter ago.),h,None,,,,,,,,,0,11,11,11,0,2,2,2,,,,,,,,,,,,,,,,,,,,,,,,,,,,,,,,,,,,,,,,,,,,,,,,,,,,,,,,,,,,,,,,,,,,,1.8718,742.6282415,None,None,1,742.6282415,None,,P032,FENCOG,2,Post,2022_Apr_06_1159,N-Back (New Version 2021),2021.1.4,120.0993462
,,,,Conditions/Version_1/oneback(3)_v1.xlsx,New rule: Press 'space' when you see 1-back (i.e. the same letter as the one that appeared 1 letter ago.),g,None,,,,,,,,,0,11,11,11,0,3,3,3,,,,,,,,,,,,,,,,,,,,,,,,,,,,,,,,,,,,,,,,,,,,,,,,,,,,,,,,,,,,,,,,,,,,,1.8842,746.5187703,None,None,1,746.5187703,None,,P032,FENCOG,2,Post,2022_Apr_06_1159,N-Back (New Version 2021),2021.1.4,120.0993462
,,,,Conditions/Version_1/oneback(3)_v1.xlsx,New rule: Press 'space' when you see 1-back (i.e. the same letter as the one that appeared 1 letter ago.),n,None,,,,,,,,,0,11,11,11,0,4,4,4,,,,,,,,,,,,,,,,,,,,,,,,,,,,,,,,,,,,,,,,,,,,,,,,,,,,,,,,,,,,,,,,,,,,,1.4998,750.0178017,None,None,1,750.0178017,None,,P032,FENCOG,2,Post,2022_Apr_06_1159,N-Back (New Version 2021),2021.1.4,120.0993462
,,,,Conditions/Version_1/oneback(3)_v1.xlsx,New rule: Press 'space' when you see 1-back (i.e. the same letter as the one that appeared 1 letter ago.),z,None,,,,,,,,,0,11,11,11,0,5,5,5,,,,,,,,,,,,,,,,,,,,,,,,,,,,,,,,,,,,,,,,,,,,,,,,,,,,,,,,,,,,,,,,,,,,,1.2022,753.225699,None,None,1,753.225699,None,,P032,FENCOG,2,Post,2022_Apr_06_1159,N-Back (New Version 2021),2021.1.4,120.0993462
,,,,Conditions/Version_1/oneback(3)_v1.xlsx,New rule: Press 'space' when you see 1-back (i.e. the same letter as the one that appeared 1 letter ago.),X,None,,,,,,,,,0,11,11,11,0,6,6,6,,,,,,,,,,,,,,,,,,,,,,,,,,,,,,,,,,,,,,,,,,,,,,,,,,,,,,,,,,,,,,,,,,,,,1.0968,756.3267805,None,None,1,756.3267805,None,,P032,FENCOG,2,Post,2022_Apr_06_1159,N-Back (New Version 2021),2021.1.4,120.0993462
,,,,Conditions/Version_1/oneback(3)_v1.xlsx,New rule: Press 'space' when you see 1-back (i.e. the same letter as the one that appeared 1 letter ago.),r,None,,,,,,,,,0,11,11,11,0,7,7,7,,,,,,,,,,,,,,,,,,,,,,,,,,,,,,,,,,,,,,,,,,,,,,,,,,,,,,,,,,,,,,,,,,,,,1.3448,759.717431,None,None,1,759.717431,None,,P032,FENCOG,2,Post,2022_Apr_06_1159,N-Back (New Version 2021),2021.1.4,120.0993462
,,,,Conditions/Version_1/oneback(3)_v1.xlsx,New rule: Press 'space' when you see 1-back (i.e. the same letter as the one that appeared 1 letter ago.),r,space,,,,,,,,,0,11,11,11,0,8,8,8,,,,,,,,,,,,,,,,,,,,,,,,,,,,,,,,,,,,,,,,,,,,,,,,,,,,,,,,,,,,,,,,,,,,,1.6052,763.297368,None,space,1,763.297368,None,0.540928,P032,FENCOG,2,Post,2022_Apr_06_1159,N-Back (New Version 2021),2021.1.4,120.0993462
,,,,Conditions/Version_1/oneback(3)_v1.xlsx,New rule: Press 'space' when you see 1-back (i.e. the same letter as the one that appeared 1 letter ago.),P,None,,,,,,,,,0,11,11,11,0,9,9,9,,,,,,,,,,,,,,,,,,,,,,,,,,,,,,,,,,,,,,,,,,,,,,,,,,,,,,,,,,,,,,,,,,,,,1.4378,766.7387112,None,None,1,766.7387112,None,,P032,FENCOG,2,Post,2022_Apr_06_1159,N-Back (New Version 2021),2021.1.4,120.0993462
,,,,Conditions/Version_1/oneback(3)_v1.xlsx,New rule: Press 'space' when you see 1-back (i.e. the same letter as the one that appeared 1 letter ago.),,,,,,,,,,,0,11,11,11,,,,,,,,,,,,,,,,,,,,,,,,,,,,,,,,,,,,,,,,,,,,,,,,,,,,,,,,,,,,,,,,,,,,,,,,,,,,,,,,,P032,FENCOG,2,Post,2022_Apr_06_1159,N-Back (New Version 2021),2021.1.4,120.0993462
,,,,Conditions/Version_1/twoback(4)_v1.xlsx,New rule: Press 'space' when you see 2-back (i.e. the same letter as the one that appeared 2 letters ago.),r,None,,,,,,,,,0,12,12,12,0,0,0,0,,,,,,,,,,,,,,,,,,,,,,,,,,,,,,,,,,,,,,,,,,,,,,,,,,,,,,,,,,,768.7673173,None,771.7551424,None,space,0.3631286,771.7551424,None,768.7673173,None,1.351,773.5025251,None,None,1,773.5025251,None,,P032,FENCOG,2,Post,2022_Apr_06_1159,N-Back (New Version 2021),2021.1.4,120.0993462
,,,,Conditions/Version_1/twoback(4)_v1.xlsx,New rule: Press 'space' when you see 2-back (i.e. the same letter as the one that appeared 2 letters ago.),T,None,,,,,,,,,0,12,12,12,0,1,1,1,,,,,,,,,,,,,,,,,,,,,,,,,,,,,,,,,,,,,,,,,,,,,,,,,,,,,,,,,,,,,,,,,,,,,1.0906,776.5930237,None,None,1,776.5930237,None,,P032,FENCOG,2,Post,2022_Apr_06_1159,N-Back (New Version 2021),2021.1.4,120.0993462
,,,,Conditions/Version_1/twoback(4)_v1.xlsx,New rule: Press 'space' when you see 2-back (i.e. the same letter as the one that appeared 2 letters ago.),o,None,,,,,,,,,0,12,12,12,0,2,2,2,,,,,,,,,,,,,,,,,,,,,,,,,,,,,,,,,,,,,,,,,,,,,,,,,,,,,,,,,,,,,,,,,,,,,1.5928,780.1922338,None,None,1,780.1922338,None,,P032,FENCOG,2,Post,2022_Apr_06_1159,N-Back (New Version 2021),2021.1.4,120.0993462
,,,,Conditions/Version_1/twoback(4)_v1.xlsx,New rule: Press 'space' when you see 2-back (i.e. the same letter as the one that appeared 2 letters ago.),p,None,,,,,,,,,0,12,12,12,0,3,3,3,,,,,,,,,,,,,,,,,,,,,,,,,,,,,,,,,,,,,,,,,,,,,,,,,,,,,,,,,,,,,,,,,,,,,1.94,784.1340837,None,None,1,784.1340837,None,,P032,FENCOG,2,Post,2022_Apr_06_1159,N-Back (New Version 2021),2021.1.4,120.0993462
,,,,Conditions/Version_1/twoback(4)_v1.xlsx,New rule: Press 'space' when you see 2-back (i.e. the same letter as the one that appeared 2 letters ago.),p,None,,,,,,,,,0,12,12,12,0,4,4,4,,,,,,,,,,,,,,,,,,,,,,,,,,,,,,,,,,,,,,,,,,,,,,,,,,,,,,,,,,,,,,,,,,,,,1.8098,787.9568129,None,None,1,787.9568129,None,,P032,FENCOG,2,Post,2022_Apr_06_1159,N-Back (New Version 2021),2021.1.4,120.0993462
,,,,Conditions/Version_1/twoback(4)_v1.xlsx,New rule: Press 'space' when you see 2-back (i.e. the same letter as the one that appeared 2 letters ago.),y,None,,,,,,,,,0,12,12,12,0,5,5,5,,,,,,,,,,,,,,,,,,,,,,,,,,,,,,,,,,,,,,,,,,,,,,,,,,,,,,,,,,,,,,,,,,,,,1.3882,791.3474539,None,None,1,791.3474539,None,,P032,FENCOG,2,Post,2022_Apr_06_1159,N-Back (New Version 2021),2021.1.4,120.0993462
,,,,Conditions/Version_1/twoback(4)_v1.xlsx,New rule: Press 'space' when you see 2-back (i.e. the same letter as the one that appeared 2 letters ago.),P,space,,,,,,,,,0,12,12,12,0,6,6,6,,,,,,,,,,,,,,,,,,,,,,,,,,,,,,,,,,,,,,,,,,,,,,,,,,,,,,,,,,,,,,,,,,,,,1.0224,794.3712275,None,space,1,794.3712275,None,0.6272282,P032,FENCOG,2,Post,2022_Apr_06_1159,N-Back (New Version 2021),2021.1.4,120.0993462
,,,,Conditions/Version_1/twoback(4)_v1.xlsx,New rule: Press 'space' when you see 2-back (i.e. the same letter as the one that appeared 2 letters ago.),y,None,,,,,,,,,0,12,12,12,0,7,7,7,,,,,,,,,,,,,,,,,,,,,,,,,,,,,,,,,,,,,,,,,,,,,,,,,,,,,,,,,,,,,,,,,,,,,1.9958,798.3723166,None,space,0,798.3723166,None,0.6019186,P032,FENCOG,2,Post,2022_Apr_06_1159,N-Back (New Version 2021),2021.1.4,120.0993462
,,,,Conditions/Version_1/twoback(4)_v1.xlsx,New rule: Press 'space' when you see 2-back (i.e. the same letter as the one that appeared 2 letters ago.),y,space,,,,,,,,,0,12,12,12,0,8,8,8,,,,,,,,,,,,,,,,,,,,,,,,,,,,,,,,,,,,,,,,,,,,,,,,,,,,,,,,,,,,,,,,,,,,,1.8842,802.2690852,None,None,0,802.2690852,None,,P032,FENCOG,2,Post,2022_Apr_06_1159,N-Back (New Version 2021),2021.1.4,120.0993462
,,,,Conditions/Version_1/twoback(4)_v1.xlsx,New rule: Press 'space' when you see 2-back (i.e. the same letter as the one that appeared 2 letters ago.),,,,,,,,,,,0,12,12,12,,,,,,,,,,,,,,,,,,,,,,,,,,,,,,,,,,,,,,,,,,,,,,,,,,,,,,,,,,,,,,,,,,,,,,,,,,,,,,,,,P032,FENCOG,2,Post,2022_Apr_06_1159,N-Back (New Version 2021),2021.1.4,120.0993462
,,,,Conditions/Version_1/zeroback(4)_v1.xlsx,New rule: Press 'space' when you see the letter 'x' or 'X'.,o,None,,,,,,,,,0,13,13,13,0,0,0,0,,,,,,,,,,,,,,,,,,,,,,,,,,,,,,,,,,,,,,,,,,,,,,,,,,,,,,,,,,,804.2869533,None,807.2695068,None,space,0.4246595,807.2695068,None,804.2869533,None,1.8966,809.6253973,None,None,1,809.6253973,None,,P032,FENCOG,2,Post,2022_Apr_06_1159,N-Back (New Version 2021),2021.1.4,120.0993462
,,,,Conditions/Version_1/zeroback(4)_v1.xlsx,New rule: Press 'space' when you see the letter 'x' or 'X'.,X,space,,,,,,,,,0,13,13,13,0,1,1,1,,,,,,,,,,,,,,,,,,,,,,,,,,,,,,,,,,,,,,,,,,,,,,,,,,,,,,,,,,,,,,,,,,,,,1.1092,812.7410743,None,space,1,812.7410743,None,0.4092675,P032,FENCOG,2,Post,2022_Apr_06_1159,N-Back (New Version 2021),2021.1.4,120.0993462
,,,,Conditions/Version_1/zeroback(4)_v1.xlsx,New rule: Press 'space' when you see the letter 'x' or 'X'.,p,None,,,,,,,,,0,13,13,13,0,2,2,2,,,,,,,,,,,,,,,,,,,,,,,,,,,,,,,,,,,,,,,,,,,,,,,,,,,,,,,,,,,,,,,,,,,,,1.2766,816.0247944,None,None,1,816.0247944,None,,P032,FENCOG,2,Post,2022_Apr_06_1159,N-Back (New Version 2021),2021.1.4,120.0993462
,,,,Conditions/Version_1/zeroback(4)_v1.xlsx,New rule: Press 'space' when you see the letter 'x' or 'X'.,m,None,,,,,,,,,0,13,13,13,0,3,3,3,,,,,,,,,,,,,,,,,,,,,,,,,,,,,,,,,,,,,,,,,,,,,,,,,,,,,,,,,,,,,,,,,,,,,1.2208,819.2559256,None,None,1,819.2559256,None,,P032,FENCOG,2,Post,2022_Apr_06_1159,N-Back (New Version 2021),2021.1.4,120.0993462
,,,,Conditions/Version_1/zeroback(4)_v1.xlsx,New rule: Press 'space' when you see the letter 'x' or 'X'.,n,None,,,,,,,,,0,13,13,13,0,4,4,4,,,,,,,,,,,,,,,,,,,,,,,,,,,,,,,,,,,,,,,,,,,,,,,,,,,,,,,,,,,,,,,,,,,,,1.2084,822.4642494,None,None,1,822.4642494,None,,P032,FENCOG,2,Post,2022_Apr_06_1159,N-Back (New Version 2021),2021.1.4,120.0993462
,,,,Conditions/Version_1/zeroback(4)_v1.xlsx,New rule: Press 'space' when you see the letter 'x' or 'X'.,m,None,,,,,,,,,0,13,13,13,0,5,5,5,,,,,,,,,,,,,,,,,,,,,,,,,,,,,,,,,,,,,,,,,,,,,,,,,,,,,,,,,,,,,,,,,,,,,1.3324,825.8037776,None,None,1,825.8037776,None,,P032,FENCOG,2,Post,2022_Apr_06_1159,N-Back (New Version 2021),2021.1.4,120.0993462
,,,,Conditions/Version_1/zeroback(4)_v1.xlsx,New rule: Press 'space' when you see the letter 'x' or 'X'.,C,None,,,,,,,,,0,13,13,13,0,6,6,6,,,,,,,,,,,,,,,,,,,,,,,,,,,,,,,,,,,,,,,,,,,,,,,,,,,,,,,,,,,,,,,,,,,,,1.1464,828.9529119,None,None,1,828.9529119,None,,P032,FENCOG,2,Post,2022_Apr_06_1159,N-Back (New Version 2021),2021.1.4,120.0993462
,,,,Conditions/Version_1/zeroback(4)_v1.xlsx,New rule: Press 'space' when you see the letter 'x' or 'X'.,m,None,,,,,,,,,0,13,13,13,0,7,7,7,,,,,,,,,,,,,,,,,,,,,,,,,,,,,,,,,,,,,,,,,,,,,,,,,,,,,,,,,,,,,,,,,,,,,1.6114,832.5684372,None,None,1,832.5684372,None,,P032,FENCOG,2,Post,2022_Apr_06_1159,N-Back (New Version 2021),2021.1.4,120.0993462
,,,,Conditions/Version_1/zeroback(4)_v1.xlsx,New rule: Press 'space' when you see the letter 'x' or 'X'.,p,None,,,,,,,,,0,13,13,13,0,8,8,8,,,,,,,,,,,,,,,,,,,,,,,,,,,,,,,,,,,,,,,,,,,,,,,,,,,,,,,,,,,,,,,,,,,,,1.6796,836.2507072,None,None,1,836.2507072,None,,P032,FENCOG,2,Post,2022_Apr_06_1159,N-Back (New Version 2021),2021.1.4,120.0993462
,,,,Conditions/Version_1/zeroback(4)_v1.xlsx,New rule: Press 'space' when you see the letter 'x' or 'X'.,X,space,,,,,,,,,0,13,13,13,0,9,9,9,,,,,,,,,,,,,,,,,,,,,,,,,,,,,,,,,,,,,,,,,,,,,,,,,,,,,,,,,,,,,,,,,,,,,1.3138,839.5685921,None,space,1,839.5685921,None,0.6137205,P032,FENCOG,2,Post,2022_Apr_06_1159,N-Back (New Version 2021),2021.1.4,120.0993462
,,,,Conditions/Version_1/zeroback(4)_v1.xlsx,New rule: Press 'space' when you see the letter 'x' or 'X'.,,,,,,,,,,,0,13,13,13,,,,,,,,,,,,,,,,,,,,,,,,,,,,,,,,,,,,,,,,,,,,,,,,,,,,,,,,,,,,,,,,,,,,,,,,,,,,,,,,,P032,FENCOG,2,Post,2022_Apr_06_1159,N-Back (New Version 2021),2021.1.4,120.0993462
,,,,Conditions/Version_1/oneback(4)_v1.xlsx,New rule: Press 'space' when you see 1-back (i.e. the same letter as the one that appeared 1 letter ago.),w,None,,,,,,,,,0,14,14,14,0,0,0,0,,,,,,,,,,,,,,,,,,,,,,,,,,,,,,,,,,,,,,,,,,,,,,,,,,,,,,,,,,,841.5930981,None,844.5758086,None,space,0.5504569,844.5758086,None,841.5930981,None,1.8842,847.0392198,None,None,1,847.0392198,None,,P032,FENCOG,2,Post,2022_Apr_06_1159,N-Back (New Version 2021),2021.1.4,120.0993462
,,,,Conditions/Version_1/oneback(4)_v1.xlsx,New rule: Press 'space' when you see 1-back (i.e. the same letter as the one that appeared 1 letter ago.),q,None,,,,,,,,,0,14,14,14,0,1,1,1,,,,,,,,,,,,,,,,,,,,,,,,,,,,,,,,,,,,,,,,,,,,,,,,,,,,,,,,,,,,,,,,,,,,,1.351,850.3965316,None,None,1,850.3965316,None,,P032,FENCOG,2,Post,2022_Apr_06_1159,N-Back (New Version 2021),2021.1.4,120.0993462
,,,,Conditions/Version_1/oneback(4)_v1.xlsx,New rule: Press 'space' when you see 1-back (i.e. the same letter as the one that appeared 1 letter ago.),i,None,,,,,,,,,0,14,14,14,0,2,2,2,,,,,,,,,,,,,,,,,,,,,,,,,,,,,,,,,,,,,,,,,,,,,,,,,,,,,,,,,,,,,,,,,,,,,1.909,854.3132268,None,None,1,854.3132268,None,,P032,FENCOG,2,Post,2022_Apr_06_1159,N-Back (New Version 2021),2021.1.4,120.0993462
,,,,Conditions/Version_1/oneback(4)_v1.xlsx,New rule: Press 'space' when you see 1-back (i.e. the same letter as the one that appeared 1 letter ago.),t,None,,,,,,,,,0,14,14,14,0,3,3,3,,,,,,,,,,,,,,,,,,,,,,,,,,,,,,,,,,,,,,,,,,,,,,,,,,,,,,,,,,,,,,,,,,,,,1.1216,857.4444505,None,None,1,857.4444505,None,,P032,FENCOG,2,Post,2022_Apr_06_1159,N-Back (New Version 2021),2021.1.4,120.0993462
,,,,Conditions/Version_1/oneback(4)_v1.xlsx,New rule: Press 'space' when you see 1-back (i.e. the same letter as the one that appeared 1 letter ago.),v,None,,,,,,,,,0,14,14,14,0,4,4,4,,,,,,,,,,,,,,,,,,,,,,,,,,,,,,,,,,,,,,,,,,,,,,,,,,,,,,,,,,,,,,,,,,,,,1.5432,860.9961332,None,None,1,860.9961332,None,,P032,FENCOG,2,Post,2022_Apr_06_1159,N-Back (New Version 2021),2021.1.4,120.0993462
,,,,Conditions/Version_1/oneback(4)_v1.xlsx,New rule: Press 'space' when you see 1-back (i.e. the same letter as the one that appeared 1 letter ago.),V,space,,,,,,,,,0,14,14,14,0,5,5,5,,,,,,,,,,,,,,,,,,,,,,,,,,,,,,,,,,,,,,,,,,,,,,,,,,,,,,,,,,,,,,,,,,,,,1.0162,864.019361,None,space,1,864.019361,None,0.5870657,P032,FENCOG,2,Post,2022_Apr_06_1159,N-Back (New Version 2021),2021.1.4,120.0993462
,,,,Conditions/Version_1/oneback(4)_v1.xlsx,New rule: Press 'space' when you see 1-back (i.e. the same letter as the one that appeared 1 letter ago.),v,space,,,,,,,,,0,14,14,14,0,6,6,6,,,,,,,,,,,,,,,,,,,,,,,,,,,,,,,,,,,,,,,,,,,,,,,,,,,,,,,,,,,,,,,,,,,,,1.1278,867.1583836,None,space,1,867.1583836,None,0.4481179,P032,FENCOG,2,Post,2022_Apr_06_1159,N-Back (New Version 2021),2021.1.4,120.0993462
,,,,Conditions/Version_1/oneback(4)_v1.xlsx,New rule: Press 'space' when you see 1-back (i.e. the same letter as the one that appeared 1 letter ago.),p,None,,,,,,,,,0,14,14,14,0,7,7,7,,,,,,,,,,,,,,,,,,,,,,,,,,,,,,,,,,,,,,,,,,,,,,,,,,,,,,,,,,,,,,,,,,,,,1.32,870.483572,None,None,1,870.483572,None,,P032,FENCOG,2,Post,2022_Apr_06_1159,N-Back (New Version 2021),2021.1.4,120.0993462
,,,,Conditions/Version_1/oneback(4)_v1.xlsx,New rule: Press 'space' when you see 1-back (i.e. the same letter as the one that appeared 1 letter ago.),w,None,,,,,,,,,0,14,14,14,0,8,8,8,,,,,,,,,,,,,,,,,,,,,,,,,,,,,,,,,,,,,,,,,,,,,,,,,,,,,,,,,,,,,,,,,,,,,1.6238,874.1145717,None,None,1,874.1145717,None,,P032,FENCOG,2,Post,2022_Apr_06_1159,N-Back (New Version 2021),2021.1.4,120.0993462
,,,,Conditions/Version_1/oneback(4)_v1.xlsx,New rule: Press 'space' when you see 1-back (i.e. the same letter as the one that appeared 1 letter ago.),W,space,,,,,,,,,0,14,14,14,0,9,9,9,,,,,,,,,,,,,,,,,,,,,,,,,,,,,,,,,,,,,,,,,,,,,,,,,,,,,,,,,,,,,,,,,,,,,1.1464,877.2640585,None,space,1,877.2640585,None,0.6461607,P032,FENCOG,2,Post,2022_Apr_06_1159,N-Back (New Version 2021),2021.1.4,120.0993462
,,,,Conditions/Version_1/oneback(4)_v1.xlsx,New rule: Press 'space' when you see 1-back (i.e. the same letter as the one that appeared 1 letter ago.),,,,,,,,,,,0,14,14,14,,,,,,,,,,,,,,,,,,,,,,,,,,,,,,,,,,,,,,,,,,,,,,,,,,,,,,,,,,,,,,,,,,,,,,,,,,,,,,,,,P032,FENCOG,2,Post,2022_Apr_06_1159,N-Back (New Version 2021),2021.1.4,120.0993462
,,,,Conditions/Version_1/threeback(4)_v1.xlsx,New rule: Press 'space' when you see 3-back (i.e. the same letter as the one that appeared 3 letters ago.),A,None,,,,,,,,,0,15,15,15,0,0,0,0,,,,,,,,,,,,,,,,,,,,,,,,,,,,,,,,,,,,,,,,,,,,,,,,,,,,,,,,,,,879.2863531,None,882.2737798,None,space,2.3325309,882.2737798,None,879.2863531,None,1.7106,886.3466934,None,None,1,886.3466934,None,,P032,FENCOG,2,Post,2022_Apr_06_1159,N-Back (New Version 2021),2021.1.4,120.0993462
,,,,Conditions/Version_1/threeback(4)_v1.xlsx,New rule: Press 'space' when you see 3-back (i.e. the same letter as the one that appeared 3 letters ago.),n,None,,,,,,,,,0,15,15,15,0,1,1,1,,,,,,,,,,,,,,,,,,,,,,,,,,,,,,,,,,,,,,,,,,,,,,,,,,,,,,,,,,,,,,,,,,,,,1.3138,889.6689731,None,None,1,889.6689731,None,,P032,FENCOG,2,Post,2022_Apr_06_1159,N-Back (New Version 2021),2021.1.4,120.0993462
,,,,Conditions/Version_1/threeback(4)_v1.xlsx,New rule: Press 'space' when you see 3-back (i.e. the same letter as the one that appeared 3 letters ago.),g,None,,,,,,,,,0,15,15,15,0,2,2,2,,,,,,,,,,,,,,,,,,,,,,,,,,,,,,,,,,,,,,,,,,,,,,,,,,,,,,,,,,,,,,,,,,,,,1.3262,893.0094377,None,None,1,893.0094377,None,,P032,FENCOG,2,Post,2022_Apr_06_1159,N-Back (New Version 2021),2021.1.4,120.0993462
,,,,Conditions/Version_1/threeback(4)_v1.xlsx,New rule: Press 'space' when you see 3-back (i.e. the same letter as the one that appeared 3 letters ago.),A,space,,,,,,,,,0,15,15,15,0,3,3,3,,,,,,,,,,,,,,,,,,,,,,,,,,,,,,,,,,,,,,,,,,,,,,,,,,,,,,,,,,,,,,,,,,,,,1.041,896.0498829,None,space,1,896.0498829,None,0.5405024,P032,FENCOG,2,Post,2022_Apr_06_1159,N-Back (New Version 2021),2021.1.4,120.0993462
,,,,Conditions/Version_1/threeback(4)_v1.xlsx,New rule: Press 'space' when you see 3-back (i.e. the same letter as the one that appeared 3 letters ago.),p,None,,,,,,,,,0,15,15,15,0,4,4,4,,,,,,,,,,,,,,,,,,,,,,,,,,,,,,,,,,,,,,,,,,,,,,,,,,,,,,,,,,,,,,,,,,,,,1.0968,899.1490128,None,None,1,899.1490128,None,,P032,FENCOG,2,Post,2022_Apr_06_1159,N-Back (New Version 2021),2021.1.4,120.0993462
,,,,Conditions/Version_1/threeback(4)_v1.xlsx,New rule: Press 'space' when you see 3-back (i.e. the same letter as the one that appeared 3 letters ago.),O,None,,,,,,,,,0,15,15,15,0,5,5,5,,,,,,,,,,,,,,,,,,,,,,,,,,,,,,,,,,,,,,,,,,,,,,,,,,,,,,,,,,,,,,,,,,,,,1.0162,902.1730718,None,None,1,902.1730718,None,,P032,FENCOG,2,Post,2022_Apr_06_1159,N-Back (New Version 2021),2021.1.4,120.0993462
,,,,Conditions/Version_1/threeback(4)_v1.xlsx,New rule: Press 'space' when you see 3-back (i.e. the same letter as the one that appeared 3 letters ago.),a,space,,,,,,,,,0,15,15,15,0,6,6,6,,,,,,,,,,,,,,,,,,,,,,,,,,,,,,,,,,,,,,,,,,,,,,,,,,,,,,,,,,,,,,,,,,,,,1.4378,905.6154093,None,space,1,905.6154093,None,0.559075,P032,FENCOG,2,Post,2022_Apr_06_1159,N-Back (New Version 2021),2021.1.4,120.0993462
,,,,Conditions/Version_1/threeback(4)_v1.xlsx,New rule: Press 'space' when you see 3-back (i.e. the same letter as the one that appeared 3 letters ago.),p,space,,,,,,,,,0,15,15,15,0,7,7,7,,,,,,,,,,,,,,,,,,,,,,,,,,,,,,,,,,,,,,,,,,,,,,,,,,,,,,,,,,,,,,,,,,,,,1.4998,909.1230732,None,space,1,909.1230732,None,0.7153612,P032,FENCOG,2,Post,2022_Apr_06_1159,N-Back (New Version 2021),2021.1.4,120.0993462
,,,,Conditions/Version_1/threeback(4)_v1.xlsx,New rule: Press 'space' when you see 3-back (i.e. the same letter as the one that appeared 3 letters ago.),x,None,,,,,,,,,0,15,15,15,0,8,8,8,,,,,,,,,,,,,,,,,,,,,,,,,,,,,,,,,,,,,,,,,,,,,,,,,,,,,,,,,,,,,,,,,,,,,1.3758,912.5128301,None,None,1,912.5128301,None,,P032,FENCOG,2,Post,2022_Apr_06_1159,N-Back (New Version 2021),2021.1.4,120.0993462
,,,,Conditions/Version_1/threeback(4)_v1.xlsx,New rule: Press 'space' when you see 3-back (i.e. the same letter as the one that appeared 3 letters ago.),X,None,,,,,,,,,0,15,15,15,0,9,9,9,,,,,,,,,,,,,,,,,,,,,,,,,,,,,,,,,,,,,,,,,,,,,,,,,,,,,,,,,,,,,,,,,,,,,1.1464,915.6699732,None,None,1,915.6699732,None,,P032,FENCOG,2,Post,2022_Apr_06_1159,N-Back (New Version 2021),2021.1.4,120.0993462
,,,,Conditions/Version_1/threeback(4)_v1.xlsx,New rule: Press 'space' when you see 3-back (i.e. the same letter as the one that appeared 3 letters ago.),,,,,,,,,,,0,15,15,15,,,,,,,,,,,,,,,,,,,,,,,,,,,,,,,,,,,,,,,,,,,,,,,,,,,,,,,,,,,,,,,,,,,,,,,,,,,,,,,,,P032,FENCOG,2,Post,2022_Apr_06_1159,N-Back (New Version 2021),2021.1.4,120.0993462
