CondFileP,InstructionsP,LettersDisplayedP,CorrectnessP,CondFile,Instructions,LettersDisplayed,Correctness,practicetrials.thisRepN,practicetrials.thisTrialN,practicetrials.thisN,practicetrials.thisIndex,InnerLoopPractice.thisRepN,InnerLoopPractice.thisTrialN,InnerLoopPractice.thisN,InnerLoopPractice.thisIndex,trials.thisRepN,trials.thisTrialN,trials.thisN,trials.thisIndex,InnerLoop.thisRepN,InnerLoop.thisTrialN,InnerLoop.thisN,InnerLoop.thisIndex,TaskVersionText.started,TaskVersionText.stopped,InstrKey1.keys,InstrKey1.rt,InstrKey1.started,InstrKey1.stopped,text.started,text.stopped,key_resp_4.keys,key_resp_4.rt,key_resp_4.started,key_resp_4.stopped,text_2.started,text_2.stopped,key_resp_3.keys,key_resp_3.rt,key_resp_3.started,key_resp_3.stopped,text_3.started,text_3.stopped,key_resp_2.keys,key_resp_2.rt,key_resp_2.started,key_resp_2.stopped,PractIn1.started,PractIn1.stopped,PractIn2.started,PractIn2.stopped,PractInstructionPass.keys,PractInstructionPass.rt,PractInstructionPass.started,PractInstructionPass.stopped,PractBlock1.started,PractBlock1.stopped,ISIjitterPractice,ISI_Pract_Fixation.started,ISI_Pract_Fixation.stopped,N_backP.started,N_backP.stopped,KeyPractice.keys,KeyPractice.corr,KeyPractice.started,KeyPractice.stopped,text_4.started,text_4.stopped,KeyPractice.rt,TransitionText.started,TransitionText.stopped,key_resp_6.keys,key_resp_6.rt,key_resp_6.started,key_resp_6.stopped,text_5.started,text_5.stopped,key_resp_5.keys,key_resp_5.rt,key_resp_5.started,key_resp_5.stopped,MainInt1.started,MainInt1.stopped,MainInt2.started,MainInt2.stopped,InstructionPass.keys,InstructionPass.rt,InstructionPass.started,InstructionPass.stopped,Blocks1.started,Blocks1.stopped,ISIjitter,N_backD.started,N_backD.stopped,key_resp.keys,key_resp.corr,key_resp.started,key_resp.stopped,key_resp.rt,participant,Study Name,Task Version (required to run),PRE/POST,date,expName,psychopyVersion,frameRate
,,,,,,,,,,,,,,,,,,,,,,,,45.9075689,None,space,12.1499145,46.3998385,None,,,,,,,,,,,,,,,,,,,,,,,,,,,,,,,,,,,,,,,,,,,,,,,,,,,,,,,,,,,,,,,,,,,,,,,P033,fencog,1,Post,2022_Apr_12_1224,N-Back (New Version 2021),2021.1.4,120.1966417
,,,,,,,,,,,,,,,,,,,,,,,,,,,,,,58.6094484,None,space,25.2217306,59.1038853,None,,,,,,,,,,,,,,,,,,,,,,,,,,,,,,,,,,,,,,,,,,,,,,,,,,,,,,,,,,,,,,,,,P033,fencog,1,Post,2022_Apr_12_1224,N-Back (New Version 2021),2021.1.4,120.1966417
,,,,,,,,,,,,,,,,,,,,,,,,,,,,,,,,,,,,84.3864202,None,space,4.069498,84.8799681,None,,,,,,,,,,,,,,,,,,,,,,,,,,,,,,,,,,,,,,,,,,,,,,,,,,,,,,,,,,,P033,fencog,1,Post,2022_Apr_12_1224,N-Back (New Version 2021),2021.1.4,120.1966417
,,,,,,,,,,,,,,,,,,,,,,,,,,,,,,,,,,,,,,,,,,88.9952849,None,space,1.3985658,89.4867452,None,,,,,,,,,,,,,,,,,,,,,,,,,,,,,,,,,,,,,,,,,,,,,,,,,,,,,P033,fencog,1,Post,2022_Apr_12_1224,N-Back (New Version 2021),2021.1.4,120.1966417
Conditions/Version_1Pr/zeroback(1)_v1.xlsx,Rule: Press 'space' when you see the letter 'x' or 'X'.,Z,None,,,,,0,0,0,0,0,0,0,0,,,,,,,,,,,,,,,,,,,,,,,,,,,,,,,,,92.4841854,None,95.4859697,None,space,2.3912994,95.4859697,None,92.4841854,None,1.59,97.9154102,None,99.5218095,None,None,1,99.5218095,None,101.5196905,None,,,,,,,,,,,,,,,,,,,,,,,,,,,,,,,,P033,fencog,1,Post,2022_Apr_12_1224,N-Back (New Version 2021),2021.1.4,120.1966417
Conditions/Version_1Pr/zeroback(1)_v1.xlsx,Rule: Press 'space' when you see the letter 'x' or 'X'.,r,None,,,,,0,0,0,0,0,1,1,1,,,,,,,,,,,,,,,,,,,,,,,,,,,,,,,,,,,,,,,,,,,1.24,103.0169478,None,104.260024,None,None,1,104.260024,None,106.2653716,None,,,,,,,,,,,,,,,,,,,,,,,,,,,,,,,,P033,fencog,1,Post,2022_Apr_12_1224,N-Back (New Version 2021),2021.1.4,120.1966417
Conditions/Version_1Pr/zeroback(1)_v1.xlsx,Rule: Press 'space' when you see the letter 'x' or 'X'.,X,space,,,,,0,0,0,0,0,2,2,2,,,,,,,,,,,,,,,,,,,,,,,,,,,,,,,,,,,,,,,,,,,1.415,107.7638377,None,109.1868819,None,space,1,109.1868819,None,109.5422555,None,0.338546,,,,,,,,,,,,,,,,,,,,,,,,,,,,,,,P033,fencog,1,Post,2022_Apr_12_1224,N-Back (New Version 2021),2021.1.4,120.1966417
Conditions/Version_1Pr/zeroback(1)_v1.xlsx,Rule: Press 'space' when you see the letter 'x' or 'X'.,p,None,,,,,0,0,0,0,0,3,3,3,,,,,,,,,,,,,,,,,,,,,,,,,,,,,,,,,,,,,,,,,,,1.89,111.0479504,None,112.9455042,None,None,1,112.9455042,None,114.9450429,None,,,,,,,,,,,,,,,,,,,,,,,,,,,,,,,,P033,fencog,1,Post,2022_Apr_12_1224,N-Back (New Version 2021),2021.1.4,120.1966417
Conditions/Version_1Pr/zeroback(1)_v1.xlsx,Rule: Press 'space' when you see the letter 'x' or 'X'.,w,None,,,,,0,0,0,0,0,4,4,4,,,,,,,,,,,,,,,,,,,,,,,,,,,,,,,,,,,,,,,,,,,1.29,116.444636,None,117.7376563,None,None,1,117.7376563,None,119.7422075,None,,,,,,,,,,,,,,,,,,,,,,,,,,,,,,,,P033,fencog,1,Post,2022_Apr_12_1224,N-Back (New Version 2021),2021.1.4,120.1966417
Conditions/Version_1Pr/zeroback(1)_v1.xlsx,Rule: Press 'space' when you see the letter 'x' or 'X'.,e,None,,,,,0,0,0,0,0,5,5,5,,,,,,,,,,,,,,,,,,,,,,,,,,,,,,,,,,,,,,,,,,,1.965,121.243206,None,123.2135338,None,None,1,123.2135338,None,125.218584,None,,,,,,,,,,,,,,,,,,,,,,,,,,,,,,,,P033,fencog,1,Post,2022_Apr_12_1224,N-Back (New Version 2021),2021.1.4,120.1966417
Conditions/Version_1Pr/zeroback(1)_v1.xlsx,Rule: Press 'space' when you see the letter 'x' or 'X'.,X,space,,,,,0,0,0,0,0,6,6,6,,,,,,,,,,,,,,,,,,,,,,,,,,,,,,,,,,,,,,,,,,,1.115,126.7165368,None,127.8367406,None,space,1,127.8367406,None,128.2277854,None,0.3765595,,,,,,,,,,,,,,,,,,,,,,,,,,,,,,,P033,fencog,1,Post,2022_Apr_12_1224,N-Back (New Version 2021),2021.1.4,120.1966417
Conditions/Version_1Pr/zeroback(1)_v1.xlsx,Rule: Press 'space' when you see the letter 'x' or 'X'.,x,space,,,,,0,0,0,0,0,7,7,7,,,,,,,,,,,,,,,,,,,,,,,,,,,,,,,,,,,,,,,,,,,1.74,129.7341428,None,131.4748122,None,space,1,131.4748122,None,131.9484966,None,0.4587841,,,,,,,,,,,,,,,,,,,,,,,,,,,,,,,P033,fencog,1,Post,2022_Apr_12_1224,N-Back (New Version 2021),2021.1.4,120.1966417
Conditions/Version_1Pr/zeroback(1)_v1.xlsx,Rule: Press 'space' when you see the letter 'x' or 'X'.,p,None,,,,,0,0,0,0,0,8,8,8,,,,,,,,,,,,,,,,,,,,,,,,,,,,,,,,,,,,,,,,,,,1.19,133.449318,None,134.6435114,None,None,1,134.6435114,None,136.6519754,None,,,,,,,,,,,,,,,,,,,,,,,,,,,,,,,,P033,fencog,1,Post,2022_Apr_12_1224,N-Back (New Version 2021),2021.1.4,120.1966417
Conditions/Version_1Pr/zeroback(1)_v1.xlsx,Rule: Press 'space' when you see the letter 'x' or 'X'.,r,None,,,,,0,0,0,0,0,9,9,9,,,,,,,,,,,,,,,,,,,,,,,,,,,,,,,,,,,,,,,,,,,1.64,138.1465716,None,139.7944807,None,None,1,139.7944807,None,141.7997411,None,,,,,,,,,,,,,,,,,,,,,,,,,,,,,,,,P033,fencog,1,Post,2022_Apr_12_1224,N-Back (New Version 2021),2021.1.4,120.1966417
Conditions/Version_1Pr/zeroback(1)_v1.xlsx,Rule: Press 'space' when you see the letter 'x' or 'X'.,,,,,,,0,0,0,0,,,,,,,,,,,,,,,,,,,,,,,,,,,,,,,,,,,,,,,,,,,,,,,,,,,,,,,,,,,,,,,,,,,,,,,,,,,,,,,,,,,,,,,,,P033,fencog,1,Post,2022_Apr_12_1224,N-Back (New Version 2021),2021.1.4,120.1966417
Conditions/Version_1Pr/oneback(1)_v1.xlsx,New rule: Press 'space' when you see 1-back (i.e. the same letter as the one that appeared 1 letter ago.),a,None,,,,,0,1,1,1,0,0,0,0,,,,,,,,,,,,,,,,,,,,,,,,,,,,,,,,,143.3395434,None,146.3246379,None,space,1.3137672,146.3246379,None,143.3395434,None,1.965,147.6696037,None,149.6430894,None,None,1,149.6430894,None,151.6485036,None,,,,,,,,,,,,,,,,,,,,,,,,,,,,,,,,P033,fencog,1,Post,2022_Apr_12_1224,N-Back (New Version 2021),2021.1.4,120.1966417
Conditions/Version_1Pr/oneback(1)_v1.xlsx,New rule: Press 'space' when you see 1-back (i.e. the same letter as the one that appeared 1 letter ago.),x,None,,,,,0,1,1,1,0,1,1,1,,,,,,,,,,,,,,,,,,,,,,,,,,,,,,,,,,,,,,,,,,,1.09,153.1418811,None,154.239375,None,None,1,154.239375,None,156.2383934,None,,,,,,,,,,,,,,,,,,,,,,,,,,,,,,,,P033,fencog,1,Post,2022_Apr_12_1224,N-Back (New Version 2021),2021.1.4,120.1966417
Conditions/Version_1Pr/oneback(1)_v1.xlsx,New rule: Press 'space' when you see 1-back (i.e. the same letter as the one that appeared 1 letter ago.),g,None,,,,,0,1,1,1,0,2,2,2,,,,,,,,,,,,,,,,,,,,,,,,,,,,,,,,,,,,,,,,,,,1.99,157.7408295,None,159.7366288,None,None,1,159.7366288,None,161.7349753,None,,,,,,,,,,,,,,,,,,,,,,,,,,,,,,,,P033,fencog,1,Post,2022_Apr_12_1224,N-Back (New Version 2021),2021.1.4,120.1966417
Conditions/Version_1Pr/oneback(1)_v1.xlsx,New rule: Press 'space' when you see 1-back (i.e. the same letter as the one that appeared 1 letter ago.),G,space,,,,,0,1,1,1,0,3,3,3,,,,,,,,,,,,,,,,,,,,,,,,,,,,,,,,,,,,,,,,,,,1.115,163.2391194,None,164.3634999,None,space,1,164.3634999,None,165.0010486,None,0.6179095,,,,,,,,,,,,,,,,,,,,,,,,,,,,,,,P033,fencog,1,Post,2022_Apr_12_1224,N-Back (New Version 2021),2021.1.4,120.1966417
Conditions/Version_1Pr/oneback(1)_v1.xlsx,New rule: Press 'space' when you see 1-back (i.e. the same letter as the one that appeared 1 letter ago.),u,None,,,,,0,1,1,1,0,4,4,4,,,,,,,,,,,,,,,,,,,,,,,,,,,,,,,,,,,,,,,,,,,1.165,166.5059992,None,167.679786,None,None,1,167.679786,None,169.6790048,None,,,,,,,,,,,,,,,,,,,,,,,,,,,,,,,,P033,fencog,1,Post,2022_Apr_12_1224,N-Back (New Version 2021),2021.1.4,120.1966417
Conditions/Version_1Pr/oneback(1)_v1.xlsx,New rule: Press 'space' when you see 1-back (i.e. the same letter as the one that appeared 1 letter ago.),y,None,,,,,0,1,1,1,0,5,5,5,,,,,,,,,,,,,,,,,,,,,,,,,,,,,,,,,,,,,,,,,,,1.665,171.178353,None,172.8523815,None,None,1,172.8523815,None,174.8559987,None,,,,,,,,,,,,,,,,,,,,,,,,,,,,,,,,P033,fencog,1,Post,2022_Apr_12_1224,N-Back (New Version 2021),2021.1.4,120.1966417
Conditions/Version_1Pr/oneback(1)_v1.xlsx,New rule: Press 'space' when you see 1-back (i.e. the same letter as the one that appeared 1 letter ago.),y,space,,,,,0,1,1,1,0,6,6,6,,,,,,,,,,,,,,,,,,,,,,,,,,,,,,,,,,,,,,,,,,,1.79,176.3522469,None,178.1438548,None,space,1,178.1438548,None,178.6278918,None,0.4694007,,,,,,,,,,,,,,,,,,,,,,,,,,,,,,,P033,fencog,1,Post,2022_Apr_12_1224,N-Back (New Version 2021),2021.1.4,120.1966417
Conditions/Version_1Pr/oneback(1)_v1.xlsx,New rule: Press 'space' when you see 1-back (i.e. the same letter as the one that appeared 1 letter ago.),k,None,,,,,0,1,1,1,0,7,7,7,,,,,,,,,,,,,,,,,,,,,,,,,,,,,,,,,,,,,,,,,,,1.39,180.1353499,None,181.5272938,None,None,1,181.5272938,None,183.5306807,None,,,,,,,,,,,,,,,,,,,,,,,,,,,,,,,,P033,fencog,1,Post,2022_Apr_12_1224,N-Back (New Version 2021),2021.1.4,120.1966417
Conditions/Version_1Pr/oneback(1)_v1.xlsx,New rule: Press 'space' when you see 1-back (i.e. the same letter as the one that appeared 1 letter ago.),c,None,,,,,0,1,1,1,0,8,8,8,,,,,,,,,,,,,,,,,,,,,,,,,,,,,,,,,,,,,,,,,,,1.34,185.0332491,None,186.3786733,None,None,1,186.3786733,None,188.3824578,None,,,,,,,,,,,,,,,,,,,,,,,,,,,,,,,,P033,fencog,1,Post,2022_Apr_12_1224,N-Back (New Version 2021),2021.1.4,120.1966417
Conditions/Version_1Pr/oneback(1)_v1.xlsx,New rule: Press 'space' when you see 1-back (i.e. the same letter as the one that appeared 1 letter ago.),r,None,,,,,0,1,1,1,0,9,9,9,,,,,,,,,,,,,,,,,,,,,,,,,,,,,,,,,,,,,,,,,,,1.59,189.8814995,None,191.4722336,None,None,1,191.4722336,None,193.4759469,None,,,,,,,,,,,,,,,,,,,,,,,,,,,,,,,,P033,fencog,1,Post,2022_Apr_12_1224,N-Back (New Version 2021),2021.1.4,120.1966417
Conditions/Version_1Pr/oneback(1)_v1.xlsx,New rule: Press 'space' when you see 1-back (i.e. the same letter as the one that appeared 1 letter ago.),,,,,,,0,1,1,1,,,,,,,,,,,,,,,,,,,,,,,,,,,,,,,,,,,,,,,,,,,,,,,,,,,,,,,,,,,,,,,,,,,,,,,,,,,,,,,,,,,,,,,,,P033,fencog,1,Post,2022_Apr_12_1224,N-Back (New Version 2021),2021.1.4,120.1966417
Conditions/Version_1Pr/twoback(1)_v1.xlsx,New rule: Press 'space' when you see 2-back (i.e. the same letter as the one that appeared 2 letters ago.),E,None,,,,,0,2,2,2,0,0,0,0,,,,,,,,,,,,,,,,,,,,,,,,,,,,,,,,,195.0175732,None,198.0001544,None,space,1.4530605,198.0001544,None,195.0175732,None,1.04,199.4912552,None,200.5424656,None,None,1,200.5424656,None,202.5448952,None,,,,,,,,,,,,,,,,,,,,,,,,,,,,,,,,P033,fencog,1,Post,2022_Apr_12_1224,N-Back (New Version 2021),2021.1.4,120.1966417
Conditions/Version_1Pr/twoback(1)_v1.xlsx,New rule: Press 'space' when you see 2-back (i.e. the same letter as the one that appeared 2 letters ago.),p,None,,,,,0,2,2,2,0,1,1,1,,,,,,,,,,,,,,,,,,,,,,,,,,,,,,,,,,,,,,,,,,,1.49,204.0438787,None,205.5395853,None,None,1,205.5395853,None,207.5462408,None,,,,,,,,,,,,,,,,,,,,,,,,,,,,,,,,P033,fencog,1,Post,2022_Apr_12_1224,N-Back (New Version 2021),2021.1.4,120.1966417
Conditions/Version_1Pr/twoback(1)_v1.xlsx,New rule: Press 'space' when you see 2-back (i.e. the same letter as the one that appeared 2 letters ago.),e,space,,,,,0,2,2,2,0,2,2,2,,,,,,,,,,,,,,,,,,,,,,,,,,,,,,,,,,,,,,,,,,,1.665,209.0422127,None,210.7142255,None,space,1,210.7142255,None,211.1045884,None,0.3711342,,,,,,,,,,,,,,,,,,,,,,,,,,,,,,,P033,fencog,1,Post,2022_Apr_12_1224,N-Back (New Version 2021),2021.1.4,120.1966417
Conditions/Version_1Pr/twoback(1)_v1.xlsx,New rule: Press 'space' when you see 2-back (i.e. the same letter as the one that appeared 2 letters ago.),s,None,,,,,0,2,2,2,0,3,3,3,,,,,,,,,,,,,,,,,,,,,,,,,,,,,,,,,,,,,,,,,,,1.965,212.6097853,None,214.5785941,None,None,1,214.5785941,None,216.5873474,None,,,,,,,,,,,,,,,,,,,,,,,,,,,,,,,,P033,fencog,1,Post,2022_Apr_12_1224,N-Back (New Version 2021),2021.1.4,120.1966417
Conditions/Version_1Pr/twoback(1)_v1.xlsx,New rule: Press 'space' when you see 2-back (i.e. the same letter as the one that appeared 2 letters ago.),S,None,,,,,0,2,2,2,0,4,4,4,,,,,,,,,,,,,,,,,,,,,,,,,,,,,,,,,,,,,,,,,,,1.69,218.0813116,None,219.7880982,None,None,1,219.7880982,None,221.7815544,None,,,,,,,,,,,,,,,,,,,,,,,,,,,,,,,,P033,fencog,1,Post,2022_Apr_12_1224,N-Back (New Version 2021),2021.1.4,120.1966417
Conditions/Version_1Pr/twoback(1)_v1.xlsx,New rule: Press 'space' when you see 2-back (i.e. the same letter as the one that appeared 2 letters ago.),s,space,,,,,0,2,2,2,0,5,5,5,,,,,,,,,,,,,,,,,,,,,,,,,,,,,,,,,,,,,,,,,,,1.64,223.2799686,None,224.9266108,None,space,1,224.9266108,None,225.3186893,None,0.3746958,,,,,,,,,,,,,,,,,,,,,,,,,,,,,,,P033,fencog,1,Post,2022_Apr_12_1224,N-Back (New Version 2021),2021.1.4,120.1966417
Conditions/Version_1Pr/twoback(1)_v1.xlsx,New rule: Press 'space' when you see 2-back (i.e. the same letter as the one that appeared 2 letters ago.),P,None,,,,,0,2,2,2,0,6,6,6,,,,,,,,,,,,,,,,,,,,,,,,,,,,,,,,,,,,,,,,,,,1.065,226.822355,None,227.8942307,None,None,1,227.8942307,None,229.8930004,None,,,,,,,,,,,,,,,,,,,,,,,,,,,,,,,,P033,fencog,1,Post,2022_Apr_12_1224,N-Back (New Version 2021),2021.1.4,120.1966417
Conditions/Version_1Pr/twoback(1)_v1.xlsx,New rule: Press 'space' when you see 2-back (i.e. the same letter as the one that appeared 2 letters ago.),C,None,,,,,0,2,2,2,0,7,7,7,,,,,,,,,,,,,,,,,,,,,,,,,,,,,,,,,,,,,,,,,,,1.865,231.3940679,None,233.2712075,None,None,1,233.2712075,None,235.2673553,None,,,,,,,,,,,,,,,,,,,,,,,,,,,,,,,,P033,fencog,1,Post,2022_Apr_12_1224,N-Back (New Version 2021),2021.1.4,120.1966417
Conditions/Version_1Pr/twoback(1)_v1.xlsx,New rule: Press 'space' when you see 2-back (i.e. the same letter as the one that appeared 2 letters ago.),x,None,,,,,0,2,2,2,0,8,8,8,,,,,,,,,,,,,,,,,,,,,,,,,,,,,,,,,,,,,,,,,,,1.215,236.7679667,None,237.9879454,None,None,1,237.9879454,None,239.9942915,None,,,,,,,,,,,,,,,,,,,,,,,,,,,,,,,,P033,fencog,1,Post,2022_Apr_12_1224,N-Back (New Version 2021),2021.1.4,120.1966417
Conditions/Version_1Pr/twoback(1)_v1.xlsx,New rule: Press 'space' when you see 2-back (i.e. the same letter as the one that appeared 2 letters ago.),Z,None,,,,,0,2,2,2,0,9,9,9,,,,,,,,,,,,,,,,,,,,,,,,,,,,,,,,,,,,,,,,,,,1.19,241.4912444,None,242.6863025,None,None,1,242.6863025,None,244.6901609,None,,,,,,,,,,,,,,,,,,,,,,,,,,,,,,,,P033,fencog,1,Post,2022_Apr_12_1224,N-Back (New Version 2021),2021.1.4,120.1966417
Conditions/Version_1Pr/twoback(1)_v1.xlsx,New rule: Press 'space' when you see 2-back (i.e. the same letter as the one that appeared 2 letters ago.),,,,,,,0,2,2,2,,,,,,,,,,,,,,,,,,,,,,,,,,,,,,,,,,,,,,,,,,,,,,,,,,,,,,,,,,,,,,,,,,,,,,,,,,,,,,,,,,,,,,,,,P033,fencog,1,Post,2022_Apr_12_1224,N-Back (New Version 2021),2021.1.4,120.1966417
Conditions/Version_1Pr/threeback(1)_v1.xlsx,New rule: Press 'space' when you see 3-back (i.e. the same letter as the one that appeared 3 letters ago.),r,None,,,,,0,3,3,3,0,0,0,0,,,,,,,,,,,,,,,,,,,,,,,,,,,,,,,,,246.2281885,None,249.2116466,None,space,0.505426,249.2116466,None,246.2281885,None,1.84,249.7546798,None,251.5999932,None,None,1,251.5999932,None,253.6059842,None,,,,,,,,,,,,,,,,,,,,,,,,,,,,,,,,P033,fencog,1,Post,2022_Apr_12_1224,N-Back (New Version 2021),2021.1.4,120.1966417
Conditions/Version_1Pr/threeback(1)_v1.xlsx,New rule: Press 'space' when you see 3-back (i.e. the same letter as the one that appeared 3 letters ago.),a,None,,,,,0,3,3,3,0,1,1,1,,,,,,,,,,,,,,,,,,,,,,,,,,,,,,,,,,,,,,,,,,,1.865,255.1037027,None,256.9742657,None,None,1,256.9742657,None,258.977755,None,,,,,,,,,,,,,,,,,,,,,,,,,,,,,,,,P033,fencog,1,Post,2022_Apr_12_1224,N-Back (New Version 2021),2021.1.4,120.1966417
Conditions/Version_1Pr/threeback(1)_v1.xlsx,New rule: Press 'space' when you see 3-back (i.e. the same letter as the one that appeared 3 letters ago.),t,None,,,,,0,3,3,3,0,2,2,2,,,,,,,,,,,,,,,,,,,,,,,,,,,,,,,,,,,,,,,,,,,1.315,260.4772782,None,261.7995516,None,None,1,261.7995516,None,263.7988519,None,,,,,,,,,,,,,,,,,,,,,,,,,,,,,,,,P033,fencog,1,Post,2022_Apr_12_1224,N-Back (New Version 2021),2021.1.4,120.1966417
Conditions/Version_1Pr/threeback(1)_v1.xlsx,New rule: Press 'space' when you see 3-back (i.e. the same letter as the one that appeared 3 letters ago.),r,space,,,,,0,3,3,3,0,3,3,3,,,,,,,,,,,,,,,,,,,,,,,,,,,,,,,,,,,,,,,,,,,1.04,265.3007427,None,266.345779,None,space,1,266.345779,None,266.774785,None,0.4114795,,,,,,,,,,,,,,,,,,,,,,,,,,,,,,,P033,fencog,1,Post,2022_Apr_12_1224,N-Back (New Version 2021),2021.1.4,120.1966417
Conditions/Version_1Pr/threeback(1)_v1.xlsx,New rule: Press 'space' when you see 3-back (i.e. the same letter as the one that appeared 3 letters ago.),a,None,,,,,0,3,3,3,0,4,4,4,,,,,,,,,,,,,,,,,,,,,,,,,,,,,,,,,,,,,,,,,,,1.815,268.2765222,None,270.093878,None,space,0,270.093878,None,270.71811,None,0.5992819,,,,,,,,,,,,,,,,,,,,,,,,,,,,,,,P033,fencog,1,Post,2022_Apr_12_1224,N-Back (New Version 2021),2021.1.4,120.1966417
Conditions/Version_1Pr/threeback(1)_v1.xlsx,New rule: Press 'space' when you see 3-back (i.e. the same letter as the one that appeared 3 letters ago.),Y,None,,,,,0,3,3,3,0,5,5,5,,,,,,,,,,,,,,,,,,,,,,,,,,,,,,,,,,,,,,,,,,,1.415,272.2261735,None,273.6543259,None,None,1,273.6543259,None,275.6657252,None,,,,,,,,,,,,,,,,,,,,,,,,,,,,,,,,P033,fencog,1,Post,2022_Apr_12_1224,N-Back (New Version 2021),2021.1.4,120.1966417
Conditions/Version_1Pr/threeback(1)_v1.xlsx,New rule: Press 'space' when you see 3-back (i.e. the same letter as the one that appeared 3 letters ago.),q,None,,,,,0,3,3,3,0,6,6,6,,,,,,,,,,,,,,,,,,,,,,,,,,,,,,,,,,,,,,,,,,,1.49,277.1569618,None,278.656879,None,None,1,278.656879,None,280.6508622,None,,,,,,,,,,,,,,,,,,,,,,,,,,,,,,,,P033,fencog,1,Post,2022_Apr_12_1224,N-Back (New Version 2021),2021.1.4,120.1966417
Conditions/Version_1Pr/threeback(1)_v1.xlsx,New rule: Press 'space' when you see 3-back (i.e. the same letter as the one that appeared 3 letters ago.),A,space,,,,,0,3,3,3,0,7,7,7,,,,,,,,,,,,,,,,,,,,,,,,,,,,,,,,,,,,,,,,,,,1.34,282.1540187,None,283.4980087,None,space,1,283.4980087,None,284.0162811,None,0.5071427,,,,,,,,,,,,,,,,,,,,,,,,,,,,,,,P033,fencog,1,Post,2022_Apr_12_1224,N-Back (New Version 2021),2021.1.4,120.1966417
Conditions/Version_1Pr/threeback(1)_v1.xlsx,New rule: Press 'space' when you see 3-back (i.e. the same letter as the one that appeared 3 letters ago.),y,None,,,,,0,3,3,3,0,8,8,8,,,,,,,,,,,,,,,,,,,,,,,,,,,,,,,,,,,,,,,,,,,1.465,285.5197977,None,286.9901569,None,space,0,286.9901569,None,287.4131482,None,0.3990925,,,,,,,,,,,,,,,,,,,,,,,,,,,,,,,P033,fencog,1,Post,2022_Apr_12_1224,N-Back (New Version 2021),2021.1.4,120.1966417
Conditions/Version_1Pr/threeback(1)_v1.xlsx,New rule: Press 'space' when you see 3-back (i.e. the same letter as the one that appeared 3 letters ago.),r,None,,,,,0,3,3,3,0,9,9,9,,,,,,,,,,,,,,,,,,,,,,,,,,,,,,,,,,,,,,,,,,,1.39,288.9215467,None,290.3224631,None,None,1,290.3224631,None,292.3295623,None,,,,,,,,,,,,,,,,,,,,,,,,,,,,,,,,P033,fencog,1,Post,2022_Apr_12_1224,N-Back (New Version 2021),2021.1.4,120.1966417
Conditions/Version_1Pr/threeback(1)_v1.xlsx,New rule: Press 'space' when you see 3-back (i.e. the same letter as the one that appeared 3 letters ago.),,,,,,,0,3,3,3,,,,,,,,,,,,,,,,,,,,,,,,,,,,,,,,,,,,,,,,,,,,,,,,,,,,,,,,,,,,,,,,,,,,,,,,,,,,,,,,,,,,,,,,,P033,fencog,1,Post,2022_Apr_12_1224,N-Back (New Version 2021),2021.1.4,120.1966417
,,,,,,,,,,,,,,,,,,,,,,,,,,,,,,,,,,,,,,,,,,,,,,,,,,,,,,,,,,,,,,,,,,,,,,293.8449659,None,space,1.1909556,294.3342657,None,,,,,,,,,,,,,,,,,,,,,,,,,P033,fencog,1,Post,2022_Apr_12_1224,N-Back (New Version 2021),2021.1.4,120.1966417
,,,,,,,,,,,,,,,,,,,,,,,,,,,,,,,,,,,,,,,,,,,,,,,,,,,,,,,,,,,,,,,,,,,,,,,,,,,,295.5616299,None,space,8.8424863,296.0588953,None,,,,,,,,,,,,,,,,,,,P033,fencog,1,Post,2022_Apr_12_1224,N-Back (New Version 2021),2021.1.4,120.1966417
,,,,Conditions/Version_1/zeroback(1)_v1.xlsx,Rule: Press 'space' when you see the letter 'x' or 'X'.,b,None,,,,,,,,,0,0,0,0,0,0,0,0,,,,,,,,,,,,,,,,,,,,,,,,,,,,,,,,,,,,,,,,,,,,,,,,,,,,,,,,,,,305.0432466,None,308.0242941,None,space,0.4529591,308.0242941,None,305.0432466,None,1.63,310.1530312,None,None,1,310.1530312,None,,P033,fencog,1,Post,2022_Apr_12_1224,N-Back (New Version 2021),2021.1.4,120.1966417
,,,,Conditions/Version_1/zeroback(1)_v1.xlsx,Rule: Press 'space' when you see the letter 'x' or 'X'.,T,None,,,,,,,,,0,0,0,0,0,1,1,1,,,,,,,,,,,,,,,,,,,,,,,,,,,,,,,,,,,,,,,,,,,,,,,,,,,,,,,,,,,,,,,,,,,,,1.9958,314.1607688,None,None,1,314.1607688,None,,P033,fencog,1,Post,2022_Apr_12_1224,N-Back (New Version 2021),2021.1.4,120.1966417
,,,,Conditions/Version_1/zeroback(1)_v1.xlsx,Rule: Press 'space' when you see the letter 'x' or 'X'.,L,None,,,,,,,,,0,0,0,0,0,2,2,2,,,,,,,,,,,,,,,,,,,,,,,,,,,,,,,,,,,,,,,,,,,,,,,,,,,,,,,,,,,,,,,,,,,,,1.3076,317.4753456,None,None,1,317.4753456,None,,P033,fencog,1,Post,2022_Apr_12_1224,N-Back (New Version 2021),2021.1.4,120.1966417
,,,,Conditions/Version_1/zeroback(1)_v1.xlsx,Rule: Press 'space' when you see the letter 'x' or 'X'.,x,space,,,,,,,,,0,0,0,0,0,3,3,3,,,,,,,,,,,,,,,,,,,,,,,,,,,,,,,,,,,,,,,,,,,,,,,,,,,,,,,,,,,,,,,,,,,,,1.1588,320.6407869,None,space,1,320.6407869,None,0.4443523,P033,fencog,1,Post,2022_Apr_12_1224,N-Back (New Version 2021),2021.1.4,120.1966417
,,,,Conditions/Version_1/zeroback(1)_v1.xlsx,Rule: Press 'space' when you see the letter 'x' or 'X'.,o,None,,,,,,,,,0,0,0,0,0,4,4,4,,,,,,,,,,,,,,,,,,,,,,,,,,,,,,,,,,,,,,,,,,,,,,,,,,,,,,,,,,,,,,,,,,,,,1.2704,323.9140112,None,None,1,323.9140112,None,,P033,fencog,1,Post,2022_Apr_12_1224,N-Back (New Version 2021),2021.1.4,120.1966417
,,,,Conditions/Version_1/zeroback(1)_v1.xlsx,Rule: Press 'space' when you see the letter 'x' or 'X'.,P,None,,,,,,,,,0,0,0,0,0,5,5,5,,,,,,,,,,,,,,,,,,,,,,,,,,,,,,,,,,,,,,,,,,,,,,,,,,,,,,,,,,,,,,,,,,,,,1.444,327.3632975,None,None,1,327.3632975,None,,P033,fencog,1,Post,2022_Apr_12_1224,N-Back (New Version 2021),2021.1.4,120.1966417
,,,,Conditions/Version_1/zeroback(1)_v1.xlsx,Rule: Press 'space' when you see the letter 'x' or 'X'.,X,space,,,,,,,,,0,0,0,0,0,6,6,6,,,,,,,,,,,,,,,,,,,,,,,,,,,,,,,,,,,,,,,,,,,,,,,,,,,,,,,,,,,,,,,,,,,,,1.8346,331.2124926,None,space,1,331.2124926,None,0.2727936,P033,fencog,1,Post,2022_Apr_12_1224,N-Back (New Version 2021),2021.1.4,120.1966417
,,,,Conditions/Version_1/zeroback(1)_v1.xlsx,Rule: Press 'space' when you see the letter 'x' or 'X'.,n,None,,,,,,,,,0,0,0,0,0,7,7,7,,,,,,,,,,,,,,,,,,,,,,,,,,,,,,,,,,,,,,,,,,,,,,,,,,,,,,,,,,,,,,,,,,,,,1.6424,334.8707862,None,None,1,334.8707862,None,,P033,fencog,1,Post,2022_Apr_12_1224,N-Back (New Version 2021),2021.1.4,120.1966417
,,,,Conditions/Version_1/zeroback(1)_v1.xlsx,Rule: Press 'space' when you see the letter 'x' or 'X'.,M,None,,,,,,,,,0,0,0,0,0,8,8,8,,,,,,,,,,,,,,,,,,,,,,,,,,,,,,,,,,,,,,,,,,,,,,,,,,,,,,,,,,,,,,,,,,,,,1.7912,338.6733582,None,None,1,338.6733582,None,,P033,fencog,1,Post,2022_Apr_12_1224,N-Back (New Version 2021),2021.1.4,120.1966417
,,,,Conditions/Version_1/zeroback(1)_v1.xlsx,Rule: Press 'space' when you see the letter 'x' or 'X'.,a,None,,,,,,,,,0,0,0,0,0,9,9,9,,,,,,,,,,,,,,,,,,,,,,,,,,,,,,,,,,,,,,,,,,,,,,,,,,,,,,,,,,,,,,,,,,,,,1.5246,342.1981353,None,None,1,342.1981353,None,,P033,fencog,1,Post,2022_Apr_12_1224,N-Back (New Version 2021),2021.1.4,120.1966417
,,,,Conditions/Version_1/zeroback(1)_v1.xlsx,Rule: Press 'space' when you see the letter 'x' or 'X'.,,,,,,,,,,,0,0,0,0,,,,,,,,,,,,,,,,,,,,,,,,,,,,,,,,,,,,,,,,,,,,,,,,,,,,,,,,,,,,,,,,,,,,,,,,,,,,,,,,,P033,fencog,1,Post,2022_Apr_12_1224,N-Back (New Version 2021),2021.1.4,120.1966417
,,,,Conditions/Version_1/oneback(1)_v1.xlsx,New rule: Press 'space' when you see 1-back (i.e. the same letter as the one that appeared 1 letter ago.),b,None,,,,,,,,,0,1,1,1,0,0,0,0,,,,,,,,,,,,,,,,,,,,,,,,,,,,,,,,,,,,,,,,,,,,,,,,,,,,,,,,,,,344.2355507,None,347.222328,None,space,1.6947427,347.222328,None,344.2355507,None,1.5866,350.5475645,None,None,1,350.5475645,None,,P033,fencog,1,Post,2022_Apr_12_1224,N-Back (New Version 2021),2021.1.4,120.1966417
,,,,Conditions/Version_1/oneback(1)_v1.xlsx,New rule: Press 'space' when you see 1-back (i.e. the same letter as the one that appeared 1 letter ago.),p,None,,,,,,,,,0,1,1,1,0,1,1,1,,,,,,,,,,,,,,,,,,,,,,,,,,,,,,,,,,,,,,,,,,,,,,,,,,,,,,,,,,,,,,,,,,,,,1.2332,353.797113,None,None,1,353.797113,None,,P033,fencog,1,Post,2022_Apr_12_1224,N-Back (New Version 2021),2021.1.4,120.1966417
,,,,Conditions/Version_1/oneback(1)_v1.xlsx,New rule: Press 'space' when you see 1-back (i.e. the same letter as the one that appeared 1 letter ago.),M,None,,,,,,,,,0,1,1,1,0,2,2,2,,,,,,,,,,,,,,,,,,,,,,,,,,,,,,,,,,,,,,,,,,,,,,,,,,,,,,,,,,,,,,,,,,,,,1.1278,356.9396175,None,None,1,356.9396175,None,,P033,fencog,1,Post,2022_Apr_12_1224,N-Back (New Version 2021),2021.1.4,120.1966417
,,,,Conditions/Version_1/oneback(1)_v1.xlsx,New rule: Press 'space' when you see 1-back (i.e. the same letter as the one that appeared 1 letter ago.),M,space,,,,,,,,,0,1,1,1,0,3,3,3,,,,,,,,,,,,,,,,,,,,,,,,,,,,,,,,,,,,,,,,,,,,,,,,,,,,,,,,,,,,,,,,,,,,,1.01,359.9576019,None,space,1,359.9576019,None,0.463655,P033,fencog,1,Post,2022_Apr_12_1224,N-Back (New Version 2021),2021.1.4,120.1966417
,,,,Conditions/Version_1/oneback(1)_v1.xlsx,New rule: Press 'space' when you see 1-back (i.e. the same letter as the one that appeared 1 letter ago.),n,None,,,,,,,,,0,1,1,1,0,4,4,4,,,,,,,,,,,,,,,,,,,,,,,,,,,,,,,,,,,,,,,,,,,,,,,,,,,,,,,,,,,,,,,,,,,,,1.4006,363.3673128,None,None,1,363.3673128,None,,P033,fencog,1,Post,2022_Apr_12_1224,N-Back (New Version 2021),2021.1.4,120.1966417
,,,,Conditions/Version_1/oneback(1)_v1.xlsx,New rule: Press 'space' when you see 1-back (i.e. the same letter as the one that appeared 1 letter ago.),g,None,,,,,,,,,0,1,1,1,0,5,5,5,,,,,,,,,,,,,,,,,,,,,,,,,,,,,,,,,,,,,,,,,,,,,,,,,,,,,,,,,,,,,,,,,,,,,1.7788,367.1600159,None,None,1,367.1600159,None,,P033,fencog,1,Post,2022_Apr_12_1224,N-Back (New Version 2021),2021.1.4,120.1966417
,,,,Conditions/Version_1/oneback(1)_v1.xlsx,New rule: Press 'space' when you see 1-back (i.e. the same letter as the one that appeared 1 letter ago.),P,None,,,,,,,,,0,1,1,1,0,6,6,6,,,,,,,,,,,,,,,,,,,,,,,,,,,,,,,,,,,,,,,,,,,,,,,,,,,,,,,,,,,,,,,,,,,,,1.8098,370.9738224,None,None,1,370.9738224,None,,P033,fencog,1,Post,2022_Apr_12_1224,N-Back (New Version 2021),2021.1.4,120.1966417
,,,,Conditions/Version_1/oneback(1)_v1.xlsx,New rule: Press 'space' when you see 1-back (i.e. the same letter as the one that appeared 1 letter ago.),o,None,,,,,,,,,0,1,1,1,0,7,7,7,,,,,,,,,,,,,,,,,,,,,,,,,,,,,,,,,,,,,,,,,,,,,,,,,,,,,,,,,,,,,,,,,,,,,1.2642,374.2595027,None,None,1,374.2595027,None,,P033,fencog,1,Post,2022_Apr_12_1224,N-Back (New Version 2021),2021.1.4,120.1966417
,,,,Conditions/Version_1/oneback(1)_v1.xlsx,New rule: Press 'space' when you see 1-back (i.e. the same letter as the one that appeared 1 letter ago.),f,None,,,,,,,,,0,1,1,1,0,8,8,8,,,,,,,,,,,,,,,,,,,,,,,,,,,,,,,,,,,,,,,,,,,,,,,,,,,,,,,,,,,,,,,,,,,,,1.9896,378.2585955,None,None,1,378.2585955,None,,P033,fencog,1,Post,2022_Apr_12_1224,N-Back (New Version 2021),2021.1.4,120.1966417
,,,,Conditions/Version_1/oneback(1)_v1.xlsx,New rule: Press 'space' when you see 1-back (i.e. the same letter as the one that appeared 1 letter ago.),F,space,,,,,,,,,0,1,1,1,0,9,9,9,,,,,,,,,,,,,,,,,,,,,,,,,,,,,,,,,,,,,,,,,,,,,,,,,,,,,,,,,,,,,,,,,,,,,1.9586,382.2279902,None,space,1,382.2279902,None,0.4573037,P033,fencog,1,Post,2022_Apr_12_1224,N-Back (New Version 2021),2021.1.4,120.1966417
,,,,Conditions/Version_1/oneback(1)_v1.xlsx,New rule: Press 'space' when you see 1-back (i.e. the same letter as the one that appeared 1 letter ago.),,,,,,,,,,,0,1,1,1,,,,,,,,,,,,,,,,,,,,,,,,,,,,,,,,,,,,,,,,,,,,,,,,,,,,,,,,,,,,,,,,,,,,,,,,,,,,,,,,,P033,fencog,1,Post,2022_Apr_12_1224,N-Back (New Version 2021),2021.1.4,120.1966417
,,,,Conditions/Version_1/twoback(1)_v1.xlsx,New rule: Press 'space' when you see 2-back (i.e. the same letter as the one that appeared 2 letters ago.),b,None,,,,,,,,,0,2,2,2,0,0,0,0,,,,,,,,,,,,,,,,,,,,,,,,,,,,,,,,,,,,,,,,,,,,,,,,,,,,,,,,,,,384.2723193,None,387.2530967,None,space,0.9521382,387.2530967,None,384.2723193,None,1.9462,390.2012517,None,None,1,390.2012517,None,,P033,fencog,1,Post,2022_Apr_12_1224,N-Back (New Version 2021),2021.1.4,120.1966417
,,,,Conditions/Version_1/twoback(1)_v1.xlsx,New rule: Press 'space' when you see 2-back (i.e. the same letter as the one that appeared 2 letters ago.),h,None,,,,,,,,,0,2,2,2,0,1,1,1,,,,,,,,,,,,,,,,,,,,,,,,,,,,,,,,,,,,,,,,,,,,,,,,,,,,,,,,,,,,,,,,,,,,,1.599,393.8150791,None,None,1,393.8150791,None,,P033,fencog,1,Post,2022_Apr_12_1224,N-Back (New Version 2021),2021.1.4,120.1966417
,,,,Conditions/Version_1/twoback(1)_v1.xlsx,New rule: Press 'space' when you see 2-back (i.e. the same letter as the one that appeared 2 letters ago.),j,None,,,,,,,,,0,2,2,2,0,2,2,2,,,,,,,,,,,,,,,,,,,,,,,,,,,,,,,,,,,,,,,,,,,,,,,,,,,,,,,,,,,,,,,,,,,,,1.9276,397.7629105,None,None,1,397.7629105,None,,P033,fencog,1,Post,2022_Apr_12_1224,N-Back (New Version 2021),2021.1.4,120.1966417
,,,,Conditions/Version_1/twoback(1)_v1.xlsx,New rule: Press 'space' when you see 2-back (i.e. the same letter as the one that appeared 2 letters ago.),H,space,,,,,,,,,0,2,2,2,0,3,3,3,,,,,,,,,,,,,,,,,,,,,,,,,,,,,,,,,,,,,,,,,,,,,,,,,,,,,,,,,,,,,,,,,,,,,1.4874,401.2552691,None,space,1,401.2552691,None,0.3178832,P033,fencog,1,Post,2022_Apr_12_1224,N-Back (New Version 2021),2021.1.4,120.1966417
,,,,Conditions/Version_1/twoback(1)_v1.xlsx,New rule: Press 'space' when you see 2-back (i.e. the same letter as the one that appeared 2 letters ago.),p,None,,,,,,,,,0,2,2,2,0,4,4,4,,,,,,,,,,,,,,,,,,,,,,,,,,,,,,,,,,,,,,,,,,,,,,,,,,,,,,,,,,,,,,,,,,,,,1.0782,404.3475593,None,None,1,404.3475593,None,,P033,fencog,1,Post,2022_Apr_12_1224,N-Back (New Version 2021),2021.1.4,120.1966417
,,,,Conditions/Version_1/twoback(1)_v1.xlsx,New rule: Press 'space' when you see 2-back (i.e. the same letter as the one that appeared 2 letters ago.),p,None,,,,,,,,,0,2,2,2,0,5,5,5,,,,,,,,,,,,,,,,,,,,,,,,,,,,,,,,,,,,,,,,,,,,,,,,,,,,,,,,,,,,,,,,,,,,,1.6176,407.9765618,None,space,0,407.9765618,None,0.5487828,P033,fencog,1,Post,2022_Apr_12_1224,N-Back (New Version 2021),2021.1.4,120.1966417
,,,,Conditions/Version_1/twoback(1)_v1.xlsx,New rule: Press 'space' when you see 2-back (i.e. the same letter as the one that appeared 2 letters ago.),w,None,,,,,,,,,0,2,2,2,0,6,6,6,,,,,,,,,,,,,,,,,,,,,,,,,,,,,,,,,,,,,,,,,,,,,,,,,,,,,,,,,,,,,,,,,,,,,1.3758,411.3603868,None,None,1,411.3603868,None,,P033,fencog,1,Post,2022_Apr_12_1224,N-Back (New Version 2021),2021.1.4,120.1966417
,,,,Conditions/Version_1/twoback(1)_v1.xlsx,New rule: Press 'space' when you see 2-back (i.e. the same letter as the one that appeared 2 letters ago.),R,None,,,,,,,,,0,2,2,2,0,7,7,7,,,,,,,,,,,,,,,,,,,,,,,,,,,,,,,,,,,,,,,,,,,,,,,,,,,,,,,,,,,,,,,,,,,,,1.5184,414.90054,None,None,1,414.90054,None,,P033,fencog,1,Post,2022_Apr_12_1224,N-Back (New Version 2021),2021.1.4,120.1966417
,,,,Conditions/Version_1/twoback(1)_v1.xlsx,New rule: Press 'space' when you see 2-back (i.e. the same letter as the one that appeared 2 letters ago.),a,None,,,,,,,,,0,2,2,2,0,8,8,8,,,,,,,,,,,,,,,,,,,,,,,,,,,,,,,,,,,,,,,,,,,,,,,,,,,,,,,,,,,,,,,,,,,,,1.692,418.5934809,None,None,1,418.5934809,None,,P033,fencog,1,Post,2022_Apr_12_1224,N-Back (New Version 2021),2021.1.4,120.1966417
,,,,Conditions/Version_1/twoback(1)_v1.xlsx,New rule: Press 'space' when you see 2-back (i.e. the same letter as the one that appeared 2 letters ago.),r,space,,,,,,,,,0,2,2,2,0,9,9,9,,,,,,,,,,,,,,,,,,,,,,,,,,,,,,,,,,,,,,,,,,,,,,,,,,,,,,,,,,,,,,,,,,,,,1.475,422.0854628,None,space,1,422.0854628,None,0.3761391,P033,fencog,1,Post,2022_Apr_12_1224,N-Back (New Version 2021),2021.1.4,120.1966417
,,,,Conditions/Version_1/twoback(1)_v1.xlsx,New rule: Press 'space' when you see 2-back (i.e. the same letter as the one that appeared 2 letters ago.),,,,,,,,,,,0,2,2,2,,,,,,,,,,,,,,,,,,,,,,,,,,,,,,,,,,,,,,,,,,,,,,,,,,,,,,,,,,,,,,,,,,,,,,,,,,,,,,,,,P033,fencog,1,Post,2022_Apr_12_1224,N-Back (New Version 2021),2021.1.4,120.1966417
,,,,Conditions/Version_1/threeback(1)_v1.xlsx,New rule: Press 'space' when you see 3-back (i.e. the same letter as the one that appeared 3 letters ago.),r,None,,,,,,,,,0,3,3,3,0,0,0,0,,,,,,,,,,,,,,,,,,,,,,,,,,,,,,,,,,,,,,,,,,,,,,,,,,,,,,,,,,,424.118752,None,427.1021512,None,space,0.6548986,427.1021512,None,424.118752,None,1.258,429.0537652,None,None,1,429.0537652,None,,P033,fencog,1,Post,2022_Apr_12_1224,N-Back (New Version 2021),2021.1.4,120.1966417
,,,,Conditions/Version_1/threeback(1)_v1.xlsx,New rule: Press 'space' when you see 3-back (i.e. the same letter as the one that appeared 3 letters ago.),o,None,,,,,,,,,0,3,3,3,0,1,1,1,,,,,,,,,,,,,,,,,,,,,,,,,,,,,,,,,,,,,,,,,,,,,,,,,,,,,,,,,,,,,,,,,,,,,1.4564,432.5215022,None,None,1,432.5215022,None,,P033,fencog,1,Post,2022_Apr_12_1224,N-Back (New Version 2021),2021.1.4,120.1966417
,,,,Conditions/Version_1/threeback(1)_v1.xlsx,New rule: Press 'space' when you see 3-back (i.e. the same letter as the one that appeared 3 letters ago.),P,None,,,,,,,,,0,3,3,3,0,2,2,2,,,,,,,,,,,,,,,,,,,,,,,,,,,,,,,,,,,,,,,,,,,,,,,,,,,,,,,,,,,,,,,,,,,,,1.7726,436.3060272,None,None,1,436.3060272,None,,P033,fencog,1,Post,2022_Apr_12_1224,N-Back (New Version 2021),2021.1.4,120.1966417
,,,,Conditions/Version_1/threeback(1)_v1.xlsx,New rule: Press 'space' when you see 3-back (i.e. the same letter as the one that appeared 3 letters ago.),R,space,,,,,,,,,0,3,3,3,0,3,3,3,,,,,,,,,,,,,,,,,,,,,,,,,,,,,,,,,,,,,,,,,,,,,,,,,,,,,,,,,,,,,,,,,,,,,1.3262,439.6470702,None,space,1,439.6470702,None,0.4059483,P033,fencog,1,Post,2022_Apr_12_1224,N-Back (New Version 2021),2021.1.4,120.1966417
,,,,Conditions/Version_1/threeback(1)_v1.xlsx,New rule: Press 'space' when you see 3-back (i.e. the same letter as the one that appeared 3 letters ago.),p,None,,,,,,,,,0,3,3,3,0,4,4,4,,,,,,,,,,,,,,,,,,,,,,,,,,,,,,,,,,,,,,,,,,,,,,,,,,,,,,,,,,,,,,,,,,,,,1.9524,443.6105379,None,None,1,443.6105379,None,,P033,fencog,1,Post,2022_Apr_12_1224,N-Back (New Version 2021),2021.1.4,120.1966417
,,,,Conditions/Version_1/threeback(1)_v1.xlsx,New rule: Press 'space' when you see 3-back (i.e. the same letter as the one that appeared 3 letters ago.),E,None,,,,,,,,,0,3,3,3,0,5,5,5,,,,,,,,,,,,,,,,,,,,,,,,,,,,,,,,,,,,,,,,,,,,,,,,,,,,,,,,,,,,,,,,,,,,,1.5618,447.1847805,None,None,1,447.1847805,None,,P033,fencog,1,Post,2022_Apr_12_1224,N-Back (New Version 2021),2021.1.4,120.1966417
,,,,Conditions/Version_1/threeback(1)_v1.xlsx,New rule: Press 'space' when you see 3-back (i.e. the same letter as the one that appeared 3 letters ago.),e,None,,,,,,,,,0,3,3,3,0,6,6,6,,,,,,,,,,,,,,,,,,,,,,,,,,,,,,,,,,,,,,,,,,,,,,,,,,,,,,,,,,,,,,,,,,,,,1.9338,451.1360185,None,None,1,451.1360185,None,,P033,fencog,1,Post,2022_Apr_12_1224,N-Back (New Version 2021),2021.1.4,120.1966417
,,,,Conditions/Version_1/threeback(1)_v1.xlsx,New rule: Press 'space' when you see 3-back (i.e. the same letter as the one that appeared 3 letters ago.),m,None,,,,,,,,,0,3,3,3,0,7,7,7,,,,,,,,,,,,,,,,,,,,,,,,,,,,,,,,,,,,,,,,,,,,,,,,,,,,,,,,,,,,,,,,,,,,,1.8842,455.0344576,None,None,1,455.0344576,None,,P033,fencog,1,Post,2022_Apr_12_1224,N-Back (New Version 2021),2021.1.4,120.1966417
,,,,Conditions/Version_1/threeback(1)_v1.xlsx,New rule: Press 'space' when you see 3-back (i.e. the same letter as the one that appeared 3 letters ago.),n,None,,,,,,,,,0,3,3,3,0,8,8,8,,,,,,,,,,,,,,,,,,,,,,,,,,,,,,,,,,,,,,,,,,,,,,,,,,,,,,,,,,,,,,,,,,,,,1.9648,459.0073536,None,None,1,459.0073536,None,,P033,fencog,1,Post,2022_Apr_12_1224,N-Back (New Version 2021),2021.1.4,120.1966417
,,,,Conditions/Version_1/threeback(1)_v1.xlsx,New rule: Press 'space' when you see 3-back (i.e. the same letter as the one that appeared 3 letters ago.),e,space,,,,,,,,,0,3,3,3,0,9,9,9,,,,,,,,,,,,,,,,,,,,,,,,,,,,,,,,,,,,,,,,,,,,,,,,,,,,,,,,,,,,,,,,,,,,,1.9152,462.9293804,None,space,1,462.9293804,None,0.6758189,P033,fencog,1,Post,2022_Apr_12_1224,N-Back (New Version 2021),2021.1.4,120.1966417
,,,,Conditions/Version_1/threeback(1)_v1.xlsx,New rule: Press 'space' when you see 3-back (i.e. the same letter as the one that appeared 3 letters ago.),,,,,,,,,,,0,3,3,3,,,,,,,,,,,,,,,,,,,,,,,,,,,,,,,,,,,,,,,,,,,,,,,,,,,,,,,,,,,,,,,,,,,,,,,,,,,,,,,,,P033,fencog,1,Post,2022_Apr_12_1224,N-Back (New Version 2021),2021.1.4,120.1966417
,,,,Conditions/Version_1/oneback(2)_v1.xlsx,New rule: Press 'space' when you see 1-back (i.e. the same letter as the one that appeared 1 letter ago.),q,None,,,,,,,,,0,4,4,4,0,0,0,0,,,,,,,,,,,,,,,,,,,,,,,,,,,,,,,,,,,,,,,,,,,,,,,,,,,,,,,,,,,464.9747323,None,467.961394,None,space,0.4356893,467.961394,None,464.9747323,None,1.1092,469.5526215,None,None,1,469.5526215,None,,P033,fencog,1,Post,2022_Apr_12_1224,N-Back (New Version 2021),2021.1.4,120.1966417
,,,,Conditions/Version_1/oneback(2)_v1.xlsx,New rule: Press 'space' when you see 1-back (i.e. the same letter as the one that appeared 1 letter ago.),Q,space,,,,,,,,,0,4,4,4,0,1,1,1,,,,,,,,,,,,,,,,,,,,,,,,,,,,,,,,,,,,,,,,,,,,,,,,,,,,,,,,,,,,,,,,,,,,,1.878,473.4524452,None,space,1,473.4524452,None,0.3846717,P033,fencog,1,Post,2022_Apr_12_1224,N-Back (New Version 2021),2021.1.4,120.1966417
,,,,Conditions/Version_1/oneback(2)_v1.xlsx,New rule: Press 'space' when you see 1-back (i.e. the same letter as the one that appeared 1 letter ago.),P,None,,,,,,,,,0,4,4,4,0,2,2,2,,,,,,,,,,,,,,,,,,,,,,,,,,,,,,,,,,,,,,,,,,,,,,,,,,,,,,,,,,,,,,,,,,,,,1.9524,477.4090525,None,None,1,477.4090525,None,,P033,fencog,1,Post,2022_Apr_12_1224,N-Back (New Version 2021),2021.1.4,120.1966417
,,,,Conditions/Version_1/oneback(2)_v1.xlsx,New rule: Press 'space' when you see 1-back (i.e. the same letter as the one that appeared 1 letter ago.),o,None,,,,,,,,,0,4,4,4,0,3,3,3,,,,,,,,,,,,,,,,,,,,,,,,,,,,,,,,,,,,,,,,,,,,,,,,,,,,,,,,,,,,,,,,,,,,,1.785,481.2077233,None,space,0,481.2077233,None,0.3733067,P033,fencog,1,Post,2022_Apr_12_1224,N-Back (New Version 2021),2021.1.4,120.1966417
,,,,Conditions/Version_1/oneback(2)_v1.xlsx,New rule: Press 'space' when you see 1-back (i.e. the same letter as the one that appeared 1 letter ago.),m,None,,,,,,,,,0,4,4,4,0,4,4,4,,,,,,,,,,,,,,,,,,,,,,,,,,,,,,,,,,,,,,,,,,,,,,,,,,,,,,,,,,,,,,,,,,,,,1.3386,484.5569282,None,None,1,484.5569282,None,,P033,fencog,1,Post,2022_Apr_12_1224,N-Back (New Version 2021),2021.1.4,120.1966417
,,,,Conditions/Version_1/oneback(2)_v1.xlsx,New rule: Press 'space' when you see 1-back (i.e. the same letter as the one that appeared 1 letter ago.),Z,None,,,,,,,,,0,4,4,4,0,5,5,5,,,,,,,,,,,,,,,,,,,,,,,,,,,,,,,,,,,,,,,,,,,,,,,,,,,,,,,,,,,,,,,,,,,,,1.94,488.5042244,None,None,1,488.5042244,None,,P033,fencog,1,Post,2022_Apr_12_1224,N-Back (New Version 2021),2021.1.4,120.1966417
,,,,Conditions/Version_1/oneback(2)_v1.xlsx,New rule: Press 'space' when you see 1-back (i.e. the same letter as the one that appeared 1 letter ago.),c,None,,,,,,,,,0,4,4,4,0,6,6,6,,,,,,,,,,,,,,,,,,,,,,,,,,,,,,,,,,,,,,,,,,,,,,,,,,,,,,,,,,,,,,,,,,,,,1.3262,491.843316,None,None,1,491.843316,None,,P033,fencog,1,Post,2022_Apr_12_1224,N-Back (New Version 2021),2021.1.4,120.1966417
,,,,Conditions/Version_1/oneback(2)_v1.xlsx,New rule: Press 'space' when you see 1-back (i.e. the same letter as the one that appeared 1 letter ago.),c,space,,,,,,,,,0,4,4,4,0,7,7,7,,,,,,,,,,,,,,,,,,,,,,,,,,,,,,,,,,,,,,,,,,,,,,,,,,,,,,,,,,,,,,,,,,,,,1.2394,495.0827347,None,space,1,495.0827347,None,0.6824311,P033,fencog,1,Post,2022_Apr_12_1224,N-Back (New Version 2021),2021.1.4,120.1966417
,,,,Conditions/Version_1/oneback(2)_v1.xlsx,New rule: Press 'space' when you see 1-back (i.e. the same letter as the one that appeared 1 letter ago.),P,None,,,,,,,,,0,4,4,4,0,8,8,8,,,,,,,,,,,,,,,,,,,,,,,,,,,,,,,,,,,,,,,,,,,,,,,,,,,,,,,,,,,,,,,,,,,,,1.7602,498.8524085,None,None,1,498.8524085,None,,P033,fencog,1,Post,2022_Apr_12_1224,N-Back (New Version 2021),2021.1.4,120.1966417
,,,,Conditions/Version_1/oneback(2)_v1.xlsx,New rule: Press 'space' when you see 1-back (i.e. the same letter as the one that appeared 1 letter ago.),p,space,,,,,,,,,0,4,4,4,0,9,9,9,,,,,,,,,,,,,,,,,,,,,,,,,,,,,,,,,,,,,,,,,,,,,,,,,,,,,,,,,,,,,,,,,,,,,1.1588,502.0160621,None,space,1,502.0160621,None,1.2371063,P033,fencog,1,Post,2022_Apr_12_1224,N-Back (New Version 2021),2021.1.4,120.1966417
,,,,Conditions/Version_1/oneback(2)_v1.xlsx,New rule: Press 'space' when you see 1-back (i.e. the same letter as the one that appeared 1 letter ago.),,,,,,,,,,,0,4,4,4,,,,,,,,,,,,,,,,,,,,,,,,,,,,,,,,,,,,,,,,,,,,,,,,,,,,,,,,,,,,,,,,,,,,,,,,,,,,,,,,,P033,fencog,1,Post,2022_Apr_12_1224,N-Back (New Version 2021),2021.1.4,120.1966417
,,,,Conditions/Version_1/zeroback(2)_v1.xlsx,New rule: Press 'space' when you see the letter 'x' or 'X'.,p,None,,,,,,,,,0,5,5,5,0,0,0,0,,,,,,,,,,,,,,,,,,,,,,,,,,,,,,,,,,,,,,,,,,,,,,,,,,,,,,,,,,,504.0522677,None,507.0340035,None,space,0.4029829,507.0340035,None,504.0522677,None,1.072,508.5463087,None,None,1,508.5463087,None,,P033,fencog,1,Post,2022_Apr_12_1224,N-Back (New Version 2021),2021.1.4,120.1966417
,,,,Conditions/Version_1/zeroback(2)_v1.xlsx,New rule: Press 'space' when you see the letter 'x' or 'X'.,L,None,,,,,,,,,0,5,5,5,0,1,1,1,,,,,,,,,,,,,,,,,,,,,,,,,,,,,,,,,,,,,,,,,,,,,,,,,,,,,,,,,,,,,,,,,,,,,1.9896,512.5485279,None,None,1,512.5485279,None,,P033,fencog,1,Post,2022_Apr_12_1224,N-Back (New Version 2021),2021.1.4,120.1966417
,,,,Conditions/Version_1/zeroback(2)_v1.xlsx,New rule: Press 'space' when you see the letter 'x' or 'X'.,G,None,,,,,,,,,0,5,5,5,0,2,2,2,,,,,,,,,,,,,,,,,,,,,,,,,,,,,,,,,,,,,,,,,,,,,,,,,,,,,,,,,,,,,,,,,,,,,1.2208,515.7801187,None,None,1,515.7801187,None,,P033,fencog,1,Post,2022_Apr_12_1224,N-Back (New Version 2021),2021.1.4,120.1966417
,,,,Conditions/Version_1/zeroback(2)_v1.xlsx,New rule: Press 'space' when you see the letter 'x' or 'X'.,y,None,,,,,,,,,0,5,5,5,0,3,3,3,,,,,,,,,,,,,,,,,,,,,,,,,,,,,,,,,,,,,,,,,,,,,,,,,,,,,,,,,,,,,,,,,,,,,1.7602,519.5573974,None,None,1,519.5573974,None,,P033,fencog,1,Post,2022_Apr_12_1224,N-Back (New Version 2021),2021.1.4,120.1966417
,,,,Conditions/Version_1/zeroback(2)_v1.xlsx,New rule: Press 'space' when you see the letter 'x' or 'X'.,Y,None,,,,,,,,,0,5,5,5,0,4,4,4,,,,,,,,,,,,,,,,,,,,,,,,,,,,,,,,,,,,,,,,,,,,,,,,,,,,,,,,,,,,,,,,,,,,,1.2642,522.8286495,None,None,1,522.8286495,None,,P033,fencog,1,Post,2022_Apr_12_1224,N-Back (New Version 2021),2021.1.4,120.1966417
,,,,Conditions/Version_1/zeroback(2)_v1.xlsx,New rule: Press 'space' when you see the letter 'x' or 'X'.,W,None,,,,,,,,,0,5,5,5,0,5,5,5,,,,,,,,,,,,,,,,,,,,,,,,,,,,,,,,,,,,,,,,,,,,,,,,,,,,,,,,,,,,,,,,,,,,,1.847,526.6917071,None,None,1,526.6917071,None,,P033,fencog,1,Post,2022_Apr_12_1224,N-Back (New Version 2021),2021.1.4,120.1966417
,,,,Conditions/Version_1/zeroback(2)_v1.xlsx,New rule: Press 'space' when you see the letter 'x' or 'X'.,x,space,,,,,,,,,0,5,5,5,0,6,6,6,,,,,,,,,,,,,,,,,,,,,,,,,,,,,,,,,,,,,,,,,,,,,,,,,,,,,,,,,,,,,,,,,,,,,1.6486,530.3438258,None,space,1,530.3438258,None,0.429335,P033,fencog,1,Post,2022_Apr_12_1224,N-Back (New Version 2021),2021.1.4,120.1966417
,,,,Conditions/Version_1/zeroback(2)_v1.xlsx,New rule: Press 'space' when you see the letter 'x' or 'X'.,X,space,,,,,,,,,0,5,5,5,0,7,7,7,,,,,,,,,,,,,,,,,,,,,,,,,,,,,,,,,,,,,,,,,,,,,,,,,,,,,,,,,,,,,,,,,,,,,1.1898,533.5522178,None,space,1,533.5522178,None,0.436858,P033,fencog,1,Post,2022_Apr_12_1224,N-Back (New Version 2021),2021.1.4,120.1966417
,,,,Conditions/Version_1/zeroback(2)_v1.xlsx,New rule: Press 'space' when you see the letter 'x' or 'X'.,p,None,,,,,,,,,0,5,5,5,0,8,8,8,,,,,,,,,,,,,,,,,,,,,,,,,,,,,,,,,,,,,,,,,,,,,,,,,,,,,,,,,,,,,,,,,,,,,1.7478,537.3076483,None,None,1,537.3076483,None,,P033,fencog,1,Post,2022_Apr_12_1224,N-Back (New Version 2021),2021.1.4,120.1966417
,,,,Conditions/Version_1/zeroback(2)_v1.xlsx,New rule: Press 'space' when you see the letter 'x' or 'X'.,h,None,,,,,,,,,0,5,5,5,0,9,9,9,,,,,,,,,,,,,,,,,,,,,,,,,,,,,,,,,,,,,,,,,,,,,,,,,,,,,,,,,,,,,,,,,,,,,1.785,541.0994401,None,None,1,541.0994401,None,,P033,fencog,1,Post,2022_Apr_12_1224,N-Back (New Version 2021),2021.1.4,120.1966417
,,,,Conditions/Version_1/zeroback(2)_v1.xlsx,New rule: Press 'space' when you see the letter 'x' or 'X'.,,,,,,,,,,,0,5,5,5,,,,,,,,,,,,,,,,,,,,,,,,,,,,,,,,,,,,,,,,,,,,,,,,,,,,,,,,,,,,,,,,,,,,,,,,,,,,,,,,,P033,fencog,1,Post,2022_Apr_12_1224,N-Back (New Version 2021),2021.1.4,120.1966417
,,,,Conditions/Version_1/threeback(2)_v1.xlsx,New rule: Press 'space' when you see 3-back (i.e. the same letter as the one that appeared 3 letters ago.),q,None,,,,,,,,,0,6,6,6,0,0,0,0,,,,,,,,,,,,,,,,,,,,,,,,,,,,,,,,,,,,,,,,,,,,,,,,,,,,,,,,,,,543.1470819,None,546.1314219,None,space,1.5055518,546.1314219,None,543.1470819,None,1.8284,549.5039469,None,None,1,549.5039469,None,,P033,fencog,1,Post,2022_Apr_12_1224,N-Back (New Version 2021),2021.1.4,120.1966417
,,,,Conditions/Version_1/threeback(2)_v1.xlsx,New rule: Press 'space' when you see 3-back (i.e. the same letter as the one that appeared 3 letters ago.),Y,None,,,,,,,,,0,6,6,6,0,1,1,1,,,,,,,,,,,,,,,,,,,,,,,,,,,,,,,,,,,,,,,,,,,,,,,,,,,,,,,,,,,,,,,,,,,,,1.6486,553.1612491,None,None,1,553.1612491,None,,P033,fencog,1,Post,2022_Apr_12_1224,N-Back (New Version 2021),2021.1.4,120.1966417
,,,,Conditions/Version_1/threeback(2)_v1.xlsx,New rule: Press 'space' when you see 3-back (i.e. the same letter as the one that appeared 3 letters ago.),p,None,,,,,,,,,0,6,6,6,0,2,2,2,,,,,,,,,,,,,,,,,,,,,,,,,,,,,,,,,,,,,,,,,,,,,,,,,,,,,,,,,,,,,,,,,,,,,1.7292,556.9109065,None,None,1,556.9109065,None,,P033,fencog,1,Post,2022_Apr_12_1224,N-Back (New Version 2021),2021.1.4,120.1966417
,,,,Conditions/Version_1/threeback(2)_v1.xlsx,New rule: Press 'space' when you see 3-back (i.e. the same letter as the one that appeared 3 letters ago.),p,None,,,,,,,,,0,6,6,6,0,3,3,3,,,,,,,,,,,,,,,,,,,,,,,,,,,,,,,,,,,,,,,,,,,,,,,,,,,,,,,,,,,,,,,,,,,,,1.1588,560.0808879,None,None,1,560.0808879,None,,P033,fencog,1,Post,2022_Apr_12_1224,N-Back (New Version 2021),2021.1.4,120.1966417
,,,,Conditions/Version_1/threeback(2)_v1.xlsx,New rule: Press 'space' when you see 3-back (i.e. the same letter as the one that appeared 3 letters ago.),y,space,,,,,,,,,0,6,6,6,0,4,4,4,,,,,,,,,,,,,,,,,,,,,,,,,,,,,,,,,,,,,,,,,,,,,,,,,,,,,,,,,,,,,,,,,,,,,1.01,563.1008674,None,space,1,563.1008674,None,0.9443076,P033,fencog,1,Post,2022_Apr_12_1224,N-Back (New Version 2021),2021.1.4,120.1966417
,,,,Conditions/Version_1/threeback(2)_v1.xlsx,New rule: Press 'space' when you see 3-back (i.e. the same letter as the one that appeared 3 letters ago.),u,None,,,,,,,,,0,6,6,6,0,5,5,5,,,,,,,,,,,,,,,,,,,,,,,,,,,,,,,,,,,,,,,,,,,,,,,,,,,,,,,,,,,,,,,,,,,,,1.0844,566.1995784,None,None,1,566.1995784,None,,P033,fencog,1,Post,2022_Apr_12_1224,N-Back (New Version 2021),2021.1.4,120.1966417
,,,,Conditions/Version_1/threeback(2)_v1.xlsx,New rule: Press 'space' when you see 3-back (i.e. the same letter as the one that appeared 3 letters ago.),P,space,,,,,,,,,0,6,6,6,0,6,6,6,,,,,,,,,,,,,,,,,,,,,,,,,,,,,,,,,,,,,,,,,,,,,,,,,,,,,,,,,,,,,,,,,,,,,1.8408,570.0498775,None,space,1,570.0498775,None,0.4991209,P033,fencog,1,Post,2022_Apr_12_1224,N-Back (New Version 2021),2021.1.4,120.1966417
,,,,Conditions/Version_1/threeback(2)_v1.xlsx,New rule: Press 'space' when you see 3-back (i.e. the same letter as the one that appeared 3 letters ago.),a,None,,,,,,,,,0,6,6,6,0,7,7,7,,,,,,,,,,,,,,,,,,,,,,,,,,,,,,,,,,,,,,,,,,,,,,,,,,,,,,,,,,,,,,,,,,,,,1.5866,573.6512895,None,None,1,573.6512895,None,,P033,fencog,1,Post,2022_Apr_12_1224,N-Back (New Version 2021),2021.1.4,120.1966417
,,,,Conditions/Version_1/threeback(2)_v1.xlsx,New rule: Press 'space' when you see 3-back (i.e. the same letter as the one that appeared 3 letters ago.),U,space,,,,,,,,,0,6,6,6,0,8,8,8,,,,,,,,,,,,,,,,,,,,,,,,,,,,,,,,,,,,,,,,,,,,,,,,,,,,,,,,,,,,,,,,,,,,,1.4378,577.1107073,None,space,1,577.1107073,None,0.422275,P033,fencog,1,Post,2022_Apr_12_1224,N-Back (New Version 2021),2021.1.4,120.1966417
,,,,Conditions/Version_1/threeback(2)_v1.xlsx,New rule: Press 'space' when you see 3-back (i.e. the same letter as the one that appeared 3 letters ago.),q,None,,,,,,,,,0,6,6,6,0,9,9,9,,,,,,,,,,,,,,,,,,,,,,,,,,,,,,,,,,,,,,,,,,,,,,,,,,,,,,,,,,,,,,,,,,,,,1.1712,580.2871004,None,None,1,580.2871004,None,,P033,fencog,1,Post,2022_Apr_12_1224,N-Back (New Version 2021),2021.1.4,120.1966417
,,,,Conditions/Version_1/threeback(2)_v1.xlsx,New rule: Press 'space' when you see 3-back (i.e. the same letter as the one that appeared 3 letters ago.),,,,,,,,,,,0,6,6,6,,,,,,,,,,,,,,,,,,,,,,,,,,,,,,,,,,,,,,,,,,,,,,,,,,,,,,,,,,,,,,,,,,,,,,,,,,,,,,,,,P033,fencog,1,Post,2022_Apr_12_1224,N-Back (New Version 2021),2021.1.4,120.1966417
,,,,Conditions/Version_1/twoback(2)_v1.xlsx,New rule: Press 'space' when you see 2-back (i.e. the same letter as the one that appeared 2 letters ago.),q,None,,,,,,,,,0,7,7,7,0,0,0,0,,,,,,,,,,,,,,,,,,,,,,,,,,,,,,,,,,,,,,,,,,,,,,,,,,,,,,,,,,,582.325733,None,585.3030008,None,space,0.1500752,585.3030008,None,582.325733,None,1.5556,587.0389794,None,None,1,587.0389794,None,,P033,fencog,1,Post,2022_Apr_12_1224,N-Back (New Version 2021),2021.1.4,120.1966417
,,,,Conditions/Version_1/twoback(2)_v1.xlsx,New rule: Press 'space' when you see 2-back (i.e. the same letter as the one that appeared 2 letters ago.),r,None,,,,,,,,,0,7,7,7,0,1,1,1,,,,,,,,,,,,,,,,,,,,,,,,,,,,,,,,,,,,,,,,,,,,,,,,,,,,,,,,,,,,,,,,,,,,,1.7788,590.8415168,None,None,1,590.8415168,None,,P033,fencog,1,Post,2022_Apr_12_1224,N-Back (New Version 2021),2021.1.4,120.1966417
,,,,Conditions/Version_1/twoback(2)_v1.xlsx,New rule: Press 'space' when you see 2-back (i.e. the same letter as the one that appeared 2 letters ago.),q,space,,,,,,,,,0,7,7,7,0,2,2,2,,,,,,,,,,,,,,,,,,,,,,,,,,,,,,,,,,,,,,,,,,,,,,,,,,,,,,,,,,,,,,,,,,,,,1.6734,594.5243328,None,space,1,594.5243328,None,0.7687594,P033,fencog,1,Post,2022_Apr_12_1224,N-Back (New Version 2021),2021.1.4,120.1966417
,,,,Conditions/Version_1/twoback(2)_v1.xlsx,New rule: Press 'space' when you see 2-back (i.e. the same letter as the one that appeared 2 letters ago.),P,None,,,,,,,,,0,7,7,7,0,3,3,3,,,,,,,,,,,,,,,,,,,,,,,,,,,,,,,,,,,,,,,,,,,,,,,,,,,,,,,,,,,,,,,,,,,,,1.8098,598.3503101,None,None,1,598.3503101,None,,P033,fencog,1,Post,2022_Apr_12_1224,N-Back (New Version 2021),2021.1.4,120.1966417
,,,,Conditions/Version_1/twoback(2)_v1.xlsx,New rule: Press 'space' when you see 2-back (i.e. the same letter as the one that appeared 2 letters ago.),p,None,,,,,,,,,0,7,7,7,0,4,4,4,,,,,,,,,,,,,,,,,,,,,,,,,,,,,,,,,,,,,,,,,,,,,,,,,,,,,,,,,,,,,,,,,,,,,1.2146,601.5718155,None,None,1,601.5718155,None,,P033,fencog,1,Post,2022_Apr_12_1224,N-Back (New Version 2021),2021.1.4,120.1966417
,,,,Conditions/Version_1/twoback(2)_v1.xlsx,New rule: Press 'space' when you see 2-back (i.e. the same letter as the one that appeared 2 letters ago.),H,None,,,,,,,,,0,7,7,7,0,5,5,5,,,,,,,,,,,,,,,,,,,,,,,,,,,,,,,,,,,,,,,,,,,,,,,,,,,,,,,,,,,,,,,,,,,,,1.506,605.0882579,None,None,1,605.0882579,None,,P033,fencog,1,Post,2022_Apr_12_1224,N-Back (New Version 2021),2021.1.4,120.1966417
,,,,Conditions/Version_1/twoback(2)_v1.xlsx,New rule: Press 'space' when you see 2-back (i.e. the same letter as the one that appeared 2 letters ago.),g,None,,,,,,,,,0,7,7,7,0,6,6,6,,,,,,,,,,,,,,,,,,,,,,,,,,,,,,,,,,,,,,,,,,,,,,,,,,,,,,,,,,,,,,,,,,,,,1.692,608.7899109,None,None,1,608.7899109,None,,P033,fencog,1,Post,2022_Apr_12_1224,N-Back (New Version 2021),2021.1.4,120.1966417
,,,,Conditions/Version_1/twoback(2)_v1.xlsx,New rule: Press 'space' when you see 2-back (i.e. the same letter as the one that appeared 2 letters ago.),j,None,,,,,,,,,0,7,7,7,0,7,7,7,,,,,,,,,,,,,,,,,,,,,,,,,,,,,,,,,,,,,,,,,,,,,,,,,,,,,,,,,,,,,,,,,,,,,1.0534,611.8540887,None,None,1,611.8540887,None,,P033,fencog,1,Post,2022_Apr_12_1224,N-Back (New Version 2021),2021.1.4,120.1966417
,,,,Conditions/Version_1/twoback(2)_v1.xlsx,New rule: Press 'space' when you see 2-back (i.e. the same letter as the one that appeared 2 letters ago.),g,space,,,,,,,,,0,7,7,7,0,8,8,8,,,,,,,,,,,,,,,,,,,,,,,,,,,,,,,,,,,,,,,,,,,,,,,,,,,,,,,,,,,,,,,,,,,,,1.9772,615.8423575,None,space,1,615.8423575,None,0.6506523,P033,fencog,1,Post,2022_Apr_12_1224,N-Back (New Version 2021),2021.1.4,120.1966417
,,,,Conditions/Version_1/twoback(2)_v1.xlsx,New rule: Press 'space' when you see 2-back (i.e. the same letter as the one that appeared 2 letters ago.),G,None,,,,,,,,,0,7,7,7,0,9,9,9,,,,,,,,,,,,,,,,,,,,,,,,,,,,,,,,,,,,,,,,,,,,,,,,,,,,,,,,,,,,,,,,,,,,,1.4626,619.3272389,None,None,1,619.3272389,None,,P033,fencog,1,Post,2022_Apr_12_1224,N-Back (New Version 2021),2021.1.4,120.1966417
,,,,Conditions/Version_1/twoback(2)_v1.xlsx,New rule: Press 'space' when you see 2-back (i.e. the same letter as the one that appeared 2 letters ago.),,,,,,,,,,,0,7,7,7,,,,,,,,,,,,,,,,,,,,,,,,,,,,,,,,,,,,,,,,,,,,,,,,,,,,,,,,,,,,,,,,,,,,,,,,,,,,,,,,,P033,fencog,1,Post,2022_Apr_12_1224,N-Back (New Version 2021),2021.1.4,120.1966417
,,,,Conditions/Version_1/threeback(3)_v1.xlsx,New rule: Press 'space' when you see 3-back (i.e. the same letter as the one that appeared 3 letters ago.),w,None,,,,,,,,,0,8,8,8,0,0,0,0,,,,,,,,,,,,,,,,,,,,,,,,,,,,,,,,,,,,,,,,,,,,,,,,,,,,,,,,,,,621.3682287,None,624.3507884,None,space,0.2541587,624.3507884,None,621.3682287,None,1.6114,626.2568572,None,None,1,626.2568572,None,,P033,fencog,1,Post,2022_Apr_12_1224,N-Back (New Version 2021),2021.1.4,120.1966417
,,,,Conditions/Version_1/threeback(3)_v1.xlsx,New rule: Press 'space' when you see 3-back (i.e. the same letter as the one that appeared 3 letters ago.),p,None,,,,,,,,,0,8,8,8,0,1,1,1,,,,,,,,,,,,,,,,,,,,,,,,,,,,,,,,,,,,,,,,,,,,,,,,,,,,,,,,,,,,,,,,,,,,,1.3138,629.5843005,None,None,1,629.5843005,None,,P033,fencog,1,Post,2022_Apr_12_1224,N-Back (New Version 2021),2021.1.4,120.1966417
,,,,Conditions/Version_1/threeback(3)_v1.xlsx,New rule: Press 'space' when you see 3-back (i.e. the same letter as the one that appeared 3 letters ago.),P,None,,,,,,,,,0,8,8,8,0,2,2,2,,,,,,,,,,,,,,,,,,,,,,,,,,,,,,,,,,,,,,,,,,,,,,,,,,,,,,,,,,,,,,,,,,,,,1.413,632.9940237,None,None,1,632.9940237,None,,P033,fencog,1,Post,2022_Apr_12_1224,N-Back (New Version 2021),2021.1.4,120.1966417
,,,,Conditions/Version_1/threeback(3)_v1.xlsx,New rule: Press 'space' when you see 3-back (i.e. the same letter as the one that appeared 3 letters ago.),i,None,,,,,,,,,0,8,8,8,0,3,3,3,,,,,,,,,,,,,,,,,,,,,,,,,,,,,,,,,,,,,,,,,,,,,,,,,,,,,,,,,,,,,,,,,,,,,1.9772,636.9808958,None,None,1,636.9808958,None,,P033,fencog,1,Post,2022_Apr_12_1224,N-Back (New Version 2021),2021.1.4,120.1966417
,,,,Conditions/Version_1/threeback(3)_v1.xlsx,New rule: Press 'space' when you see 3-back (i.e. the same letter as the one that appeared 3 letters ago.),f,None,,,,,,,,,0,8,8,8,0,4,4,4,,,,,,,,,,,,,,,,,,,,,,,,,,,,,,,,,,,,,,,,,,,,,,,,,,,,,,,,,,,,,,,,,,,,,1.0534,640.0438758,None,None,1,640.0438758,None,,P033,fencog,1,Post,2022_Apr_12_1224,N-Back (New Version 2021),2021.1.4,120.1966417
,,,,Conditions/Version_1/threeback(3)_v1.xlsx,New rule: Press 'space' when you see 3-back (i.e. the same letter as the one that appeared 3 letters ago.),o,None,,,,,,,,,0,8,8,8,0,5,5,5,,,,,,,,,,,,,,,,,,,,,,,,,,,,,,,,,,,,,,,,,,,,,,,,,,,,,,,,,,,,,,,,,,,,,1.1216,643.1770526,None,None,1,643.1770526,None,,P033,fencog,1,Post,2022_Apr_12_1224,N-Back (New Version 2021),2021.1.4,120.1966417
,,,,Conditions/Version_1/threeback(3)_v1.xlsx,New rule: Press 'space' when you see 3-back (i.e. the same letter as the one that appeared 3 letters ago.),w,None,,,,,,,,,0,8,8,8,0,6,6,6,,,,,,,,,,,,,,,,,,,,,,,,,,,,,,,,,,,,,,,,,,,,,,,,,,,,,,,,,,,,,,,,,,,,,1.9276,647.1184479,None,None,1,647.1184479,None,,P033,fencog,1,Post,2022_Apr_12_1224,N-Back (New Version 2021),2021.1.4,120.1966417
,,,,Conditions/Version_1/threeback(3)_v1.xlsx,New rule: Press 'space' when you see 3-back (i.e. the same letter as the one that appeared 3 letters ago.),F,space,,,,,,,,,0,8,8,8,0,7,7,7,,,,,,,,,,,,,,,,,,,,,,,,,,,,,,,,,,,,,,,,,,,,,,,,,,,,,,,,,,,,,,,,,,,,,1.0968,650.2281161,None,None,0,650.2281161,None,,P033,fencog,1,Post,2022_Apr_12_1224,N-Back (New Version 2021),2021.1.4,120.1966417
,,,,Conditions/Version_1/threeback(3)_v1.xlsx,New rule: Press 'space' when you see 3-back (i.e. the same letter as the one that appeared 3 letters ago.),p,None,,,,,,,,,0,8,8,8,0,8,8,8,,,,,,,,,,,,,,,,,,,,,,,,,,,,,,,,,,,,,,,,,,,,,,,,,,,,,,,,,,,,,,,,,,,,,1.2952,653.538471,None,None,1,653.538471,None,,P033,fencog,1,Post,2022_Apr_12_1224,N-Back (New Version 2021),2021.1.4,120.1966417
,,,,Conditions/Version_1/threeback(3)_v1.xlsx,New rule: Press 'space' when you see 3-back (i.e. the same letter as the one that appeared 3 letters ago.),W,space,,,,,,,,,0,8,8,8,0,9,9,9,,,,,,,,,,,,,,,,,,,,,,,,,,,,,,,,,,,,,,,,,,,,,,,,,,,,,,,,,,,,,,,,,,,,,1.3386,656.8916164,None,space,1,656.8916164,None,0.9375638,P033,fencog,1,Post,2022_Apr_12_1224,N-Back (New Version 2021),2021.1.4,120.1966417
,,,,Conditions/Version_1/threeback(3)_v1.xlsx,New rule: Press 'space' when you see 3-back (i.e. the same letter as the one that appeared 3 letters ago.),,,,,,,,,,,0,8,8,8,,,,,,,,,,,,,,,,,,,,,,,,,,,,,,,,,,,,,,,,,,,,,,,,,,,,,,,,,,,,,,,,,,,,,,,,,,,,,,,,,P033,fencog,1,Post,2022_Apr_12_1224,N-Back (New Version 2021),2021.1.4,120.1966417
,,,,Conditions/Version_1/zeroback(3)_v1.xlsx,New rule: Press 'space' when you see the letter 'x' or 'X'.,X,space,,,,,,,,,0,9,9,9,0,0,0,0,,,,,,,,,,,,,,,,,,,,,,,,,,,,,,,,,,,,,,,,,,,,,,,,,,,,,,,,,,,658.9355851,None,661.921371,None,space,0.2597126,661.921371,None,658.9355851,None,1.2394,663.4626221,None,space,1,663.4626221,None,0.7904392,P033,fencog,1,Post,2022_Apr_12_1224,N-Back (New Version 2021),2021.1.4,120.1966417
,,,,Conditions/Version_1/zeroback(3)_v1.xlsx,New rule: Press 'space' when you see the letter 'x' or 'X'.,B,None,,,,,,,,,0,9,9,9,0,1,1,1,,,,,,,,,,,,,,,,,,,,,,,,,,,,,,,,,,,,,,,,,,,,,,,,,,,,,,,,,,,,,,,,,,,,,1.165,666.6438789,None,None,1,666.6438789,None,,P033,fencog,1,Post,2022_Apr_12_1224,N-Back (New Version 2021),2021.1.4,120.1966417
,,,,Conditions/Version_1/zeroback(3)_v1.xlsx,New rule: Press 'space' when you see the letter 'x' or 'X'.,m,None,,,,,,,,,0,9,9,9,0,2,2,2,,,,,,,,,,,,,,,,,,,,,,,,,,,,,,,,,,,,,,,,,,,,,,,,,,,,,,,,,,,,,,,,,,,,,1.2022,669.8609969,None,None,1,669.8609969,None,,P033,fencog,1,Post,2022_Apr_12_1224,N-Back (New Version 2021),2021.1.4,120.1966417
,,,,Conditions/Version_1/zeroback(3)_v1.xlsx,New rule: Press 'space' when you see the letter 'x' or 'X'.,m,None,,,,,,,,,0,9,9,9,0,3,3,3,,,,,,,,,,,,,,,,,,,,,,,,,,,,,,,,,,,,,,,,,,,,,,,,,,,,,,,,,,,,,,,,,,,,,1.0286,672.8978056,None,None,1,672.8978056,None,,P033,fencog,1,Post,2022_Apr_12_1224,N-Back (New Version 2021),2021.1.4,120.1966417
,,,,Conditions/Version_1/zeroback(3)_v1.xlsx,New rule: Press 'space' when you see the letter 'x' or 'X'.,o,None,,,,,,,,,0,9,9,9,0,4,4,4,,,,,,,,,,,,,,,,,,,,,,,,,,,,,,,,,,,,,,,,,,,,,,,,,,,,,,,,,,,,,,,,,,,,,1.8346,676.7372995,None,None,1,676.7372995,None,,P033,fencog,1,Post,2022_Apr_12_1224,N-Back (New Version 2021),2021.1.4,120.1966417
,,,,Conditions/Version_1/zeroback(3)_v1.xlsx,New rule: Press 'space' when you see the letter 'x' or 'X'.,p,None,,,,,,,,,0,9,9,9,0,5,5,5,,,,,,,,,,,,,,,,,,,,,,,,,,,,,,,,,,,,,,,,,,,,,,,,,,,,,,,,,,,,,,,,,,,,,1.1092,679.8604377,None,None,1,679.8604377,None,,P033,fencog,1,Post,2022_Apr_12_1224,N-Back (New Version 2021),2021.1.4,120.1966417
,,,,Conditions/Version_1/zeroback(3)_v1.xlsx,New rule: Press 'space' when you see the letter 'x' or 'X'.,G,None,,,,,,,,,0,9,9,9,0,6,6,6,,,,,,,,,,,,,,,,,,,,,,,,,,,,,,,,,,,,,,,,,,,,,,,,,,,,,,,,,,,,,,,,,,,,,1.1898,683.0678899,None,None,1,683.0678899,None,,P033,fencog,1,Post,2022_Apr_12_1224,N-Back (New Version 2021),2021.1.4,120.1966417
,,,,Conditions/Version_1/zeroback(3)_v1.xlsx,New rule: Press 'space' when you see the letter 'x' or 'X'.,X,space,,,,,,,,,0,9,9,9,0,7,7,7,,,,,,,,,,,,,,,,,,,,,,,,,,,,,,,,,,,,,,,,,,,,,,,,,,,,,,,,,,,,,,,,,,,,,1.4688,686.5472924,None,space,1,686.5472924,None,0.4095851,P033,fencog,1,Post,2022_Apr_12_1224,N-Back (New Version 2021),2021.1.4,120.1966417
,,,,Conditions/Version_1/zeroback(3)_v1.xlsx,New rule: Press 'space' when you see the letter 'x' or 'X'.,p,None,,,,,,,,,0,9,9,9,0,8,8,8,,,,,,,,,,,,,,,,,,,,,,,,,,,,,,,,,,,,,,,,,,,,,,,,,,,,,,,,,,,,,,,,,,,,,1.041,689.5964067,None,None,1,689.5964067,None,,P033,fencog,1,Post,2022_Apr_12_1224,N-Back (New Version 2021),2021.1.4,120.1966417
,,,,Conditions/Version_1/zeroback(3)_v1.xlsx,New rule: Press 'space' when you see the letter 'x' or 'X'.,x,space,,,,,,,,,0,9,9,9,0,9,9,9,,,,,,,,,,,,,,,,,,,,,,,,,,,,,,,,,,,,,,,,,,,,,,,,,,,,,,,,,,,,,,,,,,,,,1.3014,692.9058373,None,space,1,692.9058373,None,0.4670707,P033,fencog,1,Post,2022_Apr_12_1224,N-Back (New Version 2021),2021.1.4,120.1966417
,,,,Conditions/Version_1/zeroback(3)_v1.xlsx,New rule: Press 'space' when you see the letter 'x' or 'X'.,,,,,,,,,,,0,9,9,9,,,,,,,,,,,,,,,,,,,,,,,,,,,,,,,,,,,,,,,,,,,,,,,,,,,,,,,,,,,,,,,,,,,,,,,,,,,,,,,,,P033,fencog,1,Post,2022_Apr_12_1224,N-Back (New Version 2021),2021.1.4,120.1966417
,,,,Conditions/Version_1/twoback(3)_v1.xlsx,New rule: Press 'space' when you see 2-back (i.e. the same letter as the one that appeared 2 letters ago.),e,None,,,,,,,,,0,10,10,10,0,0,0,0,,,,,,,,,,,,,,,,,,,,,,,,,,,,,,,,,,,,,,,,,,,,,,,,,,,,,,,,,,,694.9331284,None,697.9114199,None,space,6.2374594,697.9114199,None,694.9331284,None,1.6548,705.8513198,None,None,1,705.8513198,None,,P033,fencog,1,Post,2022_Apr_12_1224,N-Back (New Version 2021),2021.1.4,120.1966417
,,,,Conditions/Version_1/twoback(3)_v1.xlsx,New rule: Press 'space' when you see 2-back (i.e. the same letter as the one that appeared 2 letters ago.),o,None,,,,,,,,,0,10,10,10,0,1,1,1,,,,,,,,,,,,,,,,,,,,,,,,,,,,,,,,,,,,,,,,,,,,,,,,,,,,,,,,,,,,,,,,,,,,,1.0596,708.9245577,None,None,1,708.9245577,None,,P033,fencog,1,Post,2022_Apr_12_1224,N-Back (New Version 2021),2021.1.4,120.1966417
,,,,Conditions/Version_1/twoback(3)_v1.xlsx,New rule: Press 'space' when you see 2-back (i.e. the same letter as the one that appeared 2 letters ago.),P,None,,,,,,,,,0,10,10,10,0,2,2,2,,,,,,,,,,,,,,,,,,,,,,,,,,,,,,,,,,,,,,,,,,,,,,,,,,,,,,,,,,,,,,,,,,,,,1.444,712.3847778,None,None,1,712.3847778,None,,P033,fencog,1,Post,2022_Apr_12_1224,N-Back (New Version 2021),2021.1.4,120.1966417
,,,,Conditions/Version_1/twoback(3)_v1.xlsx,New rule: Press 'space' when you see 2-back (i.e. the same letter as the one that appeared 2 letters ago.),z,None,,,,,,,,,0,10,10,10,0,3,3,3,,,,,,,,,,,,,,,,,,,,,,,,,,,,,,,,,,,,,,,,,,,,,,,,,,,,,,,,,,,,,,,,,,,,,1.9772,716.3785215,None,None,1,716.3785215,None,,P033,fencog,1,Post,2022_Apr_12_1224,N-Back (New Version 2021),2021.1.4,120.1966417
,,,,Conditions/Version_1/twoback(3)_v1.xlsx,New rule: Press 'space' when you see 2-back (i.e. the same letter as the one that appeared 2 letters ago.),X,None,,,,,,,,,0,10,10,10,0,4,4,4,,,,,,,,,,,,,,,,,,,,,,,,,,,,,,,,,,,,,,,,,,,,,,,,,,,,,,,,,,,,,,,,,,,,,1.4874,719.8639958,None,None,1,719.8639958,None,,P033,fencog,1,Post,2022_Apr_12_1224,N-Back (New Version 2021),2021.1.4,120.1966417
,,,,Conditions/Version_1/twoback(3)_v1.xlsx,New rule: Press 'space' when you see 2-back (i.e. the same letter as the one that appeared 2 letters ago.),z,space,,,,,,,,,0,10,10,10,0,5,5,5,,,,,,,,,,,,,,,,,,,,,,,,,,,,,,,,,,,,,,,,,,,,,,,,,,,,,,,,,,,,,,,,,,,,,1.1774,723.0469084,None,space,1,723.0469084,None,0.6702294,P033,fencog,1,Post,2022_Apr_12_1224,N-Back (New Version 2021),2021.1.4,120.1966417
,,,,Conditions/Version_1/twoback(3)_v1.xlsx,New rule: Press 'space' when you see 2-back (i.e. the same letter as the one that appeared 2 letters ago.),x,space,,,,,,,,,0,10,10,10,0,6,6,6,,,,,,,,,,,,,,,,,,,,,,,,,,,,,,,,,,,,,,,,,,,,,,,,,,,,,,,,,,,,,,,,,,,,,1.4564,726.5118085,None,space,1,726.5118085,None,0.5171618,P033,fencog,1,Post,2022_Apr_12_1224,N-Back (New Version 2021),2021.1.4,120.1966417
,,,,Conditions/Version_1/twoback(3)_v1.xlsx,New rule: Press 'space' when you see 2-back (i.e. the same letter as the one that appeared 2 letters ago.),c,None,,,,,,,,,0,10,10,10,0,7,7,7,,,,,,,,,,,,,,,,,,,,,,,,,,,,,,,,,,,,,,,,,,,,,,,,,,,,,,,,,,,,,,,,,,,,,1.196,729.7130093,None,None,1,729.7130093,None,,P033,fencog,1,Post,2022_Apr_12_1224,N-Back (New Version 2021),2021.1.4,120.1966417
,,,,Conditions/Version_1/twoback(3)_v1.xlsx,New rule: Press 'space' when you see 2-back (i.e. the same letter as the one that appeared 2 letters ago.),i,None,,,,,,,,,0,10,10,10,0,8,8,8,,,,,,,,,,,,,,,,,,,,,,,,,,,,,,,,,,,,,,,,,,,,,,,,,,,,,,,,,,,,,,,,,,,,,1.289,733.010917,None,None,1,733.010917,None,,P033,fencog,1,Post,2022_Apr_12_1224,N-Back (New Version 2021),2021.1.4,120.1966417
,,,,Conditions/Version_1/twoback(3)_v1.xlsx,New rule: Press 'space' when you see 2-back (i.e. the same letter as the one that appeared 2 letters ago.),C,space,,,,,,,,,0,10,10,10,0,9,9,9,,,,,,,,,,,,,,,,,,,,,,,,,,,,,,,,,,,,,,,,,,,,,,,,,,,,,,,,,,,,,,,,,,,,,1.723,736.7510996,None,space,1,736.7510996,None,0.5497093,P033,fencog,1,Post,2022_Apr_12_1224,N-Back (New Version 2021),2021.1.4,120.1966417
,,,,Conditions/Version_1/twoback(3)_v1.xlsx,New rule: Press 'space' when you see 2-back (i.e. the same letter as the one that appeared 2 letters ago.),,,,,,,,,,,0,10,10,10,,,,,,,,,,,,,,,,,,,,,,,,,,,,,,,,,,,,,,,,,,,,,,,,,,,,,,,,,,,,,,,,,,,,,,,,,,,,,,,,,P033,fencog,1,Post,2022_Apr_12_1224,N-Back (New Version 2021),2021.1.4,120.1966417
,,,,Conditions/Version_1/oneback(3)_v1.xlsx,New rule: Press 'space' when you see 1-back (i.e. the same letter as the one that appeared 1 letter ago.),o,None,,,,,,,,,0,11,11,11,0,0,0,0,,,,,,,,,,,,,,,,,,,,,,,,,,,,,,,,,,,,,,,,,,,,,,,,,,,,,,,,,,,738.7919825,None,741.7728764,None,space,1.0238983,741.7728764,None,738.7919825,None,1.1278,743.9747903,None,None,1,743.9747903,None,,P033,fencog,1,Post,2022_Apr_12_1224,N-Back (New Version 2021),2021.1.4,120.1966417
,,,,Conditions/Version_1/oneback(3)_v1.xlsx,New rule: Press 'space' when you see 1-back (i.e. the same letter as the one that appeared 1 letter ago.),O,space,,,,,,,,,0,11,11,11,0,1,1,1,,,,,,,,,,,,,,,,,,,,,,,,,,,,,,,,,,,,,,,,,,,,,,,,,,,,,,,,,,,,,,,,,,,,,1.971,747.9573807,None,space,1,747.9573807,None,0.3915814,P033,fencog,1,Post,2022_Apr_12_1224,N-Back (New Version 2021),2021.1.4,120.1966417
,,,,Conditions/Version_1/oneback(3)_v1.xlsx,New rule: Press 'space' when you see 1-back (i.e. the same letter as the one that appeared 1 letter ago.),h,None,,,,,,,,,0,11,11,11,0,2,2,2,,,,,,,,,,,,,,,,,,,,,,,,,,,,,,,,,,,,,,,,,,,,,,,,,,,,,,,,,,,,,,,,,,,,,1.4812,751.4467771,None,None,1,751.4467771,None,,P033,fencog,1,Post,2022_Apr_12_1224,N-Back (New Version 2021),2021.1.4,120.1966417
,,,,Conditions/Version_1/oneback(3)_v1.xlsx,New rule: Press 'space' when you see 1-back (i.e. the same letter as the one that appeared 1 letter ago.),g,None,,,,,,,,,0,11,11,11,0,3,3,3,,,,,,,,,,,,,,,,,,,,,,,,,,,,,,,,,,,,,,,,,,,,,,,,,,,,,,,,,,,,,,,,,,,,,1.475,754.935447,None,None,1,754.935447,None,,P033,fencog,1,Post,2022_Apr_12_1224,N-Back (New Version 2021),2021.1.4,120.1966417
,,,,Conditions/Version_1/oneback(3)_v1.xlsx,New rule: Press 'space' when you see 1-back (i.e. the same letter as the one that appeared 1 letter ago.),n,None,,,,,,,,,0,11,11,11,0,4,4,4,,,,,,,,,,,,,,,,,,,,,,,,,,,,,,,,,,,,,,,,,,,,,,,,,,,,,,,,,,,,,,,,,,,,,1.6672,758.6212362,None,None,1,758.6212362,None,,P033,fencog,1,Post,2022_Apr_12_1224,N-Back (New Version 2021),2021.1.4,120.1966417
,,,,Conditions/Version_1/oneback(3)_v1.xlsx,New rule: Press 'space' when you see 1-back (i.e. the same letter as the one that appeared 1 letter ago.),z,None,,,,,,,,,0,11,11,11,0,5,5,5,,,,,,,,,,,,,,,,,,,,,,,,,,,,,,,,,,,,,,,,,,,,,,,,,,,,,,,,,,,,,,,,,,,,,1.9276,762.5572843,None,None,1,762.5572843,None,,P033,fencog,1,Post,2022_Apr_12_1224,N-Back (New Version 2021),2021.1.4,120.1966417
,,,,Conditions/Version_1/oneback(3)_v1.xlsx,New rule: Press 'space' when you see 1-back (i.e. the same letter as the one that appeared 1 letter ago.),X,None,,,,,,,,,0,11,11,11,0,6,6,6,,,,,,,,,,,,,,,,,,,,,,,,,,,,,,,,,,,,,,,,,,,,,,,,,,,,,,,,,,,,,,,,,,,,,1.2518,765.8238069,None,None,1,765.8238069,None,,P033,fencog,1,Post,2022_Apr_12_1224,N-Back (New Version 2021),2021.1.4,120.1966417
,,,,Conditions/Version_1/oneback(3)_v1.xlsx,New rule: Press 'space' when you see 1-back (i.e. the same letter as the one that appeared 1 letter ago.),r,None,,,,,,,,,0,11,11,11,0,7,7,7,,,,,,,,,,,,,,,,,,,,,,,,,,,,,,,,,,,,,,,,,,,,,,,,,,,,,,,,,,,,,,,,,,,,,1.8408,769.6747035,None,None,1,769.6747035,None,,P033,fencog,1,Post,2022_Apr_12_1224,N-Back (New Version 2021),2021.1.4,120.1966417
,,,,Conditions/Version_1/oneback(3)_v1.xlsx,New rule: Press 'space' when you see 1-back (i.e. the same letter as the one that appeared 1 letter ago.),r,space,,,,,,,,,0,11,11,11,0,8,8,8,,,,,,,,,,,,,,,,,,,,,,,,,,,,,,,,,,,,,,,,,,,,,,,,,,,,,,,,,,,,,,,,,,,,,1.847,773.526031,None,space,1,773.526031,None,0.5431062,P033,fencog,1,Post,2022_Apr_12_1224,N-Back (New Version 2021),2021.1.4,120.1966417
,,,,Conditions/Version_1/oneback(3)_v1.xlsx,New rule: Press 'space' when you see 1-back (i.e. the same letter as the one that appeared 1 letter ago.),P,None,,,,,,,,,0,11,11,11,0,9,9,9,,,,,,,,,,,,,,,,,,,,,,,,,,,,,,,,,,,,,,,,,,,,,,,,,,,,,,,,,,,,,,,,,,,,,1.661,777.1981532,None,None,1,777.1981532,None,,P033,fencog,1,Post,2022_Apr_12_1224,N-Back (New Version 2021),2021.1.4,120.1966417
,,,,Conditions/Version_1/oneback(3)_v1.xlsx,New rule: Press 'space' when you see 1-back (i.e. the same letter as the one that appeared 1 letter ago.),,,,,,,,,,,0,11,11,11,,,,,,,,,,,,,,,,,,,,,,,,,,,,,,,,,,,,,,,,,,,,,,,,,,,,,,,,,,,,,,,,,,,,,,,,,,,,,,,,,P033,fencog,1,Post,2022_Apr_12_1224,N-Back (New Version 2021),2021.1.4,120.1966417
,,,,Conditions/Version_1/twoback(4)_v1.xlsx,New rule: Press 'space' when you see 2-back (i.e. the same letter as the one that appeared 2 letters ago.),r,None,,,,,,,,,0,12,12,12,0,0,0,0,,,,,,,,,,,,,,,,,,,,,,,,,,,,,,,,,,,,,,,,,,,,,,,,,,,,,,,,,,,779.2416131,None,782.2275025,None,space,0.6013669,782.2275025,None,779.2416131,None,1.2022,784.118194,None,None,1,784.118194,None,,P033,fencog,1,Post,2022_Apr_12_1224,N-Back (New Version 2021),2021.1.4,120.1966417
,,,,Conditions/Version_1/twoback(4)_v1.xlsx,New rule: Press 'space' when you see 2-back (i.e. the same letter as the one that appeared 2 letters ago.),T,None,,,,,,,,,0,12,12,12,0,1,1,1,,,,,,,,,,,,,,,,,,,,,,,,,,,,,,,,,,,,,,,,,,,,,,,,,,,,,,,,,,,,,,,,,,,,,1.5804,787.7071341,None,None,1,787.7071341,None,,P033,fencog,1,Post,2022_Apr_12_1224,N-Back (New Version 2021),2021.1.4,120.1966417
,,,,Conditions/Version_1/twoback(4)_v1.xlsx,New rule: Press 'space' when you see 2-back (i.e. the same letter as the one that appeared 2 letters ago.),o,None,,,,,,,,,0,12,12,12,0,2,2,2,,,,,,,,,,,,,,,,,,,,,,,,,,,,,,,,,,,,,,,,,,,,,,,,,,,,,,,,,,,,,,,,,,,,,1.258,790.9851735,None,None,1,790.9851735,None,,P033,fencog,1,Post,2022_Apr_12_1224,N-Back (New Version 2021),2021.1.4,120.1966417
,,,,Conditions/Version_1/twoback(4)_v1.xlsx,New rule: Press 'space' when you see 2-back (i.e. the same letter as the one that appeared 2 letters ago.),p,None,,,,,,,,,0,12,12,12,0,3,3,3,,,,,,,,,,,,,,,,,,,,,,,,,,,,,,,,,,,,,,,,,,,,,,,,,,,,,,,,,,,,,,,,,,,,,1.6362,794.6339902,None,None,1,794.6339902,None,,P033,fencog,1,Post,2022_Apr_12_1224,N-Back (New Version 2021),2021.1.4,120.1966417
,,,,Conditions/Version_1/twoback(4)_v1.xlsx,New rule: Press 'space' when you see 2-back (i.e. the same letter as the one that appeared 2 letters ago.),p,None,,,,,,,,,0,12,12,12,0,4,4,4,,,,,,,,,,,,,,,,,,,,,,,,,,,,,,,,,,,,,,,,,,,,,,,,,,,,,,,,,,,,,,,,,,,,,1.5866,798.2264396,None,None,1,798.2264396,None,,P033,fencog,1,Post,2022_Apr_12_1224,N-Back (New Version 2021),2021.1.4,120.1966417
,,,,Conditions/Version_1/twoback(4)_v1.xlsx,New rule: Press 'space' when you see 2-back (i.e. the same letter as the one that appeared 2 letters ago.),y,None,,,,,,,,,0,12,12,12,0,5,5,5,,,,,,,,,,,,,,,,,,,,,,,,,,,,,,,,,,,,,,,,,,,,,,,,,,,,,,,,,,,,,,,,,,,,,1.9772,802.222021,None,None,1,802.222021,None,,P033,fencog,1,Post,2022_Apr_12_1224,N-Back (New Version 2021),2021.1.4,120.1966417
,,,,Conditions/Version_1/twoback(4)_v1.xlsx,New rule: Press 'space' when you see 2-back (i.e. the same letter as the one that appeared 2 letters ago.),P,space,,,,,,,,,0,12,12,12,0,6,6,6,,,,,,,,,,,,,,,,,,,,,,,,,,,,,,,,,,,,,,,,,,,,,,,,,,,,,,,,,,,,,,,,,,,,,1.3014,805.5300711,None,space,1,805.5300711,None,0.4270914,P033,fencog,1,Post,2022_Apr_12_1224,N-Back (New Version 2021),2021.1.4,120.1966417
,,,,Conditions/Version_1/twoback(4)_v1.xlsx,New rule: Press 'space' when you see 2-back (i.e. the same letter as the one that appeared 2 letters ago.),y,None,,,,,,,,,0,12,12,12,0,7,7,7,,,,,,,,,,,,,,,,,,,,,,,,,,,,,,,,,,,,,,,,,,,,,,,,,,,,,,,,,,,,,,,,,,,,,1.32,808.863866,None,space,0,808.863866,None,0.629043,P033,fencog,1,Post,2022_Apr_12_1224,N-Back (New Version 2021),2021.1.4,120.1966417
,,,,Conditions/Version_1/twoback(4)_v1.xlsx,New rule: Press 'space' when you see 2-back (i.e. the same letter as the one that appeared 2 letters ago.),y,space,,,,,,,,,0,12,12,12,0,8,8,8,,,,,,,,,,,,,,,,,,,,,,,,,,,,,,,,,,,,,,,,,,,,,,,,,,,,,,,,,,,,,,,,,,,,,1.5308,812.399004,None,space,1,812.399004,None,1.5659065,P033,fencog,1,Post,2022_Apr_12_1224,N-Back (New Version 2021),2021.1.4,120.1966417
,,,,Conditions/Version_1/twoback(4)_v1.xlsx,New rule: Press 'space' when you see 2-back (i.e. the same letter as the one that appeared 2 letters ago.),,,,,,,,,,,0,12,12,12,,,,,,,,,,,,,,,,,,,,,,,,,,,,,,,,,,,,,,,,,,,,,,,,,,,,,,,,,,,,,,,,,,,,,,,,,,,,,,,,,P033,fencog,1,Post,2022_Apr_12_1224,N-Back (New Version 2021),2021.1.4,120.1966417
,,,,Conditions/Version_1/zeroback(4)_v1.xlsx,New rule: Press 'space' when you see the letter 'x' or 'X'.,o,None,,,,,,,,,0,13,13,13,0,0,0,0,,,,,,,,,,,,,,,,,,,,,,,,,,,,,,,,,,,,,,,,,,,,,,,,,,,,,,,,,,,814.4318652,None,817.4183242,None,space,0.458456,817.4183242,None,814.4318652,None,1.0286,818.951844,None,None,1,818.951844,None,,P033,fencog,1,Post,2022_Apr_12_1224,N-Back (New Version 2021),2021.1.4,120.1966417
,,,,Conditions/Version_1/zeroback(4)_v1.xlsx,New rule: Press 'space' when you see the letter 'x' or 'X'.,X,space,,,,,,,,,0,13,13,13,0,1,1,1,,,,,,,,,,,,,,,,,,,,,,,,,,,,,,,,,,,,,,,,,,,,,,,,,,,,,,,,,,,,,,,,,,,,,1.351,822.3171868,None,space,1,822.3171868,None,0.4239181,P033,fencog,1,Post,2022_Apr_12_1224,N-Back (New Version 2021),2021.1.4,120.1966417
,,,,Conditions/Version_1/zeroback(4)_v1.xlsx,New rule: Press 'space' when you see the letter 'x' or 'X'.,p,None,,,,,,,,,0,13,13,13,0,2,2,2,,,,,,,,,,,,,,,,,,,,,,,,,,,,,,,,,,,,,,,,,,,,,,,,,,,,,,,,,,,,,,,,,,,,,1.0162,825.3478496,None,None,1,825.3478496,None,,P033,fencog,1,Post,2022_Apr_12_1224,N-Back (New Version 2021),2021.1.4,120.1966417
,,,,Conditions/Version_1/zeroback(4)_v1.xlsx,New rule: Press 'space' when you see the letter 'x' or 'X'.,m,None,,,,,,,,,0,13,13,13,0,3,3,3,,,,,,,,,,,,,,,,,,,,,,,,,,,,,,,,,,,,,,,,,,,,,,,,,,,,,,,,,,,,,,,,,,,,,1.9462,829.3051497,None,None,1,829.3051497,None,,P033,fencog,1,Post,2022_Apr_12_1224,N-Back (New Version 2021),2021.1.4,120.1966417
,,,,Conditions/Version_1/zeroback(4)_v1.xlsx,New rule: Press 'space' when you see the letter 'x' or 'X'.,n,None,,,,,,,,,0,13,13,13,0,4,4,4,,,,,,,,,,,,,,,,,,,,,,,,,,,,,,,,,,,,,,,,,,,,,,,,,,,,,,,,,,,,,,,,,,,,,1.8346,833.1552897,None,None,1,833.1552897,None,,P033,fencog,1,Post,2022_Apr_12_1224,N-Back (New Version 2021),2021.1.4,120.1966417
,,,,Conditions/Version_1/zeroback(4)_v1.xlsx,New rule: Press 'space' when you see the letter 'x' or 'X'.,m,None,,,,,,,,,0,13,13,13,0,5,5,5,,,,,,,,,,,,,,,,,,,,,,,,,,,,,,,,,,,,,,,,,,,,,,,,,,,,,,,,,,,,,,,,,,,,,1.9214,837.0860949,None,None,1,837.0860949,None,,P033,fencog,1,Post,2022_Apr_12_1224,N-Back (New Version 2021),2021.1.4,120.1966417
,,,,Conditions/Version_1/zeroback(4)_v1.xlsx,New rule: Press 'space' when you see the letter 'x' or 'X'.,C,None,,,,,,,,,0,13,13,13,0,6,6,6,,,,,,,,,,,,,,,,,,,,,,,,,,,,,,,,,,,,,,,,,,,,,,,,,,,,,,,,,,,,,,,,,,,,,1.5184,840.6129079,None,None,1,840.6129079,None,,P033,fencog,1,Post,2022_Apr_12_1224,N-Back (New Version 2021),2021.1.4,120.1966417
,,,,Conditions/Version_1/zeroback(4)_v1.xlsx,New rule: Press 'space' when you see the letter 'x' or 'X'.,m,None,,,,,,,,,0,13,13,13,0,7,7,7,,,,,,,,,,,,,,,,,,,,,,,,,,,,,,,,,,,,,,,,,,,,,,,,,,,,,,,,,,,,,,,,,,,,,1.134,843.7540851,None,None,1,843.7540851,None,,P033,fencog,1,Post,2022_Apr_12_1224,N-Back (New Version 2021),2021.1.4,120.1966417
,,,,Conditions/Version_1/zeroback(4)_v1.xlsx,New rule: Press 'space' when you see the letter 'x' or 'X'.,p,None,,,,,,,,,0,13,13,13,0,8,8,8,,,,,,,,,,,,,,,,,,,,,,,,,,,,,,,,,,,,,,,,,,,,,,,,,,,,,,,,,,,,,,,,,,,,,1.0906,846.8464592,None,None,1,846.8464592,None,,P033,fencog,1,Post,2022_Apr_12_1224,N-Back (New Version 2021),2021.1.4,120.1966417
,,,,Conditions/Version_1/zeroback(4)_v1.xlsx,New rule: Press 'space' when you see the letter 'x' or 'X'.,X,space,,,,,,,,,0,13,13,13,0,9,9,9,,,,,,,,,,,,,,,,,,,,,,,,,,,,,,,,,,,,,,,,,,,,,,,,,,,,,,,,,,,,,,,,,,,,,1.2518,850.1161526,None,space,1,850.1161526,None,0.3928661,P033,fencog,1,Post,2022_Apr_12_1224,N-Back (New Version 2021),2021.1.4,120.1966417
,,,,Conditions/Version_1/zeroback(4)_v1.xlsx,New rule: Press 'space' when you see the letter 'x' or 'X'.,,,,,,,,,,,0,13,13,13,,,,,,,,,,,,,,,,,,,,,,,,,,,,,,,,,,,,,,,,,,,,,,,,,,,,,,,,,,,,,,,,,,,,,,,,,,,,,,,,,P033,fencog,1,Post,2022_Apr_12_1224,N-Back (New Version 2021),2021.1.4,120.1966417
,,,,Conditions/Version_1/oneback(4)_v1.xlsx,New rule: Press 'space' when you see 1-back (i.e. the same letter as the one that appeared 1 letter ago.),w,None,,,,,,,,,0,14,14,14,0,0,0,0,,,,,,,,,,,,,,,,,,,,,,,,,,,,,,,,,,,,,,,,,,,,,,,,,,,,,,,,,,,852.1547556,None,855.1294614,None,space,0.5472744,855.1294614,None,852.1547556,None,1.0534,856.7702102,None,None,1,856.7702102,None,,P033,fencog,1,Post,2022_Apr_12_1224,N-Back (New Version 2021),2021.1.4,120.1966417
,,,,Conditions/Version_1/oneback(4)_v1.xlsx,New rule: Press 'space' when you see 1-back (i.e. the same letter as the one that appeared 1 letter ago.),q,None,,,,,,,,,0,14,14,14,0,1,1,1,,,,,,,,,,,,,,,,,,,,,,,,,,,,,,,,,,,,,,,,,,,,,,,,,,,,,,,,,,,,,,,,,,,,,1.7664,860.5460328,None,None,1,860.5460328,None,,P033,fencog,1,Post,2022_Apr_12_1224,N-Back (New Version 2021),2021.1.4,120.1966417
,,,,Conditions/Version_1/oneback(4)_v1.xlsx,New rule: Press 'space' when you see 1-back (i.e. the same letter as the one that appeared 1 letter ago.),i,None,,,,,,,,,0,14,14,14,0,2,2,2,,,,,,,,,,,,,,,,,,,,,,,,,,,,,,,,,,,,,,,,,,,,,,,,,,,,,,,,,,,,,,,,,,,,,1.8532,864.4214429,None,None,1,864.4214429,None,,P033,fencog,1,Post,2022_Apr_12_1224,N-Back (New Version 2021),2021.1.4,120.1966417
,,,,Conditions/Version_1/oneback(4)_v1.xlsx,New rule: Press 'space' when you see 1-back (i.e. the same letter as the one that appeared 1 letter ago.),t,None,,,,,,,,,0,14,14,14,0,3,3,3,,,,,,,,,,,,,,,,,,,,,,,,,,,,,,,,,,,,,,,,,,,,,,,,,,,,,,,,,,,,,,,,,,,,,1.9834,868.4115446,None,None,1,868.4115446,None,,P033,fencog,1,Post,2022_Apr_12_1224,N-Back (New Version 2021),2021.1.4,120.1966417
,,,,Conditions/Version_1/oneback(4)_v1.xlsx,New rule: Press 'space' when you see 1-back (i.e. the same letter as the one that appeared 1 letter ago.),v,None,,,,,,,,,0,14,14,14,0,4,4,4,,,,,,,,,,,,,,,,,,,,,,,,,,,,,,,,,,,,,,,,,,,,,,,,,,,,,,,,,,,,,,,,,,,,,1.1712,871.5885925,None,None,1,871.5885925,None,,P033,fencog,1,Post,2022_Apr_12_1224,N-Back (New Version 2021),2021.1.4,120.1966417
,,,,Conditions/Version_1/oneback(4)_v1.xlsx,New rule: Press 'space' when you see 1-back (i.e. the same letter as the one that appeared 1 letter ago.),V,space,,,,,,,,,0,14,14,14,0,5,5,5,,,,,,,,,,,,,,,,,,,,,,,,,,,,,,,,,,,,,,,,,,,,,,,,,,,,,,,,,,,,,,,,,,,,,1.9276,875.5279891,None,space,1,875.5279891,None,0.34895,P033,fencog,1,Post,2022_Apr_12_1224,N-Back (New Version 2021),2021.1.4,120.1966417
,,,,Conditions/Version_1/oneback(4)_v1.xlsx,New rule: Press 'space' when you see 1-back (i.e. the same letter as the one that appeared 1 letter ago.),v,space,,,,,,,,,0,14,14,14,0,6,6,6,,,,,,,,,,,,,,,,,,,,,,,,,,,,,,,,,,,,,,,,,,,,,,,,,,,,,,,,,,,,,,,,,,,,,1.4316,878.9741252,None,space,1,878.9741252,None,0.4949064,P033,fencog,1,Post,2022_Apr_12_1224,N-Back (New Version 2021),2021.1.4,120.1966417
,,,,Conditions/Version_1/oneback(4)_v1.xlsx,New rule: Press 'space' when you see 1-back (i.e. the same letter as the one that appeared 1 letter ago.),p,None,,,,,,,,,0,14,14,14,0,7,7,7,,,,,,,,,,,,,,,,,,,,,,,,,,,,,,,,,,,,,,,,,,,,,,,,,,,,,,,,,,,,,,,,,,,,,1.0782,882.0543919,None,None,1,882.0543919,None,,P033,fencog,1,Post,2022_Apr_12_1224,N-Back (New Version 2021),2021.1.4,120.1966417
,,,,Conditions/Version_1/oneback(4)_v1.xlsx,New rule: Press 'space' when you see 1-back (i.e. the same letter as the one that appeared 1 letter ago.),w,None,,,,,,,,,0,14,14,14,0,8,8,8,,,,,,,,,,,,,,,,,,,,,,,,,,,,,,,,,,,,,,,,,,,,,,,,,,,,,,,,,,,,,,,,,,,,,1.0596,885.1227825,None,None,1,885.1227825,None,,P033,fencog,1,Post,2022_Apr_12_1224,N-Back (New Version 2021),2021.1.4,120.1966417
,,,,Conditions/Version_1/oneback(4)_v1.xlsx,New rule: Press 'space' when you see 1-back (i.e. the same letter as the one that appeared 1 letter ago.),W,space,,,,,,,,,0,14,14,14,0,9,9,9,,,,,,,,,,,,,,,,,,,,,,,,,,,,,,,,,,,,,,,,,,,,,,,,,,,,,,,,,,,,,,,,,,,,,1.2394,888.3707789,None,space,1,888.3707789,None,0.5701526,P033,fencog,1,Post,2022_Apr_12_1224,N-Back (New Version 2021),2021.1.4,120.1966417
,,,,Conditions/Version_1/oneback(4)_v1.xlsx,New rule: Press 'space' when you see 1-back (i.e. the same letter as the one that appeared 1 letter ago.),,,,,,,,,,,0,14,14,14,,,,,,,,,,,,,,,,,,,,,,,,,,,,,,,,,,,,,,,,,,,,,,,,,,,,,,,,,,,,,,,,,,,,,,,,,,,,,,,,,P033,fencog,1,Post,2022_Apr_12_1224,N-Back (New Version 2021),2021.1.4,120.1966417
,,,,Conditions/Version_1/threeback(4)_v1.xlsx,New rule: Press 'space' when you see 3-back (i.e. the same letter as the one that appeared 3 letters ago.),A,None,,,,,,,,,0,15,15,15,0,0,0,0,,,,,,,,,,,,,,,,,,,,,,,,,,,,,,,,,,,,,,,,,,,,,,,,,,,,,,,,,,,890.4019173,None,893.3868197,None,space,0.4260653,893.3868197,None,890.4019173,None,1.3634,895.2121732,None,None,1,895.2121732,None,,P033,fencog,1,Post,2022_Apr_12_1224,N-Back (New Version 2021),2021.1.4,120.1966417
,,,,Conditions/Version_1/threeback(4)_v1.xlsx,New rule: Press 'space' when you see 3-back (i.e. the same letter as the one that appeared 3 letters ago.),n,None,,,,,,,,,0,15,15,15,0,1,1,1,,,,,,,,,,,,,,,,,,,,,,,,,,,,,,,,,,,,,,,,,,,,,,,,,,,,,,,,,,,,,,,,,,,,,1.6176,898.843537,None,None,1,898.843537,None,,P033,fencog,1,Post,2022_Apr_12_1224,N-Back (New Version 2021),2021.1.4,120.1966417
,,,,Conditions/Version_1/threeback(4)_v1.xlsx,New rule: Press 'space' when you see 3-back (i.e. the same letter as the one that appeared 3 letters ago.),g,None,,,,,,,,,0,15,15,15,0,2,2,2,,,,,,,,,,,,,,,,,,,,,,,,,,,,,,,,,,,,,,,,,,,,,,,,,,,,,,,,,,,,,,,,,,,,,1.2394,902.0931438,None,None,1,902.0931438,None,,P033,fencog,1,Post,2022_Apr_12_1224,N-Back (New Version 2021),2021.1.4,120.1966417
,,,,Conditions/Version_1/threeback(4)_v1.xlsx,New rule: Press 'space' when you see 3-back (i.e. the same letter as the one that appeared 3 letters ago.),A,space,,,,,,,,,0,15,15,15,0,3,3,3,,,,,,,,,,,,,,,,,,,,,,,,,,,,,,,,,,,,,,,,,,,,,,,,,,,,,,,,,,,,,,,,,,,,,1.0968,905.2024942,None,space,1,905.2024942,None,0.4502448,P033,fencog,1,Post,2022_Apr_12_1224,N-Back (New Version 2021),2021.1.4,120.1966417
,,,,Conditions/Version_1/threeback(4)_v1.xlsx,New rule: Press 'space' when you see 3-back (i.e. the same letter as the one that appeared 3 letters ago.),p,None,,,,,,,,,0,15,15,15,0,4,4,4,,,,,,,,,,,,,,,,,,,,,,,,,,,,,,,,,,,,,,,,,,,,,,,,,,,,,,,,,,,,,,,,,,,,,1.6858,908.8980172,None,None,1,908.8980172,None,,P033,fencog,1,Post,2022_Apr_12_1224,N-Back (New Version 2021),2021.1.4,120.1966417
,,,,Conditions/Version_1/threeback(4)_v1.xlsx,New rule: Press 'space' when you see 3-back (i.e. the same letter as the one that appeared 3 letters ago.),O,None,,,,,,,,,0,15,15,15,0,5,5,5,,,,,,,,,,,,,,,,,,,,,,,,,,,,,,,,,,,,,,,,,,,,,,,,,,,,,,,,,,,,,,,,,,,,,1.7602,912.6719414,None,None,1,912.6719414,None,,P033,fencog,1,Post,2022_Apr_12_1224,N-Back (New Version 2021),2021.1.4,120.1966417
,,,,Conditions/Version_1/threeback(4)_v1.xlsx,New rule: Press 'space' when you see 3-back (i.e. the same letter as the one that appeared 3 letters ago.),a,space,,,,,,,,,0,15,15,15,0,6,6,6,,,,,,,,,,,,,,,,,,,,,,,,,,,,,,,,,,,,,,,,,,,,,,,,,,,,,,,,,,,,,,,,,,,,,1.568,916.2547949,None,None,0,916.2547949,None,,P033,fencog,1,Post,2022_Apr_12_1224,N-Back (New Version 2021),2021.1.4,120.1966417
,,,,Conditions/Version_1/threeback(4)_v1.xlsx,New rule: Press 'space' when you see 3-back (i.e. the same letter as the one that appeared 3 letters ago.),p,space,,,,,,,,,0,15,15,15,0,7,7,7,,,,,,,,,,,,,,,,,,,,,,,,,,,,,,,,,,,,,,,,,,,,,,,,,,,,,,,,,,,,,,,,,,,,,1.0162,919.2741887,None,None,0,919.2741887,None,,P033,fencog,1,Post,2022_Apr_12_1224,N-Back (New Version 2021),2021.1.4,120.1966417
,,,,Conditions/Version_1/threeback(4)_v1.xlsx,New rule: Press 'space' when you see 3-back (i.e. the same letter as the one that appeared 3 letters ago.),x,None,,,,,,,,,0,15,15,15,0,8,8,8,,,,,,,,,,,,,,,,,,,,,,,,,,,,,,,,,,,,,,,,,,,,,,,,,,,,,,,,,,,,,,,,,,,,,1.723,923.0190544,None,None,1,923.0190544,None,,P033,fencog,1,Post,2022_Apr_12_1224,N-Back (New Version 2021),2021.1.4,120.1966417
,,,,Conditions/Version_1/threeback(4)_v1.xlsx,New rule: Press 'space' when you see 3-back (i.e. the same letter as the one that appeared 3 letters ago.),X,None,,,,,,,,,0,15,15,15,0,9,9,9,,,,,,,,,,,,,,,,,,,,,,,,,,,,,,,,,,,,,,,,,,,,,,,,,,,,,,,,,,,,,,,,,,,,,1.6796,926.7133829,None,None,1,926.7133829,None,,P033,fencog,1,Post,2022_Apr_12_1224,N-Back (New Version 2021),2021.1.4,120.1966417
,,,,Conditions/Version_1/threeback(4)_v1.xlsx,New rule: Press 'space' when you see 3-back (i.e. the same letter as the one that appeared 3 letters ago.),,,,,,,,,,,0,15,15,15,,,,,,,,,,,,,,,,,,,,,,,,,,,,,,,,,,,,,,,,,,,,,,,,,,,,,,,,,,,,,,,,,,,,,,,,,,,,,,,,,P033,fencog,1,Post,2022_Apr_12_1224,N-Back (New Version 2021),2021.1.4,120.1966417
