CondFileP,InstructionsP,LettersDisplayedP,CorrectnessP,CondFile,Instructions,LettersDisplayed,Correctness,practicetrials.thisRepN,practicetrials.thisTrialN,practicetrials.thisN,practicetrials.thisIndex,InnerLoopPractice.thisRepN,InnerLoopPractice.thisTrialN,InnerLoopPractice.thisN,InnerLoopPractice.thisIndex,trials.thisRepN,trials.thisTrialN,trials.thisN,trials.thisIndex,InnerLoop.thisRepN,InnerLoop.thisTrialN,InnerLoop.thisN,InnerLoop.thisIndex,TaskVersionText.started,TaskVersionText.stopped,InstrKey1.keys,InstrKey1.rt,InstrKey1.started,InstrKey1.stopped,text.started,text.stopped,key_resp_4.keys,key_resp_4.rt,key_resp_4.started,key_resp_4.stopped,text_2.started,text_2.stopped,key_resp_3.keys,key_resp_3.rt,key_resp_3.started,key_resp_3.stopped,text_3.started,text_3.stopped,key_resp_2.keys,key_resp_2.rt,key_resp_2.started,key_resp_2.stopped,PractIn1.started,PractIn1.stopped,PractIn2.started,PractIn2.stopped,PractInstructionPass.keys,PractInstructionPass.rt,PractInstructionPass.started,PractInstructionPass.stopped,PractBlock1.started,PractBlock1.stopped,ISIjitterPractice,ISI_Pract_Fixation.started,ISI_Pract_Fixation.stopped,N_backP.started,N_backP.stopped,KeyPractice.keys,KeyPractice.corr,KeyPractice.rt,KeyPractice.started,KeyPractice.stopped,text_4.started,text_4.stopped,TransitionText.started,TransitionText.stopped,key_resp_6.keys,key_resp_6.rt,key_resp_6.started,key_resp_6.stopped,text_5.started,text_5.stopped,key_resp_5.keys,key_resp_5.rt,key_resp_5.started,key_resp_5.stopped,MainInt1.started,MainInt1.stopped,MainInt2.started,MainInt2.stopped,InstructionPass.keys,InstructionPass.rt,InstructionPass.started,InstructionPass.stopped,Blocks1.started,Blocks1.stopped,ISIjitter,N_backD.started,N_backD.stopped,key_resp.keys,key_resp.corr,key_resp.started,key_resp.stopped,key_resp.rt,participant,Study Name,Task Version (required to run),PRE/POST,date,expName,psychopyVersion,frameRate,
,,,,,,,,,,,,,,,,,,,,,,,,24.340633300016634,None,space,89.43415589997312,24.83080080000218,None,,,,,,,,,,,,,,,,,,,,,,,,,,,,,,,,,,,,,,,,,,,,,,,,,,,,,,,,,,,,,,,,,,,,,,,P033,FENCOG,2,Pre,2022_Apr_05_1139,N-Back (New Version 2021),2021.1.4,120.04239893480636,
,,,,,,,,,,,,,,,,,,,,,,,,,,,,,,114.30306589999236,None,space,20.71668959996896,114.78817499999423,None,,,,,,,,,,,,,,,,,,,,,,,,,,,,,,,,,,,,,,,,,,,,,,,,,,,,,,,,,,,,,,,,,P033,FENCOG,2,Pre,2022_Apr_05_1139,N-Back (New Version 2021),2021.1.4,120.04239893480636,
,,,,,,,,,,,,,,,,,,,,,,,,,,,,,,,,,,,,135.54219170002034,None,space,10.178503100003581,136.03831909998553,None,,,,,,,,,,,,,,,,,,,,,,,,,,,,,,,,,,,,,,,,,,,,,,,,,,,,,,,,,,,P033,FENCOG,2,Pre,2022_Apr_05_1139,N-Back (New Version 2021),2021.1.4,120.04239893480636,
,,,,,,,,,,,,,,,,,,,,,,,,,,,,,,,,,,,,,,,,,,146.2441233000136,None,space,4.30346860003192,146.73738619999494,None,,,,,,,,,,,,,,,,,,,,,,,,,,,,,,,,,,,,,,,,,,,,,,,,,,,,,P033,FENCOG,2,Pre,2022_Apr_05_1139,N-Back (New Version 2021),2021.1.4,120.04239893480636,
Conditions/Version_2Pr/zeroback(1)_v2.xlsx,Rule: Press 'space' when you see the letter 'x' or 'X'.,x,space,,,,,0,0,0,0,0,0,0,0,,,,,,,,,,,,,,,,,,,,,,,,,,,,,,,,,152.42762719996972,None,155.41820010001538,None,space,2.2547122000250965,155.41820010001538,None,152.42762719996972,None,1.19,157.71437140001217,None,158.91059599997243,None,space,1,0.4423106999602169,158.91059599997243,None,159.37082419998478,None,,,,,,,,,,,,,,,,,,,,,,,,,,,,,,,P033,FENCOG,2,Pre,2022_Apr_05_1139,N-Back (New Version 2021),2021.1.4,120.04239893480636,
Conditions/Version_2Pr/zeroback(1)_v2.xlsx,Rule: Press 'space' when you see the letter 'x' or 'X'.,R,None,,,,,0,0,0,0,0,1,1,1,,,,,,,,,,,,,,,,,,,,,,,,,,,,,,,,,,,,,,,,,,,1.565,160.87369669997133,None,162.4422209999757,None,None,1,,162.4422209999757,None,164.4479365000152,None,,,,,,,,,,,,,,,,,,,,,,,,,,,,,,,P033,FENCOG,2,Pre,2022_Apr_05_1139,N-Back (New Version 2021),2021.1.4,120.04239893480636,
Conditions/Version_2Pr/zeroback(1)_v2.xlsx,Rule: Press 'space' when you see the letter 'x' or 'X'.,p,None,,,,,0,0,0,0,0,2,2,2,,,,,,,,,,,,,,,,,,,,,,,,,,,,,,,,,,,,,,,,,,,1.365,165.94728050002595,None,167.3164028999745,None,None,1,,167.3164028999745,None,169.32148410001537,None,,,,,,,,,,,,,,,,,,,,,,,,,,,,,,,P033,FENCOG,2,Pre,2022_Apr_05_1139,N-Back (New Version 2021),2021.1.4,120.04239893480636,
Conditions/Version_2Pr/zeroback(1)_v2.xlsx,Rule: Press 'space' when you see the letter 'x' or 'X'.,O,None,,,,,0,0,0,0,0,3,3,3,,,,,,,,,,,,,,,,,,,,,,,,,,,,,,,,,,,,,,,,,,,1.74,170.82102879998274,None,172.5661984999897,None,None,1,,172.5661984999897,None,174.56995640002424,None,,,,,,,,,,,,,,,,,,,,,,,,,,,,,,,P033,FENCOG,2,Pre,2022_Apr_05_1139,N-Back (New Version 2021),2021.1.4,120.04239893480636,
Conditions/Version_2Pr/zeroback(1)_v2.xlsx,Rule: Press 'space' when you see the letter 'x' or 'X'.,i,None,,,,,0,0,0,0,0,4,4,4,,,,,,,,,,,,,,,,,,,,,,,,,,,,,,,,,,,,,,,,,,,1.815,176.06950310000684,None,177.88732639997033,None,None,1,,177.88732639997033,None,179.8931775999954,None,,,,,,,,,,,,,,,,,,,,,,,,,,,,,,,P033,FENCOG,2,Pre,2022_Apr_05_1139,N-Back (New Version 2021),2021.1.4,120.04239893480636,
Conditions/Version_2Pr/zeroback(1)_v2.xlsx,Rule: Press 'space' when you see the letter 'x' or 'X'.,U,None,,,,,0,0,0,0,0,5,5,5,,,,,,,,,,,,,,,,,,,,,,,,,,,,,,,,,,,,,,,,,,,1.315,181.3929387999815,None,182.71295369998552,None,None,1,,182.71295369998552,None,184.71691939997254,None,,,,,,,,,,,,,,,,,,,,,,,,,,,,,,,P033,FENCOG,2,Pre,2022_Apr_05_1139,N-Back (New Version 2021),2021.1.4,120.04239893480636,
Conditions/Version_2Pr/zeroback(1)_v2.xlsx,Rule: Press 'space' when you see the letter 'x' or 'X'.,N,None,,,,,0,0,0,0,0,6,6,6,,,,,,,,,,,,,,,,,,,,,,,,,,,,,,,,,,,,,,,,,,,1.29,186.21648240002105,None,187.50842430000193,None,None,1,,187.50842430000193,None,189.51107369997771,None,,,,,,,,,,,,,,,,,,,,,,,,,,,,,,,P033,FENCOG,2,Pre,2022_Apr_05_1139,N-Back (New Version 2021),2021.1.4,120.04239893480636,
Conditions/Version_2Pr/zeroback(1)_v2.xlsx,Rule: Press 'space' when you see the letter 'x' or 'X'.,m,None,,,,,0,0,0,0,0,7,7,7,,,,,,,,,,,,,,,,,,,,,,,,,,,,,,,,,,,,,,,,,,,1.39,191.01504849997582,None,192.40787270001601,None,None,1,,192.40787270001601,None,194.41410900000483,None,,,,,,,,,,,,,,,,,,,,,,,,,,,,,,,P033,FENCOG,2,Pre,2022_Apr_05_1139,N-Back (New Version 2021),2021.1.4,120.04239893480636,
Conditions/Version_2Pr/zeroback(1)_v2.xlsx,Rule: Press 'space' when you see the letter 'x' or 'X'.,x,space,,,,,0,0,0,0,0,8,8,8,,,,,,,,,,,,,,,,,,,,,,,,,,,,,,,,,,,,,,,,,,,1.49,195.91363109997474,None,197.40574560000096,None,space,1,0.40302570001222193,197.40574560000096,None,197.82218119996833,None,,,,,,,,,,,,,,,,,,,,,,,,,,,,,,,P033,FENCOG,2,Pre,2022_Apr_05_1139,N-Back (New Version 2021),2021.1.4,120.04239893480636,
Conditions/Version_2Pr/zeroback(1)_v2.xlsx,Rule: Press 'space' when you see the letter 'x' or 'X'.,X,space,,,,,0,0,0,0,0,9,9,9,,,,,,,,,,,,,,,,,,,,,,,,,,,,,,,,,,,,,,,,,,,1.865,199.32932139997138,None,201.19830370001728,None,space,1,0.46676410001236945,201.19830370001728,None,201.67995800002245,None,,,,,,,,,,,,,,,,,,,,,,,,,,,,,,,P033,FENCOG,2,Pre,2022_Apr_05_1139,N-Back (New Version 2021),2021.1.4,120.04239893480636,
Conditions/Version_2Pr/zeroback(1)_v2.xlsx,Rule: Press 'space' when you see the letter 'x' or 'X'.,,,,,,,0,0,0,0,,,,,,,,,,,,,,,,,,,,,,,,,,,,,,,,,,,,,,,,,,,,,,,,,,,,,,,,,,,,,,,,,,,,,,,,,,,,,,,,,,,,,,,,,P033,FENCOG,2,Pre,2022_Apr_05_1139,N-Back (New Version 2021),2021.1.4,120.04239893480636,
Conditions/Version_2Pr/oneback(1)_v2.xlsx,New rule: Press 'space' when you see 1-back (i.e. the same letter as the one that appeared 1 letter ago.),r,None,,,,,0,1,1,1,0,0,0,0,,,,,,,,,,,,,,,,,,,,,,,,,,,,,,,,,203.212331000017,None,206.19567149999784,None,space,9.301402500015683,206.19567149999784,None,203.212331000017,None,1.165,215.52558790001785,None,216.69333410001127,None,None,1,,216.69333410001127,None,218.6986135999905,None,,,,,,,,,,,,,,,,,,,,,,,,,,,,,,,P033,FENCOG,2,Pre,2022_Apr_05_1139,N-Back (New Version 2021),2021.1.4,120.04239893480636,
Conditions/Version_2Pr/oneback(1)_v2.xlsx,New rule: Press 'space' when you see 1-back (i.e. the same letter as the one that appeared 1 letter ago.),t,None,,,,,0,1,1,1,0,1,1,1,,,,,,,,,,,,,,,,,,,,,,,,,,,,,,,,,,,,,,,,,,,1.99,220.1981585000176,None,222.1919214000227,None,None,1,,222.1919214000227,None,224.1970011999947,None,,,,,,,,,,,,,,,,,,,,,,,,,,,,,,,P033,FENCOG,2,Pre,2022_Apr_05_1139,N-Back (New Version 2021),2021.1.4,120.04239893480636,
Conditions/Version_2Pr/oneback(1)_v2.xlsx,New rule: Press 'space' when you see 1-back (i.e. the same letter as the one that appeared 1 letter ago.),Y,None,,,,,0,1,1,1,0,2,2,2,,,,,,,,,,,,,,,,,,,,,,,,,,,,,,,,,,,,,,,,,,,1.64,225.69654319999972,None,227.33833930001128,None,None,1,,227.33833930001128,None,229.34543599997414,None,,,,,,,,,,,,,,,,,,,,,,,,,,,,,,,P033,FENCOG,2,Pre,2022_Apr_05_1139,N-Back (New Version 2021),2021.1.4,120.04239893480636,
Conditions/Version_2Pr/oneback(1)_v2.xlsx,New rule: Press 'space' when you see 1-back (i.e. the same letter as the one that appeared 1 letter ago.),y,space,,,,,0,1,1,1,0,3,3,3,,,,,,,,,,,,,,,,,,,,,,,,,,,,,,,,,,,,,,,,,,,1.665,230.84479920001468,None,232.5121118000243,None,space,1,0.3526920999865979,232.5121118000243,None,232.87910620000912,None,,,,,,,,,,,,,,,,,,,,,,,,,,,,,,,P033,FENCOG,2,Pre,2022_Apr_05_1139,N-Back (New Version 2021),2021.1.4,120.04239893480636,
Conditions/Version_2Pr/oneback(1)_v2.xlsx,New rule: Press 'space' when you see 1-back (i.e. the same letter as the one that appeared 1 letter ago.),p,None,,,,,0,1,1,1,0,4,4,4,,,,,,,,,,,,,,,,,,,,,,,,,,,,,,,,,,,,,,,,,,,1.79,234.3860784000135,None,236.17656679998618,None,None,1,,236.17656679998618,None,238.17609359999187,None,,,,,,,,,,,,,,,,,,,,,,,,,,,,,,,P033,FENCOG,2,Pre,2022_Apr_05_1139,N-Back (New Version 2021),2021.1.4,120.04239893480636,
Conditions/Version_2Pr/oneback(1)_v2.xlsx,New rule: Press 'space' when you see 1-back (i.e. the same letter as the one that appeared 1 letter ago.),P,space,,,,,0,1,1,1,0,5,5,5,,,,,,,,,,,,,,,,,,,,,,,,,,,,,,,,,,,,,,,,,,,2.015,239.677075900021,None,241.69365859997924,None,space,1,0.41150699998252094,241.69365859997924,None,242.11839850002434,None,,,,,,,,,,,,,,,,,,,,,,,,,,,,,,,P033,FENCOG,2,Pre,2022_Apr_05_1139,N-Back (New Version 2021),2021.1.4,120.04239893480636,
Conditions/Version_2Pr/oneback(1)_v2.xlsx,New rule: Press 'space' when you see 1-back (i.e. the same letter as the one that appeared 1 letter ago.),e,None,,,,,0,1,1,1,0,6,6,6,,,,,,,,,,,,,,,,,,,,,,,,,,,,,,,,,,,,,,,,,,,1.89,243.6245619999827,None,245.51711650000652,None,None,1,,245.51711650000652,None,247.52329380001174,None,,,,,,,,,,,,,,,,,,,,,,,,,,,,,,,P033,FENCOG,2,Pre,2022_Apr_05_1139,N-Back (New Version 2021),2021.1.4,120.04239893480636,
Conditions/Version_2Pr/oneback(1)_v2.xlsx,New rule: Press 'space' when you see 1-back (i.e. the same letter as the one that appeared 1 letter ago.),r,None,,,,,0,1,1,1,0,7,7,7,,,,,,,,,,,,,,,,,,,,,,,,,,,,,,,,,,,,,,,,,,,1.59,249.023027200019,None,250.61751690000528,None,None,1,,250.61751690000528,None,252.62199690000853,None,,,,,,,,,,,,,,,,,,,,,,,,,,,,,,,P033,FENCOG,2,Pre,2022_Apr_05_1139,N-Back (New Version 2021),2021.1.4,120.04239893480636,
Conditions/Version_2Pr/oneback(1)_v2.xlsx,New rule: Press 'space' when you see 1-back (i.e. the same letter as the one that appeared 1 letter ago.),R,space,,,,,0,1,1,1,0,8,8,8,,,,,,,,,,,,,,,,,,,,,,,,,,,,,,,,,,,,,,,,,,,1.765,254.12157710001338,None,255.8893642000039,None,space,1,0.4793927000137046,255.8893642000039,None,256.38072080002166,None,,,,,,,,,,,,,,,,,,,,,,,,,,,,,,,P033,FENCOG,2,Pre,2022_Apr_05_1139,N-Back (New Version 2021),2021.1.4,120.04239893480636,
Conditions/Version_2Pr/oneback(1)_v2.xlsx,New rule: Press 'space' when you see 1-back (i.e. the same letter as the one that appeared 1 letter ago.),p,None,,,,,0,1,1,1,0,9,9,9,,,,,,,,,,,,,,,,,,,,,,,,,,,,,,,,,,,,,,,,,,,1.515,257.88694160000887,None,259.4042068999843,None,None,1,,259.4042068999843,None,261.41102830000455,None,,,,,,,,,,,,,,,,,,,,,,,,,,,,,,,P033,FENCOG,2,Pre,2022_Apr_05_1139,N-Back (New Version 2021),2021.1.4,120.04239893480636,
Conditions/Version_2Pr/oneback(1)_v2.xlsx,New rule: Press 'space' when you see 1-back (i.e. the same letter as the one that appeared 1 letter ago.),,,,,,,0,1,1,1,,,,,,,,,,,,,,,,,,,,,,,,,,,,,,,,,,,,,,,,,,,,,,,,,,,,,,,,,,,,,,,,,,,,,,,,,,,,,,,,,,,,,,,,,P033,FENCOG,2,Pre,2022_Apr_05_1139,N-Back (New Version 2021),2021.1.4,120.04239893480636,
Conditions/Version_2Pr/twoback(1)_v2.xlsx,New rule: Press 'space' when you see 2-back (i.e. the same letter as the one that appeared 2 letters ago.),r,None,,,,,0,2,2,2,0,0,0,0,,,,,,,,,,,,,,,,,,,,,,,,,,,,,,,,,262.9334364000242,None,265.91961949999677,None,space,0.44912400003522635,265.91961949999677,None,262.9334364000242,None,1.665,266.39704700000584,None,268.06698800000595,None,None,1,,268.06698800000595,None,270.0667216000147,None,,,,,,,,,,,,,,,,,,,,,,,,,,,,,,,P033,FENCOG,2,Pre,2022_Apr_05_1139,N-Back (New Version 2021),2021.1.4,120.04239893480636,
Conditions/Version_2Pr/twoback(1)_v2.xlsx,New rule: Press 'space' when you see 2-back (i.e. the same letter as the one that appeared 2 letters ago.),P,None,,,,,0,2,2,2,0,1,1,1,,,,,,,,,,,,,,,,,,,,,,,,,,,,,,,,,,,,,,,,,,,1.64,271.5663513999898,None,273.20825700002024,None,None,1,,273.20825700002024,None,275.2153177,None,,,,,,,,,,,,,,,,,,,,,,,,,,,,,,,P033,FENCOG,2,Pre,2022_Apr_05_1139,N-Back (New Version 2021),2021.1.4,120.04239893480636,
Conditions/Version_2Pr/twoback(1)_v2.xlsx,New rule: Press 'space' when you see 2-back (i.e. the same letter as the one that appeared 2 letters ago.),o,None,,,,,0,2,2,2,0,2,2,2,,,,,,,,,,,,,,,,,,,,,,,,,,,,,,,,,,,,,,,,,,,1.59,276.7149249999784,None,278.3100834999932,None,None,1,,278.3100834999932,None,280.31358369998634,None,,,,,,,,,,,,,,,,,,,,,,,,,,,,,,,P033,FENCOG,2,Pre,2022_Apr_05_1139,N-Back (New Version 2021),2021.1.4,120.04239893480636,
Conditions/Version_2Pr/twoback(1)_v2.xlsx,New rule: Press 'space' when you see 2-back (i.e. the same letter as the one that appeared 2 letters ago.),p,space,,,,,0,2,2,2,0,3,3,3,,,,,,,,,,,,,,,,,,,,,,,,,,,,,,,,,,,,,,,,,,,1.29,281.8132924999809,None,283.1053602999891,None,space,1,0.3836930000106804,283.1053602999891,None,283.4989224000019,None,,,,,,,,,,,,,,,,,,,,,,,,,,,,,,,P033,FENCOG,2,Pre,2022_Apr_05_1139,N-Back (New Version 2021),2021.1.4,120.04239893480636,
Conditions/Version_2Pr/twoback(1)_v2.xlsx,New rule: Press 'space' when you see 2-back (i.e. the same letter as the one that appeared 2 letters ago.),Y,None,,,,,0,2,2,2,0,4,4,4,,,,,,,,,,,,,,,,,,,,,,,,,,,,,,,,,,,,,,,,,,,1.84,285.00406449998263,None,286.84624220000114,None,None,1,,286.84624220000114,None,288.8529153999989,None,,,,,,,,,,,,,,,,,,,,,,,,,,,,,,,P033,FENCOG,2,Pre,2022_Apr_05_1139,N-Back (New Version 2021),2021.1.4,120.04239893480636,
Conditions/Version_2Pr/twoback(1)_v2.xlsx,New rule: Press 'space' when you see 2-back (i.e. the same letter as the one that appeared 2 letters ago.),q,None,,,,,0,2,2,2,0,5,5,5,,,,,,,,,,,,,,,,,,,,,,,,,,,,,,,,,,,,,,,,,,,1.565,290.352547699993,None,291.92034840001725,None,None,1,,291.92034840001725,None,293.9264718000195,None,,,,,,,,,,,,,,,,,,,,,,,,,,,,,,,P033,FENCOG,2,Pre,2022_Apr_05_1139,N-Back (New Version 2021),2021.1.4,120.04239893480636,
Conditions/Version_2Pr/twoback(1)_v2.xlsx,New rule: Press 'space' when you see 2-back (i.e. the same letter as the one that appeared 2 letters ago.),m,None,,,,,0,2,2,2,0,6,6,6,,,,,,,,,,,,,,,,,,,,,,,,,,,,,,,,,,,,,,,,,,,1.09,295.42593999998644,None,296.5181901999749,None,None,1,,296.5181901999749,None,298.52508310001576,None,,,,,,,,,,,,,,,,,,,,,,,,,,,,,,,P033,FENCOG,2,Pre,2022_Apr_05_1139,N-Back (New Version 2021),2021.1.4,120.04239893480636,
Conditions/Version_2Pr/twoback(1)_v2.xlsx,New rule: Press 'space' when you see 2-back (i.e. the same letter as the one that appeared 2 letters ago.),Q,space,,,,,0,2,2,2,0,7,7,7,,,,,,,,,,,,,,,,,,,,,,,,,,,,,,,,,,,,,,,,,,,1.79,300.0246881999774,None,301.8182792000007,None,space,1,0.33458770002471283,301.8182792000007,None,302.16598879999947,None,,,,,,,,,,,,,,,,,,,,,,,,,,,,,,,P033,FENCOG,2,Pre,2022_Apr_05_1139,N-Back (New Version 2021),2021.1.4,120.04239893480636,
Conditions/Version_2Pr/twoback(1)_v2.xlsx,New rule: Press 'space' when you see 2-back (i.e. the same letter as the one that appeared 2 letters ago.),L,None,,,,,0,2,2,2,0,8,8,8,,,,,,,,,,,,,,,,,,,,,,,,,,,,,,,,,,,,,,,,,,,1.24,303.6650640000007,None,304.90924210002413,None,None,1,,304.90924210002413,None,306.9143742999877,None,,,,,,,,,,,,,,,,,,,,,,,,,,,,,,,P033,FENCOG,2,Pre,2022_Apr_05_1139,N-Back (New Version 2021),2021.1.4,120.04239893480636,
Conditions/Version_2Pr/twoback(1)_v2.xlsx,New rule: Press 'space' when you see 2-back (i.e. the same letter as the one that appeared 2 letters ago.),q,space,,,,,0,2,2,2,0,9,9,9,,,,,,,,,,,,,,,,,,,,,,,,,,,,,,,,,,,,,,,,,,,1.44,308.4134995000204,None,309.854874200013,None,space,1,0.3781011000392027,309.854874200013,None,310.2482052000123,None,,,,,,,,,,,,,,,,,,,,,,,,,,,,,,,P033,FENCOG,2,Pre,2022_Apr_05_1139,N-Back (New Version 2021),2021.1.4,120.04239893480636,
Conditions/Version_2Pr/twoback(1)_v2.xlsx,New rule: Press 'space' when you see 2-back (i.e. the same letter as the one that appeared 2 letters ago.),,,,,,,0,2,2,2,,,,,,,,,,,,,,,,,,,,,,,,,,,,,,,,,,,,,,,,,,,,,,,,,,,,,,,,,,,,,,,,,,,,,,,,,,,,,,,,,,,,,,,,,P033,FENCOG,2,Pre,2022_Apr_05_1139,N-Back (New Version 2021),2021.1.4,120.04239893480636,
Conditions/Version_2Pr/threeback(1)_v2.xlsx,New rule: Press 'space' when you see 3-back (i.e. the same letter as the one that appeared 3 letters ago.),u,None,,,,,0,3,3,3,0,0,0,0,,,,,,,,,,,,,,,,,,,,,,,,,,,,,,,,,311.77751799998805,None,314.7640584000037,None,space,0.9650505000026897,314.7640584000037,None,311.77751799998805,None,1.59,315.7557933999924,None,317.35554929997306,None,None,1,,317.35554929997306,None,319.3606326999725,None,,,,,,,,,,,,,,,,,,,,,,,,,,,,,,,P033,FENCOG,2,Pre,2022_Apr_05_1139,N-Back (New Version 2021),2021.1.4,120.04239893480636,
Conditions/Version_2Pr/threeback(1)_v2.xlsx,New rule: Press 'space' when you see 3-back (i.e. the same letter as the one that appeared 3 letters ago.),U,None,,,,,0,3,3,3,0,1,1,1,,,,,,,,,,,,,,,,,,,,,,,,,,,,,,,,,,,,,,,,,,,1.965,320.8601638000109,None,322.82603360002395,None,None,1,,322.82603360002395,None,324.82567320001544,None,,,,,,,,,,,,,,,,,,,,,,,,,,,,,,,P033,FENCOG,2,Pre,2022_Apr_05_1139,N-Back (New Version 2021),2021.1.4,120.04239893480636,
Conditions/Version_2Pr/threeback(1)_v2.xlsx,New rule: Press 'space' when you see 3-back (i.e. the same letter as the one that appeared 3 letters ago.),p,None,,,,,0,3,3,3,0,2,2,2,,,,,,,,,,,,,,,,,,,,,,,,,,,,,,,,,,,,,,,,,,,1.265,326.3252033999888,None,327.59213880001334,None,None,1,,327.59213880001334,None,329.5992932000081,None,,,,,,,,,,,,,,,,,,,,,,,,,,,,,,,P033,FENCOG,2,Pre,2022_Apr_05_1139,N-Back (New Version 2021),2021.1.4,120.04239893480636,
Conditions/Version_2Pr/threeback(1)_v2.xlsx,New rule: Press 'space' when you see 3-back (i.e. the same letter as the one that appeared 3 letters ago.),U,space,,,,,0,3,3,3,0,3,3,3,,,,,,,,,,,,,,,,,,,,,,,,,,,,,,,,,,,,,,,,,,,1.29,331.0987871999969,None,332.39108229998965,None,space,1,0.3698090999969281,332.39108229998965,None,332.7746511999867,None,,,,,,,,,,,,,,,,,,,,,,,,,,,,,,,P033,FENCOG,2,Pre,2022_Apr_05_1139,N-Back (New Version 2021),2021.1.4,120.04239893480636,
Conditions/Version_2Pr/threeback(1)_v2.xlsx,New rule: Press 'space' when you see 3-back (i.e. the same letter as the one that appeared 3 letters ago.),e,None,,,,,0,3,3,3,0,4,4,4,,,,,,,,,,,,,,,,,,,,,,,,,,,,,,,,,,,,,,,,,,,1.615,334.2811925999704,None,335.89838919998147,None,None,1,,335.89838919998147,None,337.9051625999855,None,,,,,,,,,,,,,,,,,,,,,,,,,,,,,,,P033,FENCOG,2,Pre,2022_Apr_05_1139,N-Back (New Version 2021),2021.1.4,120.04239893480636,
Conditions/Version_2Pr/threeback(1)_v2.xlsx,New rule: Press 'space' when you see 3-back (i.e. the same letter as the one that appeared 3 letters ago.),R,None,,,,,0,3,3,3,0,5,5,5,,,,,,,,,,,,,,,,,,,,,,,,,,,,,,,,,,,,,,,,,,,1.815,339.4047144000069,None,341.2211073000217,None,None,1,,341.2211073000217,None,343.22026189998724,None,,,,,,,,,,,,,,,,,,,,,,,,,,,,,,,P033,FENCOG,2,Pre,2022_Apr_05_1139,N-Back (New Version 2021),2021.1.4,120.04239893480636,
Conditions/Version_2Pr/threeback(1)_v2.xlsx,New rule: Press 'space' when you see 3-back (i.e. the same letter as the one that appeared 3 letters ago.),p,None,,,,,0,3,3,3,0,6,6,6,,,,,,,,,,,,,,,,,,,,,,,,,,,,,,,,,,,,,,,,,,,1.09,344.7231206999859,None,345.82048519997625,None,space,0,0.8924952000379562,345.82048519997625,None,346.7326543999952,None,,,,,,,,,,,,,,,,,,,,,,,,,,,,,,,P033,FENCOG,2,Pre,2022_Apr_05_1139,N-Back (New Version 2021),2021.1.4,120.04239893480636,
Conditions/Version_2Pr/threeback(1)_v2.xlsx,New rule: Press 'space' when you see 3-back (i.e. the same letter as the one that appeared 3 letters ago.),E,space,,,,,0,3,3,3,0,7,7,7,,,,,,,,,,,,,,,,,,,,,,,,,,,,,,,,,,,,,,,,,,,1.315,348.23545169999124,None,349.5544588000048,None,space,1,0.9343461999669671,349.5544588000048,None,350.5043172999867,None,,,,,,,,,,,,,,,,,,,,,,,,,,,,,,,P033,FENCOG,2,Pre,2022_Apr_05_1139,N-Back (New Version 2021),2021.1.4,120.04239893480636,
Conditions/Version_2Pr/threeback(1)_v2.xlsx,New rule: Press 'space' when you see 3-back (i.e. the same letter as the one that appeared 3 letters ago.),k,None,,,,,0,3,3,3,0,8,8,8,,,,,,,,,,,,,,,,,,,,,,,,,,,,,,,,,,,,,,,,,,,2.015,352.00916760001564,None,354.0282914999989,None,None,1,,354.0282914999989,None,356.0331569999689,None,,,,,,,,,,,,,,,,,,,,,,,,,,,,,,,P033,FENCOG,2,Pre,2022_Apr_05_1139,N-Back (New Version 2021),2021.1.4,120.04239893480636,
Conditions/Version_2Pr/threeback(1)_v2.xlsx,New rule: Press 'space' when you see 3-back (i.e. the same letter as the one that appeared 3 letters ago.),m,None,,,,,0,3,3,3,0,9,9,9,,,,,,,,,,,,,,,,,,,,,,,,,,,,,,,,,,,,,,,,,,,1.84,357.53273259999696,None,359.37412049999693,None,space,0,0.7867189000244252,359.37412049999693,None,360.1772835999727,None,,,,,,,,,,,,,,,,,,,,,,,,,,,,,,,P033,FENCOG,2,Pre,2022_Apr_05_1139,N-Back (New Version 2021),2021.1.4,120.04239893480636,
Conditions/Version_2Pr/threeback(1)_v2.xlsx,New rule: Press 'space' when you see 3-back (i.e. the same letter as the one that appeared 3 letters ago.),,,,,,,0,3,3,3,,,,,,,,,,,,,,,,,,,,,,,,,,,,,,,,,,,,,,,,,,,,,,,,,,,,,,,,,,,,,,,,,,,,,,,,,,,,,,,,,,,,,,,,,P033,FENCOG,2,Pre,2022_Apr_05_1139,N-Back (New Version 2021),2021.1.4,120.04239893480636,
,,,,,,,,,,,,,,,,,,,,,,,,,,,,,,,,,,,,,,,,,,,,,,,,,,,,,,,,,,,,,,,,,,,,,,361.6898485000129,None,space,1.7153507000184618,362.18157399998745,None,,,,,,,,,,,,,,,,,,,,,,,,,P033,FENCOG,2,Pre,2022_Apr_05_1139,N-Back (New Version 2021),2021.1.4,120.04239893480636,
,,,,,,,,,,,,,,,,,,,,,,,,,,,,,,,,,,,,,,,,,,,,,,,,,,,,,,,,,,,,,,,,,,,,,,,,,,,,363.92242899996927,None,space,5.442533200024627,364.41451899998356,None,,,,,,,,,,,,,,,,,,,P033,FENCOG,2,Pre,2022_Apr_05_1139,N-Back (New Version 2021),2021.1.4,120.04239893480636,
,,,,Conditions/Version_1/zeroback(1)_v1.xlsx,Rule: Press 'space' when you see the letter 'x' or 'X'.,b,None,,,,,,,,,0,0,0,0,0,0,0,0,,,,,,,,,,,,,,,,,,,,,,,,,,,,,,,,,,,,,,,,,,,,,,,,,,,,,,,,,,,369.9738894000184,None,372.9632986999932,None,space,2.485815299965907,372.9632986999932,None,369.9738894000184,None,1.692,377.17830089997733,None,None,1,377.17830089997733,None,,P033,FENCOG,2,Pre,2022_Apr_05_1139,N-Back (New Version 2021),2021.1.4,120.04239893480636,
,,,,Conditions/Version_1/zeroback(1)_v1.xlsx,Rule: Press 'space' when you see the letter 'x' or 'X'.,T,None,,,,,,,,,0,0,0,0,0,1,1,1,,,,,,,,,,,,,,,,,,,,,,,,,,,,,,,,,,,,,,,,,,,,,,,,,,,,,,,,,,,,,,,,,,,,,1.5928,380.7855646000244,None,None,1,380.7855646000244,None,,P033,FENCOG,2,Pre,2022_Apr_05_1139,N-Back (New Version 2021),2021.1.4,120.04239893480636,
,,,,Conditions/Version_1/zeroback(1)_v1.xlsx,Rule: Press 'space' when you see the letter 'x' or 'X'.,L,None,,,,,,,,,0,0,0,0,0,2,2,2,,,,,,,,,,,,,,,,,,,,,,,,,,,,,,,,,,,,,,,,,,,,,,,,,,,,,,,,,,,,,,,,,,,,,1.1526,383.950431699981,None,None,1,383.950431699981,None,,P033,FENCOG,2,Pre,2022_Apr_05_1139,N-Back (New Version 2021),2021.1.4,120.04239893480636,
,,,,Conditions/Version_1/zeroback(1)_v1.xlsx,Rule: Press 'space' when you see the letter 'x' or 'X'.,x,space,,,,,,,,,0,0,0,0,0,3,3,3,,,,,,,,,,,,,,,,,,,,,,,,,,,,,,,,,,,,,,,,,,,,,,,,,,,,,,,,,,,,,,,,,,,,,1.3758,387.3406244000071,None,space,1,387.3406244000071,None,0.9162789999973029,P033,FENCOG,2,Pre,2022_Apr_05_1139,N-Back (New Version 2021),2021.1.4,120.04239893480636,
,,,,Conditions/Version_1/zeroback(1)_v1.xlsx,Rule: Press 'space' when you see the letter 'x' or 'X'.,o,None,,,,,,,,,0,0,0,0,0,4,4,4,,,,,,,,,,,,,,,,,,,,,,,,,,,,,,,,,,,,,,,,,,,,,,,,,,,,,,,,,,,,,,,,,,,,,1.7912,391.1392612999771,None,None,1,391.1392612999771,None,,P033,FENCOG,2,Pre,2022_Apr_05_1139,N-Back (New Version 2021),2021.1.4,120.04239893480636,
,,,,Conditions/Version_1/zeroback(1)_v1.xlsx,Rule: Press 'space' when you see the letter 'x' or 'X'.,P,None,,,,,,,,,0,0,0,0,0,5,5,5,,,,,,,,,,,,,,,,,,,,,,,,,,,,,,,,,,,,,,,,,,,,,,,,,,,,,,,,,,,,,,,,,,,,,1.2952,394.43872099998407,None,None,1,394.43872099998407,None,,P033,FENCOG,2,Pre,2022_Apr_05_1139,N-Back (New Version 2021),2021.1.4,120.04239893480636,
,,,,Conditions/Version_1/zeroback(1)_v1.xlsx,Rule: Press 'space' when you see the letter 'x' or 'X'.,X,space,,,,,,,,,0,0,0,0,0,6,6,6,,,,,,,,,,,,,,,,,,,,,,,,,,,,,,,,,,,,,,,,,,,,,,,,,,,,,,,,,,,,,,,,,,,,,1.258,397.69616019999376,None,space,1,397.69616019999376,None,0.44872420001775026,P033,FENCOG,2,Pre,2022_Apr_05_1139,N-Back (New Version 2021),2021.1.4,120.04239893480636,
,,,,Conditions/Version_1/zeroback(1)_v1.xlsx,Rule: Press 'space' when you see the letter 'x' or 'X'.,n,None,,,,,,,,,0,0,0,0,0,7,7,7,,,,,,,,,,,,,,,,,,,,,,,,,,,,,,,,,,,,,,,,,,,,,,,,,,,,,,,,,,,,,,,,,,,,,1.8656,401.5652422999847,None,None,1,401.5652422999847,None,,P033,FENCOG,2,Pre,2022_Apr_05_1139,N-Back (New Version 2021),2021.1.4,120.04239893480636,
,,,,Conditions/Version_1/zeroback(1)_v1.xlsx,Rule: Press 'space' when you see the letter 'x' or 'X'.,M,None,,,,,,,,,0,0,0,0,0,8,8,8,,,,,,,,,,,,,,,,,,,,,,,,,,,,,,,,,,,,,,,,,,,,,,,,,,,,,,,,,,,,,,,,,,,,,1.4006,404.9718065999914,None,None,1,404.9718065999914,None,,P033,FENCOG,2,Pre,2022_Apr_05_1139,N-Back (New Version 2021),2021.1.4,120.04239893480636,
,,,,Conditions/Version_1/zeroback(1)_v1.xlsx,Rule: Press 'space' when you see the letter 'x' or 'X'.,a,None,,,,,,,,,0,0,0,0,0,9,9,9,,,,,,,,,,,,,,,,,,,,,,,,,,,,,,,,,,,,,,,,,,,,,,,,,,,,,,,,,,,,,,,,,,,,,1.2084,408.18629550002515,None,None,1,408.18629550002515,None,,P033,FENCOG,2,Pre,2022_Apr_05_1139,N-Back (New Version 2021),2021.1.4,120.04239893480636,
,,,,Conditions/Version_1/zeroback(1)_v1.xlsx,Rule: Press 'space' when you see the letter 'x' or 'X'.,,,,,,,,,,,0,0,0,0,,,,,,,,,,,,,,,,,,,,,,,,,,,,,,,,,,,,,,,,,,,,,,,,,,,,,,,,,,,,,,,,,,,,,,,,,,,,,,,,,P033,FENCOG,2,Pre,2022_Apr_05_1139,N-Back (New Version 2021),2021.1.4,120.04239893480636,
,,,,Conditions/Version_1/oneback(1)_v1.xlsx,New rule: Press 'space' when you see 1-back (i.e. the same letter as the one that appeared 1 letter ago.),b,None,,,,,,,,,0,1,1,1,0,0,0,0,,,,,,,,,,,,,,,,,,,,,,,,,,,,,,,,,,,,,,,,,,,,,,,,,,,,,,,,,,,410.2139589000144,None,413.20087090000743,None,space,1.4241218999959528,413.20087090000743,None,410.2139589000144,None,1.2456,415.9069698000094,None,None,1,415.9069698000094,None,,P033,FENCOG,2,Pre,2022_Apr_05_1139,N-Back (New Version 2021),2021.1.4,120.04239893480636,
,,,,Conditions/Version_1/oneback(1)_v1.xlsx,New rule: Press 'space' when you see 1-back (i.e. the same letter as the one that appeared 1 letter ago.),p,None,,,,,,,,,0,1,1,1,0,1,1,1,,,,,,,,,,,,,,,,,,,,,,,,,,,,,,,,,,,,,,,,,,,,,,,,,,,,,,,,,,,,,,,,,,,,,1.4688,419.38328999996884,None,None,1,419.38328999996884,None,,P033,FENCOG,2,Pre,2022_Apr_05_1139,N-Back (New Version 2021),2021.1.4,120.04239893480636,
,,,,Conditions/Version_1/oneback(1)_v1.xlsx,New rule: Press 'space' when you see 1-back (i.e. the same letter as the one that appeared 1 letter ago.),M,None,,,,,,,,,0,1,1,1,0,2,2,2,,,,,,,,,,,,,,,,,,,,,,,,,,,,,,,,,,,,,,,,,,,,,,,,,,,,,,,,,,,,,,,,,,,,,1.5122,422.8975468999706,None,None,1,422.8975468999706,None,,P033,FENCOG,2,Pre,2022_Apr_05_1139,N-Back (New Version 2021),2021.1.4,120.04239893480636,
,,,,Conditions/Version_1/oneback(1)_v1.xlsx,New rule: Press 'space' when you see 1-back (i.e. the same letter as the one that appeared 1 letter ago.),M,space,,,,,,,,,0,1,1,1,0,3,3,3,,,,,,,,,,,,,,,,,,,,,,,,,,,,,,,,,,,,,,,,,,,,,,,,,,,,,,,,,,,,,,,,,,,,,1.1774,426.08850289997645,None,space,1,426.08850289997645,None,0.5846505999797955,P033,FENCOG,2,Pre,2022_Apr_05_1139,N-Back (New Version 2021),2021.1.4,120.04239893480636,
,,,,Conditions/Version_1/oneback(1)_v1.xlsx,New rule: Press 'space' when you see 1-back (i.e. the same letter as the one that appeared 1 letter ago.),n,None,,,,,,,,,0,1,1,1,0,4,4,4,,,,,,,,,,,,,,,,,,,,,,,,,,,,,,,,,,,,,,,,,,,,,,,,,,,,,,,,,,,,,,,,,,,,,1.3758,429.47839359997306,None,None,1,429.47839359997306,None,,P033,FENCOG,2,Pre,2022_Apr_05_1139,N-Back (New Version 2021),2021.1.4,120.04239893480636,
,,,,Conditions/Version_1/oneback(1)_v1.xlsx,New rule: Press 'space' when you see 1-back (i.e. the same letter as the one that appeared 1 letter ago.),g,None,,,,,,,,,0,1,1,1,0,5,5,5,,,,,,,,,,,,,,,,,,,,,,,,,,,,,,,,,,,,,,,,,,,,,,,,,,,,,,,,,,,,,,,,,,,,,1.6362,433.12048219999997,None,None,1,433.12048219999997,None,,P033,FENCOG,2,Pre,2022_Apr_05_1139,N-Back (New Version 2021),2021.1.4,120.04239893480636,
,,,,Conditions/Version_1/oneback(1)_v1.xlsx,New rule: Press 'space' when you see 1-back (i.e. the same letter as the one that appeared 1 letter ago.),P,None,,,,,,,,,0,1,1,1,0,6,6,6,,,,,,,,,,,,,,,,,,,,,,,,,,,,,,,,,,,,,,,,,,,,,,,,,,,,,,,,,,,,,,,,,,,,,1.2518,436.38811729999725,None,None,1,436.38811729999725,None,,P033,FENCOG,2,Pre,2022_Apr_05_1139,N-Back (New Version 2021),2021.1.4,120.04239893480636,
,,,,Conditions/Version_1/oneback(1)_v1.xlsx,New rule: Press 'space' when you see 1-back (i.e. the same letter as the one that appeared 1 letter ago.),o,None,,,,,,,,,0,1,1,1,0,7,7,7,,,,,,,,,,,,,,,,,,,,,,,,,,,,,,,,,,,,,,,,,,,,,,,,,,,,,,,,,,,,,,,,,,,,,1.8594,440.2606617999845,None,None,1,440.2606617999845,None,,P033,FENCOG,2,Pre,2022_Apr_05_1139,N-Back (New Version 2021),2021.1.4,120.04239893480636,
,,,,Conditions/Version_1/oneback(1)_v1.xlsx,New rule: Press 'space' when you see 1-back (i.e. the same letter as the one that appeared 1 letter ago.),f,None,,,,,,,,,0,1,1,1,0,8,8,8,,,,,,,,,,,,,,,,,,,,,,,,,,,,,,,,,,,,,,,,,,,,,,,,,,,,,,,,,,,,,,,,,,,,,1.0844,443.3589491000166,None,None,1,443.3589491000166,None,,P033,FENCOG,2,Pre,2022_Apr_05_1139,N-Back (New Version 2021),2021.1.4,120.04239893480636,
,,,,Conditions/Version_1/oneback(1)_v1.xlsx,New rule: Press 'space' when you see 1-back (i.e. the same letter as the one that appeared 1 letter ago.),F,space,,,,,,,,,0,1,1,1,0,9,9,9,,,,,,,,,,,,,,,,,,,,,,,,,,,,,,,,,,,,,,,,,,,,,,,,,,,,,,,,,,,,,,,,,,,,,1.1092,446.4748057000106,None,space,1,446.4748057000106,None,0.4539909000159241,P033,FENCOG,2,Pre,2022_Apr_05_1139,N-Back (New Version 2021),2021.1.4,120.04239893480636,
,,,,Conditions/Version_1/oneback(1)_v1.xlsx,New rule: Press 'space' when you see 1-back (i.e. the same letter as the one that appeared 1 letter ago.),,,,,,,,,,,0,1,1,1,,,,,,,,,,,,,,,,,,,,,,,,,,,,,,,,,,,,,,,,,,,,,,,,,,,,,,,,,,,,,,,,,,,,,,,,,,,,,,,,,P033,FENCOG,2,Pre,2022_Apr_05_1139,N-Back (New Version 2021),2021.1.4,120.04239893480636,
,,,,Conditions/Version_1/twoback(1)_v1.xlsx,New rule: Press 'space' when you see 2-back (i.e. the same letter as the one that appeared 2 letters ago.),b,None,,,,,,,,,0,2,2,2,0,0,0,0,,,,,,,,,,,,,,,,,,,,,,,,,,,,,,,,,,,,,,,,,,,,,,,,,,,,,,,,,,,448.50374229997396,None,451.49058510002214,None,space,1.5742243999848142,451.49058510002214,None,448.50374229997396,None,1.5618,454.65507029998116,None,None,1,454.65507029998116,None,,P033,FENCOG,2,Pre,2022_Apr_05_1139,N-Back (New Version 2021),2021.1.4,120.04239893480636,
,,,,Conditions/Version_1/twoback(1)_v1.xlsx,New rule: Press 'space' when you see 2-back (i.e. the same letter as the one that appeared 2 letters ago.),h,None,,,,,,,,,0,2,2,2,0,1,1,1,,,,,,,,,,,,,,,,,,,,,,,,,,,,,,,,,,,,,,,,,,,,,,,,,,,,,,,,,,,,,,,,,,,,,1.5742,458.23948649998056,None,None,1,458.23948649998056,None,,P033,FENCOG,2,Pre,2022_Apr_05_1139,N-Back (New Version 2021),2021.1.4,120.04239893480636,
,,,,Conditions/Version_1/twoback(1)_v1.xlsx,New rule: Press 'space' when you see 2-back (i.e. the same letter as the one that appeared 2 letters ago.),j,None,,,,,,,,,0,2,2,2,0,2,2,2,,,,,,,,,,,,,,,,,,,,,,,,,,,,,,,,,,,,,,,,,,,,,,,,,,,,,,,,,,,,,,,,,,,,,1.8408,462.0891649000114,None,None,1,462.0891649000114,None,,P033,FENCOG,2,Pre,2022_Apr_05_1139,N-Back (New Version 2021),2021.1.4,120.04239893480636,
,,,,Conditions/Version_1/twoback(1)_v1.xlsx,New rule: Press 'space' when you see 2-back (i.e. the same letter as the one that appeared 2 letters ago.),H,space,,,,,,,,,0,2,2,2,0,3,3,3,,,,,,,,,,,,,,,,,,,,,,,,,,,,,,,,,,,,,,,,,,,,,,,,,,,,,,,,,,,,,,,,,,,,,1.4688,465.57547350000823,None,space,1,465.57547350000823,None,0.6016037000226788,P033,FENCOG,2,Pre,2022_Apr_05_1139,N-Back (New Version 2021),2021.1.4,120.04239893480636,
,,,,Conditions/Version_1/twoback(1)_v1.xlsx,New rule: Press 'space' when you see 2-back (i.e. the same letter as the one that appeared 2 letters ago.),p,None,,,,,,,,,0,2,2,2,0,4,4,4,,,,,,,,,,,,,,,,,,,,,,,,,,,,,,,,,,,,,,,,,,,,,,,,,,,,,,,,,,,,,,,,,,,,,1.5556,469.13503250002395,None,None,1,469.13503250002395,None,,P033,FENCOG,2,Pre,2022_Apr_05_1139,N-Back (New Version 2021),2021.1.4,120.04239893480636,
,,,,Conditions/Version_1/twoback(1)_v1.xlsx,New rule: Press 'space' when you see 2-back (i.e. the same letter as the one that appeared 2 letters ago.),p,None,,,,,,,,,0,2,2,2,0,5,5,5,,,,,,,,,,,,,,,,,,,,,,,,,,,,,,,,,,,,,,,,,,,,,,,,,,,,,,,,,,,,,,,,,,,,,1.0906,472.2320310000214,None,None,1,472.2320310000214,None,,P033,FENCOG,2,Pre,2022_Apr_05_1139,N-Back (New Version 2021),2021.1.4,120.04239893480636,
,,,,Conditions/Version_1/twoback(1)_v1.xlsx,New rule: Press 'space' when you see 2-back (i.e. the same letter as the one that appeared 2 letters ago.),w,None,,,,,,,,,0,2,2,2,0,6,6,6,,,,,,,,,,,,,,,,,,,,,,,,,,,,,,,,,,,,,,,,,,,,,,,,,,,,,,,,,,,,,,,,,,,,,1.6176,475.8570902000065,None,None,1,475.8570902000065,None,,P033,FENCOG,2,Pre,2022_Apr_05_1139,N-Back (New Version 2021),2021.1.4,120.04239893480636,
,,,,Conditions/Version_1/twoback(1)_v1.xlsx,New rule: Press 'space' when you see 2-back (i.e. the same letter as the one that appeared 2 letters ago.),R,None,,,,,,,,,0,2,2,2,0,7,7,7,,,,,,,,,,,,,,,,,,,,,,,,,,,,,,,,,,,,,,,,,,,,,,,,,,,,,,,,,,,,,,,,,,,,,1.5928,479.46448219998274,None,None,1,479.46448219998274,None,,P033,FENCOG,2,Pre,2022_Apr_05_1139,N-Back (New Version 2021),2021.1.4,120.04239893480636,
,,,,Conditions/Version_1/twoback(1)_v1.xlsx,New rule: Press 'space' when you see 2-back (i.e. the same letter as the one that appeared 2 letters ago.),a,None,,,,,,,,,0,2,2,2,0,8,8,8,,,,,,,,,,,,,,,,,,,,,,,,,,,,,,,,,,,,,,,,,,,,,,,,,,,,,,,,,,,,,,,,,,,,,1.6238,483.1053825999843,None,None,1,483.1053825999843,None,,P033,FENCOG,2,Pre,2022_Apr_05_1139,N-Back (New Version 2021),2021.1.4,120.04239893480636,
,,,,Conditions/Version_1/twoback(1)_v1.xlsx,New rule: Press 'space' when you see 2-back (i.e. the same letter as the one that appeared 2 letters ago.),r,space,,,,,,,,,0,2,2,2,0,9,9,9,,,,,,,,,,,,,,,,,,,,,,,,,,,,,,,,,,,,,,,,,,,,,,,,,,,,,,,,,,,,,,,,,,,,,1.3944,486.5177089999779,None,space,1,486.5177089999779,None,0.5071686000446789,P033,FENCOG,2,Pre,2022_Apr_05_1139,N-Back (New Version 2021),2021.1.4,120.04239893480636,
,,,,Conditions/Version_1/twoback(1)_v1.xlsx,New rule: Press 'space' when you see 2-back (i.e. the same letter as the one that appeared 2 letters ago.),,,,,,,,,,,0,2,2,2,,,,,,,,,,,,,,,,,,,,,,,,,,,,,,,,,,,,,,,,,,,,,,,,,,,,,,,,,,,,,,,,,,,,,,,,,,,,,,,,,P033,FENCOG,2,Pre,2022_Apr_05_1139,N-Back (New Version 2021),2021.1.4,120.04239893480636,
,,,,Conditions/Version_1/threeback(1)_v1.xlsx,New rule: Press 'space' when you see 3-back (i.e. the same letter as the one that appeared 3 letters ago.),r,None,,,,,,,,,0,3,3,3,0,0,0,0,,,,,,,,,,,,,,,,,,,,,,,,,,,,,,,,,,,,,,,,,,,,,,,,,,,,,,,,,,,488.54194099997403,None,491.52855400001863,None,space,8.912433899997268,491.52855400001863,None,488.54194099997403,None,1.5494,502.0149894999922,None,None,1,502.0149894999922,None,,P033,FENCOG,2,Pre,2022_Apr_05_1139,N-Back (New Version 2021),2021.1.4,120.04239893480636,
,,,,Conditions/Version_1/threeback(1)_v1.xlsx,New rule: Press 'space' when you see 3-back (i.e. the same letter as the one that appeared 3 letters ago.),o,None,,,,,,,,,0,3,3,3,0,1,1,1,,,,,,,,,,,,,,,,,,,,,,,,,,,,,,,,,,,,,,,,,,,,,,,,,,,,,,,,,,,,,,,,,,,,,1.0348,505.0557811000035,None,None,1,505.0557811000035,None,,P033,FENCOG,2,Pre,2022_Apr_05_1139,N-Back (New Version 2021),2021.1.4,120.04239893480636,
,,,,Conditions/Version_1/threeback(1)_v1.xlsx,New rule: Press 'space' when you see 3-back (i.e. the same letter as the one that appeared 3 letters ago.),P,None,,,,,,,,,0,3,3,3,0,2,2,2,,,,,,,,,,,,,,,,,,,,,,,,,,,,,,,,,,,,,,,,,,,,,,,,,,,,,,,,,,,,,,,,,,,,,1.9214,508.98061269999016,None,None,1,508.98061269999016,None,,P033,FENCOG,2,Pre,2022_Apr_05_1139,N-Back (New Version 2021),2021.1.4,120.04239893480636,
,,,,Conditions/Version_1/threeback(1)_v1.xlsx,New rule: Press 'space' when you see 3-back (i.e. the same letter as the one that appeared 3 letters ago.),R,space,,,,,,,,,0,3,3,3,0,3,3,3,,,,,,,,,,,,,,,,,,,,,,,,,,,,,,,,,,,,,,,,,,,,,,,,,,,,,,,,,,,,,,,,,,,,,1.8036,512.7978592999862,None,space,1,512.7978592999862,None,0.5231770999962464,P033,FENCOG,2,Pre,2022_Apr_05_1139,N-Back (New Version 2021),2021.1.4,120.04239893480636,
,,,,Conditions/Version_1/threeback(1)_v1.xlsx,New rule: Press 'space' when you see 3-back (i.e. the same letter as the one that appeared 3 letters ago.),p,None,,,,,,,,,0,3,3,3,0,4,4,4,,,,,,,,,,,,,,,,,,,,,,,,,,,,,,,,,,,,,,,,,,,,,,,,,,,,,,,,,,,,,,,,,,,,,1.4006,516.2036196999834,None,space,0,516.2036196999834,None,1.2051637000404298,P033,FENCOG,2,Pre,2022_Apr_05_1139,N-Back (New Version 2021),2021.1.4,120.04239893480636,
,,,,Conditions/Version_1/threeback(1)_v1.xlsx,New rule: Press 'space' when you see 3-back (i.e. the same letter as the one that appeared 3 letters ago.),E,None,,,,,,,,,0,3,3,3,0,5,5,5,,,,,,,,,,,,,,,,,,,,,,,,,,,,,,,,,,,,,,,,,,,,,,,,,,,,,,,,,,,,,,,,,,,,,1.4502,519.6598352000001,None,None,1,519.6598352000001,None,,P033,FENCOG,2,Pre,2022_Apr_05_1139,N-Back (New Version 2021),2021.1.4,120.04239893480636,
,,,,Conditions/Version_1/threeback(1)_v1.xlsx,New rule: Press 'space' when you see 3-back (i.e. the same letter as the one that appeared 3 letters ago.),e,None,,,,,,,,,0,3,3,3,0,6,6,6,,,,,,,,,,,,,,,,,,,,,,,,,,,,,,,,,,,,,,,,,,,,,,,,,,,,,,,,,,,,,,,,,,,,,1.1464,522.8091350999894,None,None,1,522.8091350999894,None,,P033,FENCOG,2,Pre,2022_Apr_05_1139,N-Back (New Version 2021),2021.1.4,120.04239893480636,
,,,,Conditions/Version_1/threeback(1)_v1.xlsx,New rule: Press 'space' when you see 3-back (i.e. the same letter as the one that appeared 3 letters ago.),m,None,,,,,,,,,0,3,3,3,0,7,7,7,,,,,,,,,,,,,,,,,,,,,,,,,,,,,,,,,,,,,,,,,,,,,,,,,,,,,,,,,,,,,,,,,,,,,1.3262,526.1495744999847,None,None,1,526.1495744999847,None,,P033,FENCOG,2,Pre,2022_Apr_05_1139,N-Back (New Version 2021),2021.1.4,120.04239893480636,
,,,,Conditions/Version_1/threeback(1)_v1.xlsx,New rule: Press 'space' when you see 3-back (i.e. the same letter as the one that appeared 3 letters ago.),n,None,,,,,,,,,0,3,3,3,0,8,8,8,,,,,,,,,,,,,,,,,,,,,,,,,,,,,,,,,,,,,,,,,,,,,,,,,,,,,,,,,,,,,,,,,,,,,1.7416,529.8901541000232,None,None,1,529.8901541000232,None,,P033,FENCOG,2,Pre,2022_Apr_05_1139,N-Back (New Version 2021),2021.1.4,120.04239893480636,
,,,,Conditions/Version_1/threeback(1)_v1.xlsx,New rule: Press 'space' when you see 3-back (i.e. the same letter as the one that appeared 3 letters ago.),e,space,,,,,,,,,0,3,3,3,0,9,9,9,,,,,,,,,,,,,,,,,,,,,,,,,,,,,,,,,,,,,,,,,,,,,,,,,,,,,,,,,,,,,,,,,,,,,1.8284,533.7223420999944,None,None,0,533.7223420999944,None,,P033,FENCOG,2,Pre,2022_Apr_05_1139,N-Back (New Version 2021),2021.1.4,120.04239893480636,
,,,,Conditions/Version_1/threeback(1)_v1.xlsx,New rule: Press 'space' when you see 3-back (i.e. the same letter as the one that appeared 3 letters ago.),,,,,,,,,,,0,3,3,3,,,,,,,,,,,,,,,,,,,,,,,,,,,,,,,,,,,,,,,,,,,,,,,,,,,,,,,,,,,,,,,,,,,,,,,,,,,,,,,,,P033,FENCOG,2,Pre,2022_Apr_05_1139,N-Back (New Version 2021),2021.1.4,120.04239893480636,
,,,,Conditions/Version_1/oneback(2)_v1.xlsx,New rule: Press 'space' when you see 1-back (i.e. the same letter as the one that appeared 1 letter ago.),q,None,,,,,,,,,0,4,4,4,0,0,0,0,,,,,,,,,,,,,,,,,,,,,,,,,,,,,,,,,,,,,,,,,,,,,,,,,,,,,,,,,,,535.7608622999978,None,538.7476727999747,None,space,0.9251044999691658,538.7476727999747,None,535.7608622999978,None,1.7416,541.4485342999687,None,None,1,541.4485342999687,None,,P033,FENCOG,2,Pre,2022_Apr_05_1139,N-Back (New Version 2021),2021.1.4,120.04239893480636,
,,,,Conditions/Version_1/oneback(2)_v1.xlsx,New rule: Press 'space' when you see 1-back (i.e. the same letter as the one that appeared 1 letter ago.),Q,space,,,,,,,,,0,4,4,4,0,1,1,1,,,,,,,,,,,,,,,,,,,,,,,,,,,,,,,,,,,,,,,,,,,,,,,,,,,,,,,,,,,,,,,,,,,,,1.568,545.027293000021,None,space,1,545.027293000021,None,0.7497087999945506,P033,FENCOG,2,Pre,2022_Apr_05_1139,N-Back (New Version 2021),2021.1.4,120.04239893480636,
,,,,Conditions/Version_1/oneback(2)_v1.xlsx,New rule: Press 'space' when you see 1-back (i.e. the same letter as the one that appeared 1 letter ago.),P,None,,,,,,,,,0,4,4,4,0,2,2,2,,,,,,,,,,,,,,,,,,,,,,,,,,,,,,,,,,,,,,,,,,,,,,,,,,,,,,,,,,,,,,,,,,,,,1.2394,548.268098999979,None,None,1,548.268098999979,None,,P033,FENCOG,2,Pre,2022_Apr_05_1139,N-Back (New Version 2021),2021.1.4,120.04239893480636,
,,,,Conditions/Version_1/oneback(2)_v1.xlsx,New rule: Press 'space' when you see 1-back (i.e. the same letter as the one that appeared 1 letter ago.),o,None,,,,,,,,,0,4,4,4,0,3,3,3,,,,,,,,,,,,,,,,,,,,,,,,,,,,,,,,,,,,,,,,,,,,,,,,,,,,,,,,,,,,,,,,,,,,,1.0782,551.3535340999952,None,None,1,551.3535340999952,None,,P033,FENCOG,2,Pre,2022_Apr_05_1139,N-Back (New Version 2021),2021.1.4,120.04239893480636,
,,,,Conditions/Version_1/oneback(2)_v1.xlsx,New rule: Press 'space' when you see 1-back (i.e. the same letter as the one that appeared 1 letter ago.),m,None,,,,,,,,,0,4,4,4,0,4,4,4,,,,,,,,,,,,,,,,,,,,,,,,,,,,,,,,,,,,,,,,,,,,,,,,,,,,,,,,,,,,,,,,,,,,,1.1898,554.5494904000079,None,None,1,554.5494904000079,None,,P033,FENCOG,2,Pre,2022_Apr_05_1139,N-Back (New Version 2021),2021.1.4,120.04239893480636,
,,,,Conditions/Version_1/oneback(2)_v1.xlsx,New rule: Press 'space' when you see 1-back (i.e. the same letter as the one that appeared 1 letter ago.),Z,None,,,,,,,,,0,4,4,4,0,5,5,5,,,,,,,,,,,,,,,,,,,,,,,,,,,,,,,,,,,,,,,,,,,,,,,,,,,,,,,,,,,,,,,,,,,,,1.01,557.568048199988,None,None,1,557.568048199988,None,,P033,FENCOG,2,Pre,2022_Apr_05_1139,N-Back (New Version 2021),2021.1.4,120.04239893480636,
,,,,Conditions/Version_1/oneback(2)_v1.xlsx,New rule: Press 'space' when you see 1-back (i.e. the same letter as the one that appeared 1 letter ago.),c,None,,,,,,,,,0,4,4,4,0,6,6,6,,,,,,,,,,,,,,,,,,,,,,,,,,,,,,,,,,,,,,,,,,,,,,,,,,,,,,,,,,,,,,,,,,,,,1.2642,560.841165699996,None,None,1,560.841165699996,None,,P033,FENCOG,2,Pre,2022_Apr_05_1139,N-Back (New Version 2021),2021.1.4,120.04239893480636,
,,,,Conditions/Version_1/oneback(2)_v1.xlsx,New rule: Press 'space' when you see 1-back (i.e. the same letter as the one that appeared 1 letter ago.),c,space,,,,,,,,,0,4,4,4,0,7,7,7,,,,,,,,,,,,,,,,,,,,,,,,,,,,,,,,,,,,,,,,,,,,,,,,,,,,,,,,,,,,,,,,,,,,,1.8594,564.713324100012,None,space,1,564.713324100012,None,0.6715327999554574,P033,FENCOG,2,Pre,2022_Apr_05_1139,N-Back (New Version 2021),2021.1.4,120.04239893480636,
,,,,Conditions/Version_1/oneback(2)_v1.xlsx,New rule: Press 'space' when you see 1-back (i.e. the same letter as the one that appeared 1 letter ago.),P,None,,,,,,,,,0,4,4,4,0,8,8,8,,,,,,,,,,,,,,,,,,,,,,,,,,,,,,,,,,,,,,,,,,,,,,,,,,,,,,,,,,,,,,,,,,,,,1.8284,568.5454481000197,None,None,1,568.5454481000197,None,,P033,FENCOG,2,Pre,2022_Apr_05_1139,N-Back (New Version 2021),2021.1.4,120.04239893480636,
,,,,Conditions/Version_1/oneback(2)_v1.xlsx,New rule: Press 'space' when you see 1-back (i.e. the same letter as the one that appeared 1 letter ago.),p,space,,,,,,,,,0,4,4,4,0,9,9,9,,,,,,,,,,,,,,,,,,,,,,,,,,,,,,,,,,,,,,,,,,,,,,,,,,,,,,,,,,,,,,,,,,,,,1.32,571.8693558999803,None,space,1,571.8693558999803,None,0.5075836000032723,P033,FENCOG,2,Pre,2022_Apr_05_1139,N-Back (New Version 2021),2021.1.4,120.04239893480636,
,,,,Conditions/Version_1/oneback(2)_v1.xlsx,New rule: Press 'space' when you see 1-back (i.e. the same letter as the one that appeared 1 letter ago.),,,,,,,,,,,0,4,4,4,,,,,,,,,,,,,,,,,,,,,,,,,,,,,,,,,,,,,,,,,,,,,,,,,,,,,,,,,,,,,,,,,,,,,,,,,,,,,,,,,P033,FENCOG,2,Pre,2022_Apr_05_1139,N-Back (New Version 2021),2021.1.4,120.04239893480636,
,,,,Conditions/Version_1/zeroback(2)_v1.xlsx,New rule: Press 'space' when you see the letter 'x' or 'X'.,p,None,,,,,,,,,0,5,5,5,0,0,0,0,,,,,,,,,,,,,,,,,,,,,,,,,,,,,,,,,,,,,,,,,,,,,,,,,,,,,,,,,,,573.890539999993,None,576.8776783000212,None,space,0.6112732000183314,576.8776783000212,None,573.890539999993,None,1.599,579.1174846999929,None,None,1,579.1174846999929,None,,P033,FENCOG,2,Pre,2022_Apr_05_1139,N-Back (New Version 2021),2021.1.4,120.04239893480636,
,,,,Conditions/Version_1/zeroback(2)_v1.xlsx,New rule: Press 'space' when you see the letter 'x' or 'X'.,L,None,,,,,,,,,0,5,5,5,0,1,1,1,,,,,,,,,,,,,,,,,,,,,,,,,,,,,,,,,,,,,,,,,,,,,,,,,,,,,,,,,,,,,,,,,,,,,1.506,582.6265277999919,None,None,1,582.6265277999919,None,,P033,FENCOG,2,Pre,2022_Apr_05_1139,N-Back (New Version 2021),2021.1.4,120.04239893480636,
,,,,Conditions/Version_1/zeroback(2)_v1.xlsx,New rule: Press 'space' when you see the letter 'x' or 'X'.,G,None,,,,,,,,,0,5,5,5,0,2,2,2,,,,,,,,,,,,,,,,,,,,,,,,,,,,,,,,,,,,,,,,,,,,,,,,,,,,,,,,,,,,,,,,,,,,,1.041,585.6779289999977,None,None,1,585.6779289999977,None,,P033,FENCOG,2,Pre,2022_Apr_05_1139,N-Back (New Version 2021),2021.1.4,120.04239893480636,
,,,,Conditions/Version_1/zeroback(2)_v1.xlsx,New rule: Press 'space' when you see the letter 'x' or 'X'.,y,None,,,,,,,,,0,5,5,5,0,3,3,3,,,,,,,,,,,,,,,,,,,,,,,,,,,,,,,,,,,,,,,,,,,,,,,,,,,,,,,,,,,,,,,,,,,,,1.8594,589.5475938000018,None,None,1,589.5475938000018,None,,P033,FENCOG,2,Pre,2022_Apr_05_1139,N-Back (New Version 2021),2021.1.4,120.04239893480636,
,,,,Conditions/Version_1/zeroback(2)_v1.xlsx,New rule: Press 'space' when you see the letter 'x' or 'X'.,Y,None,,,,,,,,,0,5,5,5,0,4,4,4,,,,,,,,,,,,,,,,,,,,,,,,,,,,,,,,,,,,,,,,,,,,,,,,,,,,,,,,,,,,,,,,,,,,,1.3262,592.8810682999901,None,None,1,592.8810682999901,None,,P033,FENCOG,2,Pre,2022_Apr_05_1139,N-Back (New Version 2021),2021.1.4,120.04239893480636,
,,,,Conditions/Version_1/zeroback(2)_v1.xlsx,New rule: Press 'space' when you see the letter 'x' or 'X'.,W,None,,,,,,,,,0,5,5,5,0,5,5,5,,,,,,,,,,,,,,,,,,,,,,,,,,,,,,,,,,,,,,,,,,,,,,,,,,,,,,,,,,,,,,,,,,,,,1.5556,596.4472548000049,None,None,1,596.4472548000049,None,,P033,FENCOG,2,Pre,2022_Apr_05_1139,N-Back (New Version 2021),2021.1.4,120.04239893480636,
,,,,Conditions/Version_1/zeroback(2)_v1.xlsx,New rule: Press 'space' when you see the letter 'x' or 'X'.,x,space,,,,,,,,,0,5,5,5,0,6,6,6,,,,,,,,,,,,,,,,,,,,,,,,,,,,,,,,,,,,,,,,,,,,,,,,,,,,,,,,,,,,,,,,,,,,,1.413,599.871493100014,None,space,1,599.871493100014,None,0.4095909000025131,P033,FENCOG,2,Pre,2022_Apr_05_1139,N-Back (New Version 2021),2021.1.4,120.04239893480636,
,,,,Conditions/Version_1/zeroback(2)_v1.xlsx,New rule: Press 'space' when you see the letter 'x' or 'X'.,X,space,,,,,,,,,0,5,5,5,0,7,7,7,,,,,,,,,,,,,,,,,,,,,,,,,,,,,,,,,,,,,,,,,,,,,,,,,,,,,,,,,,,,,,,,,,,,,1.7788,603.6515857999912,None,None,0,603.6515857999912,None,,P033,FENCOG,2,Pre,2022_Apr_05_1139,N-Back (New Version 2021),2021.1.4,120.04239893480636,
,,,,Conditions/Version_1/zeroback(2)_v1.xlsx,New rule: Press 'space' when you see the letter 'x' or 'X'.,p,None,,,,,,,,,0,5,5,5,0,8,8,8,,,,,,,,,,,,,,,,,,,,,,,,,,,,,,,,,,,,,,,,,,,,,,,,,,,,,,,,,,,,,,,,,,,,,1.7726,607.4274967000238,None,None,1,607.4274967000238,None,,P033,FENCOG,2,Pre,2022_Apr_05_1139,N-Back (New Version 2021),2021.1.4,120.04239893480636,
,,,,Conditions/Version_1/zeroback(2)_v1.xlsx,New rule: Press 'space' when you see the letter 'x' or 'X'.,h,None,,,,,,,,,0,5,5,5,0,9,9,9,,,,,,,,,,,,,,,,,,,,,,,,,,,,,,,,,,,,,,,,,,,,,,,,,,,,,,,,,,,,,,,,,,,,,1.6796,611.1161777999951,None,None,1,611.1161777999951,None,,P033,FENCOG,2,Pre,2022_Apr_05_1139,N-Back (New Version 2021),2021.1.4,120.04239893480636,
,,,,Conditions/Version_1/zeroback(2)_v1.xlsx,New rule: Press 'space' when you see the letter 'x' or 'X'.,,,,,,,,,,,0,5,5,5,,,,,,,,,,,,,,,,,,,,,,,,,,,,,,,,,,,,,,,,,,,,,,,,,,,,,,,,,,,,,,,,,,,,,,,,,,,,,,,,,P033,FENCOG,2,Pre,2022_Apr_05_1139,N-Back (New Version 2021),2021.1.4,120.04239893480636,
,,,,Conditions/Version_1/threeback(2)_v1.xlsx,New rule: Press 'space' when you see 3-back (i.e. the same letter as the one that appeared 3 letters ago.),q,None,,,,,,,,,0,6,6,6,0,0,0,0,,,,,,,,,,,,,,,,,,,,,,,,,,,,,,,,,,,,,,,,,,,,,,,,,,,,,,,,,,,613.1384872000199,None,616.1248658999684,None,space,1.0603397999657318,616.1248658999684,None,613.1384872000199,None,1.0286,618.2390276999795,None,None,1,618.2390276999795,None,,P033,FENCOG,2,Pre,2022_Apr_05_1139,N-Back (New Version 2021),2021.1.4,120.04239893480636,
,,,,Conditions/Version_1/threeback(2)_v1.xlsx,New rule: Press 'space' when you see 3-back (i.e. the same letter as the one that appeared 3 letters ago.),Y,None,,,,,,,,,0,6,6,6,0,1,1,1,,,,,,,,,,,,,,,,,,,,,,,,,,,,,,,,,,,,,,,,,,,,,,,,,,,,,,,,,,,,,,,,,,,,,1.7354,621.97963050002,None,None,1,621.97963050002,None,,P033,FENCOG,2,Pre,2022_Apr_05_1139,N-Back (New Version 2021),2021.1.4,120.04239893480636,
,,,,Conditions/Version_1/threeback(2)_v1.xlsx,New rule: Press 'space' when you see 3-back (i.e. the same letter as the one that appeared 3 letters ago.),p,None,,,,,,,,,0,6,6,6,0,2,2,2,,,,,,,,,,,,,,,,,,,,,,,,,,,,,,,,,,,,,,,,,,,,,,,,,,,,,,,,,,,,,,,,,,,,,1.692,625.6706889999914,None,None,1,625.6706889999914,None,,P033,FENCOG,2,Pre,2022_Apr_05_1139,N-Back (New Version 2021),2021.1.4,120.04239893480636,
,,,,Conditions/Version_1/threeback(2)_v1.xlsx,New rule: Press 'space' when you see 3-back (i.e. the same letter as the one that appeared 3 letters ago.),p,None,,,,,,,,,0,6,6,6,0,3,3,3,,,,,,,,,,,,,,,,,,,,,,,,,,,,,,,,,,,,,,,,,,,,,,,,,,,,,,,,,,,,,,,,,,,,,1.8222,629.4943388000247,None,None,1,629.4943388000247,None,,P033,FENCOG,2,Pre,2022_Apr_05_1139,N-Back (New Version 2021),2021.1.4,120.04239893480636,
,,,,Conditions/Version_1/threeback(2)_v1.xlsx,New rule: Press 'space' when you see 3-back (i.e. the same letter as the one that appeared 3 letters ago.),y,space,,,,,,,,,0,6,6,6,0,4,4,4,,,,,,,,,,,,,,,,,,,,,,,,,,,,,,,,,,,,,,,,,,,,,,,,,,,,,,,,,,,,,,,,,,,,,1.2332,632.734841700003,None,space,1,632.734841700003,None,0.6267772999708541,P033,FENCOG,2,Pre,2022_Apr_05_1139,N-Back (New Version 2021),2021.1.4,120.04239893480636,
,,,,Conditions/Version_1/threeback(2)_v1.xlsx,New rule: Press 'space' when you see 3-back (i.e. the same letter as the one that appeared 3 letters ago.),u,None,,,,,,,,,0,6,6,6,0,5,5,5,,,,,,,,,,,,,,,,,,,,,,,,,,,,,,,,,,,,,,,,,,,,,,,,,,,,,,,,,,,,,,,,,,,,,1.3076,636.0422763000242,None,None,1,636.0422763000242,None,,P033,FENCOG,2,Pre,2022_Apr_05_1139,N-Back (New Version 2021),2021.1.4,120.04239893480636,
,,,,Conditions/Version_1/threeback(2)_v1.xlsx,New rule: Press 'space' when you see 3-back (i.e. the same letter as the one that appeared 3 letters ago.),P,space,,,,,,,,,0,6,6,6,0,6,6,6,,,,,,,,,,,,,,,,,,,,,,,,,,,,,,,,,,,,,,,,,,,,,,,,,,,,,,,,,,,,,,,,,,,,,1.2766,639.3265725999954,None,space,1,639.3265725999954,None,0.4345022999914363,P033,FENCOG,2,Pre,2022_Apr_05_1139,N-Back (New Version 2021),2021.1.4,120.04239893480636,
,,,,Conditions/Version_1/threeback(2)_v1.xlsx,New rule: Press 'space' when you see 3-back (i.e. the same letter as the one that appeared 3 letters ago.),a,None,,,,,,,,,0,6,6,6,0,7,7,7,,,,,,,,,,,,,,,,,,,,,,,,,,,,,,,,,,,,,,,,,,,,,,,,,,,,,,,,,,,,,,,,,,,,,1.4068,642.740531700023,None,None,1,642.740531700023,None,,P033,FENCOG,2,Pre,2022_Apr_05_1139,N-Back (New Version 2021),2021.1.4,120.04239893480636,
,,,,Conditions/Version_1/threeback(2)_v1.xlsx,New rule: Press 'space' when you see 3-back (i.e. the same letter as the one that appeared 3 letters ago.),U,space,,,,,,,,,0,6,6,6,0,8,8,8,,,,,,,,,,,,,,,,,,,,,,,,,,,,,,,,,,,,,,,,,,,,,,,,,,,,,,,,,,,,,,,,,,,,,1.0968,645.839295200014,None,space,1,645.839295200014,None,1.425801399978809,P033,FENCOG,2,Pre,2022_Apr_05_1139,N-Back (New Version 2021),2021.1.4,120.04239893480636,
,,,,Conditions/Version_1/threeback(2)_v1.xlsx,New rule: Press 'space' when you see 3-back (i.e. the same letter as the one that appeared 3 letters ago.),q,None,,,,,,,,,0,6,6,6,0,9,9,9,,,,,,,,,,,,,,,,,,,,,,,,,,,,,,,,,,,,,,,,,,,,,,,,,,,,,,,,,,,,,,,,,,,,,1.8594,649.7067687999806,None,None,1,649.7067687999806,None,,P033,FENCOG,2,Pre,2022_Apr_05_1139,N-Back (New Version 2021),2021.1.4,120.04239893480636,
,,,,Conditions/Version_1/threeback(2)_v1.xlsx,New rule: Press 'space' when you see 3-back (i.e. the same letter as the one that appeared 3 letters ago.),,,,,,,,,,,0,6,6,6,,,,,,,,,,,,,,,,,,,,,,,,,,,,,,,,,,,,,,,,,,,,,,,,,,,,,,,,,,,,,,,,,,,,,,,,,,,,,,,,,P033,FENCOG,2,Pre,2022_Apr_05_1139,N-Back (New Version 2021),2021.1.4,120.04239893480636,
,,,,Conditions/Version_1/twoback(2)_v1.xlsx,New rule: Press 'space' when you see 2-back (i.e. the same letter as the one that appeared 2 letters ago.),q,None,,,,,,,,,0,7,7,7,0,0,0,0,,,,,,,,,,,,,,,,,,,,,,,,,,,,,,,,,,,,,,,,,,,,,,,,,,,,,,,,,,,651.7383203000063,None,654.7216320000007,None,space,1.095431699999608,654.7216320000007,None,651.7383203000063,None,1.6238,657.4777100000065,None,None,1,657.4777100000065,None,,P033,FENCOG,2,Pre,2022_Apr_05_1139,N-Back (New Version 2021),2021.1.4,120.04239893480636,
,,,,Conditions/Version_1/twoback(2)_v1.xlsx,New rule: Press 'space' when you see 2-back (i.e. the same letter as the one that appeared 2 letters ago.),r,None,,,,,,,,,0,7,7,7,0,1,1,1,,,,,,,,,,,,,,,,,,,,,,,,,,,,,,,,,,,,,,,,,,,,,,,,,,,,,,,,,,,,,,,,,,,,,1.1092,660.584923300019,None,None,1,660.584923300019,None,,P033,FENCOG,2,Pre,2022_Apr_05_1139,N-Back (New Version 2021),2021.1.4,120.04239893480636,
,,,,Conditions/Version_1/twoback(2)_v1.xlsx,New rule: Press 'space' when you see 2-back (i.e. the same letter as the one that appeared 2 letters ago.),q,space,,,,,,,,,0,7,7,7,0,2,2,2,,,,,,,,,,,,,,,,,,,,,,,,,,,,,,,,,,,,,,,,,,,,,,,,,,,,,,,,,,,,,,,,,,,,,1.01,663.6018805999774,None,space,1,663.6018805999774,None,0.5671832999796607,P033,FENCOG,2,Pre,2022_Apr_05_1139,N-Back (New Version 2021),2021.1.4,120.04239893480636,
,,,,Conditions/Version_1/twoback(2)_v1.xlsx,New rule: Press 'space' when you see 2-back (i.e. the same letter as the one that appeared 2 letters ago.),P,None,,,,,,,,,0,7,7,7,0,3,3,3,,,,,,,,,,,,,,,,,,,,,,,,,,,,,,,,,,,,,,,,,,,,,,,,,,,,,,,,,,,,,,,,,,,,,1.723,667.334992100019,None,None,1,667.334992100019,None,,P033,FENCOG,2,Pre,2022_Apr_05_1139,N-Back (New Version 2021),2021.1.4,120.04239893480636,
,,,,Conditions/Version_1/twoback(2)_v1.xlsx,New rule: Press 'space' when you see 2-back (i.e. the same letter as the one that appeared 2 letters ago.),p,None,,,,,,,,,0,7,7,7,0,4,4,4,,,,,,,,,,,,,,,,,,,,,,,,,,,,,,,,,,,,,,,,,,,,,,,,,,,,,,,,,,,,,,,,,,,,,1.8098,671.1589166999911,None,None,1,671.1589166999911,None,,P033,FENCOG,2,Pre,2022_Apr_05_1139,N-Back (New Version 2021),2021.1.4,120.04239893480636,
,,,,Conditions/Version_1/twoback(2)_v1.xlsx,New rule: Press 'space' when you see 2-back (i.e. the same letter as the one that appeared 2 letters ago.),H,None,,,,,,,,,0,7,7,7,0,5,5,5,,,,,,,,,,,,,,,,,,,,,,,,,,,,,,,,,,,,,,,,,,,,,,,,,,,,,,,,,,,,,,,,,,,,,1.5866,674.7612498999806,None,None,1,674.7612498999806,None,,P033,FENCOG,2,Pre,2022_Apr_05_1139,N-Back (New Version 2021),2021.1.4,120.04239893480636,
,,,,Conditions/Version_1/twoback(2)_v1.xlsx,New rule: Press 'space' when you see 2-back (i.e. the same letter as the one that appeared 2 letters ago.),g,None,,,,,,,,,0,7,7,7,0,6,6,6,,,,,,,,,,,,,,,,,,,,,,,,,,,,,,,,,,,,,,,,,,,,,,,,,,,,,,,,,,,,,,,,,,,,,1.2022,677.9715900999727,None,None,1,677.9715900999727,None,,P033,FENCOG,2,Pre,2022_Apr_05_1139,N-Back (New Version 2021),2021.1.4,120.04239893480636,
,,,,Conditions/Version_1/twoback(2)_v1.xlsx,New rule: Press 'space' when you see 2-back (i.e. the same letter as the one that appeared 2 letters ago.),j,None,,,,,,,,,0,7,7,7,0,7,7,7,,,,,,,,,,,,,,,,,,,,,,,,,,,,,,,,,,,,,,,,,,,,,,,,,,,,,,,,,,,,,,,,,,,,,1.8966,681.8704136000015,None,None,1,681.8704136000015,None,,P033,FENCOG,2,Pre,2022_Apr_05_1139,N-Back (New Version 2021),2021.1.4,120.04239893480636,
,,,,Conditions/Version_1/twoback(2)_v1.xlsx,New rule: Press 'space' when you see 2-back (i.e. the same letter as the one that appeared 2 letters ago.),g,space,,,,,,,,,0,7,7,7,0,8,8,8,,,,,,,,,,,,,,,,,,,,,,,,,,,,,,,,,,,,,,,,,,,,,,,,,,,,,,,,,,,,,,,,,,,,,1.6858,685.5615762000089,None,space,1,685.5615762000089,None,0.38352029997622594,P033,FENCOG,2,Pre,2022_Apr_05_1139,N-Back (New Version 2021),2021.1.4,120.04239893480636,
,,,,Conditions/Version_1/twoback(2)_v1.xlsx,New rule: Press 'space' when you see 2-back (i.e. the same letter as the one that appeared 2 letters ago.),G,None,,,,,,,,,0,7,7,7,0,9,9,9,,,,,,,,,,,,,,,,,,,,,,,,,,,,,,,,,,,,,,,,,,,,,,,,,,,,,,,,,,,,,,,,,,,,,1.3758,688.9452298000106,None,None,1,688.9452298000106,None,,P033,FENCOG,2,Pre,2022_Apr_05_1139,N-Back (New Version 2021),2021.1.4,120.04239893480636,
,,,,Conditions/Version_1/twoback(2)_v1.xlsx,New rule: Press 'space' when you see 2-back (i.e. the same letter as the one that appeared 2 letters ago.),,,,,,,,,,,0,7,7,7,,,,,,,,,,,,,,,,,,,,,,,,,,,,,,,,,,,,,,,,,,,,,,,,,,,,,,,,,,,,,,,,,,,,,,,,,,,,,,,,,P033,FENCOG,2,Pre,2022_Apr_05_1139,N-Back (New Version 2021),2021.1.4,120.04239893480636,
,,,,Conditions/Version_1/threeback(3)_v1.xlsx,New rule: Press 'space' when you see 3-back (i.e. the same letter as the one that appeared 3 letters ago.),w,None,,,,,,,,,0,8,8,8,0,0,0,0,,,,,,,,,,,,,,,,,,,,,,,,,,,,,,,,,,,,,,,,,,,,,,,,,,,,,,,,,,,690.9744887999841,None,693.9600301000173,None,space,1.7368893999955617,693.9600301000173,None,690.9744887999841,None,1.8532,697.5828038000036,None,None,1,697.5828038000036,None,,P033,FENCOG,2,Pre,2022_Apr_05_1139,N-Back (New Version 2021),2021.1.4,120.04239893480636,
,,,,Conditions/Version_1/threeback(3)_v1.xlsx,New rule: Press 'space' when you see 3-back (i.e. the same letter as the one that appeared 3 letters ago.),p,None,,,,,,,,,0,8,8,8,0,1,1,1,,,,,,,,,,,,,,,,,,,,,,,,,,,,,,,,,,,,,,,,,,,,,,,,,,,,,,,,,,,,,,,,,,,,,1.258,700.8397303000093,None,None,1,700.8397303000093,None,,P033,FENCOG,2,Pre,2022_Apr_05_1139,N-Back (New Version 2021),2021.1.4,120.04239893480636,
,,,,Conditions/Version_1/threeback(3)_v1.xlsx,New rule: Press 'space' when you see 3-back (i.e. the same letter as the one that appeared 3 letters ago.),P,None,,,,,,,,,0,8,8,8,0,2,2,2,,,,,,,,,,,,,,,,,,,,,,,,,,,,,,,,,,,,,,,,,,,,,,,,,,,,,,,,,,,,,,,,,,,,,1.6238,704.4644523999887,None,None,1,704.4644523999887,None,,P033,FENCOG,2,Pre,2022_Apr_05_1139,N-Back (New Version 2021),2021.1.4,120.04239893480636,
,,,,Conditions/Version_1/threeback(3)_v1.xlsx,New rule: Press 'space' when you see 3-back (i.e. the same letter as the one that appeared 3 letters ago.),i,None,,,,,,,,,0,8,8,8,0,3,3,3,,,,,,,,,,,,,,,,,,,,,,,,,,,,,,,,,,,,,,,,,,,,,,,,,,,,,,,,,,,,,,,,,,,,,1.0906,707.5628955999855,None,None,1,707.5628955999855,None,,P033,FENCOG,2,Pre,2022_Apr_05_1139,N-Back (New Version 2021),2021.1.4,120.04239893480636,
,,,,Conditions/Version_1/threeback(3)_v1.xlsx,New rule: Press 'space' when you see 3-back (i.e. the same letter as the one that appeared 3 letters ago.),f,None,,,,,,,,,0,8,8,8,0,4,4,4,,,,,,,,,,,,,,,,,,,,,,,,,,,,,,,,,,,,,,,,,,,,,,,,,,,,,,,,,,,,,,,,,,,,,1.6052,711.1708490999881,None,None,1,711.1708490999881,None,,P033,FENCOG,2,Pre,2022_Apr_05_1139,N-Back (New Version 2021),2021.1.4,120.04239893480636,
,,,,Conditions/Version_1/threeback(3)_v1.xlsx,New rule: Press 'space' when you see 3-back (i.e. the same letter as the one that appeared 3 letters ago.),o,None,,,,,,,,,0,8,8,8,0,5,5,5,,,,,,,,,,,,,,,,,,,,,,,,,,,,,,,,,,,,,,,,,,,,,,,,,,,,,,,,,,,,,,,,,,,,,1.5804,714.7606278000167,None,None,1,714.7606278000167,None,,P033,FENCOG,2,Pre,2022_Apr_05_1139,N-Back (New Version 2021),2021.1.4,120.04239893480636,
,,,,Conditions/Version_1/threeback(3)_v1.xlsx,New rule: Press 'space' when you see 3-back (i.e. the same letter as the one that appeared 3 letters ago.),w,None,,,,,,,,,0,8,8,8,0,6,6,6,,,,,,,,,,,,,,,,,,,,,,,,,,,,,,,,,,,,,,,,,,,,,,,,,,,,,,,,,,,,,,,,,,,,,1.0534,717.8181208000169,None,None,1,717.8181208000169,None,,P033,FENCOG,2,Pre,2022_Apr_05_1139,N-Back (New Version 2021),2021.1.4,120.04239893480636,
,,,,Conditions/Version_1/threeback(3)_v1.xlsx,New rule: Press 'space' when you see 3-back (i.e. the same letter as the one that appeared 3 letters ago.),F,space,,,,,,,,,0,8,8,8,0,7,7,7,,,,,,,,,,,,,,,,,,,,,,,,,,,,,,,,,,,,,,,,,,,,,,,,,,,,,,,,,,,,,,,,,,,,,1.4564,721.2763633999857,None,space,1,721.2763633999857,None,0.6285023000091314,P033,FENCOG,2,Pre,2022_Apr_05_1139,N-Back (New Version 2021),2021.1.4,120.04239893480636,
,,,,Conditions/Version_1/threeback(3)_v1.xlsx,New rule: Press 'space' when you see 3-back (i.e. the same letter as the one that appeared 3 letters ago.),p,None,,,,,,,,,0,8,8,8,0,8,8,8,,,,,,,,,,,,,,,,,,,,,,,,,,,,,,,,,,,,,,,,,,,,,,,,,,,,,,,,,,,,,,,,,,,,,1.0844,724.3759346000152,None,None,1,724.3759346000152,None,,P033,FENCOG,2,Pre,2022_Apr_05_1139,N-Back (New Version 2021),2021.1.4,120.04239893480636,
,,,,Conditions/Version_1/threeback(3)_v1.xlsx,New rule: Press 'space' when you see 3-back (i.e. the same letter as the one that appeared 3 letters ago.),W,space,,,,,,,,,0,8,8,8,0,9,9,9,,,,,,,,,,,,,,,,,,,,,,,,,,,,,,,,,,,,,,,,,,,,,,,,,,,,,,,,,,,,,,,,,,,,,1.9834,728.3655789999757,None,space,1,728.3655789999757,None,0.7635953000281006,P033,FENCOG,2,Pre,2022_Apr_05_1139,N-Back (New Version 2021),2021.1.4,120.04239893480636,
,,,,Conditions/Version_1/threeback(3)_v1.xlsx,New rule: Press 'space' when you see 3-back (i.e. the same letter as the one that appeared 3 letters ago.),,,,,,,,,,,0,8,8,8,,,,,,,,,,,,,,,,,,,,,,,,,,,,,,,,,,,,,,,,,,,,,,,,,,,,,,,,,,,,,,,,,,,,,,,,,,,,,,,,,P033,FENCOG,2,Pre,2022_Apr_05_1139,N-Back (New Version 2021),2021.1.4,120.04239893480636,
,,,,Conditions/Version_1/zeroback(3)_v1.xlsx,New rule: Press 'space' when you see the letter 'x' or 'X'.,X,space,,,,,,,,,0,9,9,9,0,0,0,0,,,,,,,,,,,,,,,,,,,,,,,,,,,,,,,,,,,,,,,,,,,,,,,,,,,,,,,,,,,730.3848940000171,None,733.3732610999723,None,space,0.37159220001194626,733.3732610999723,None,730.3848940000171,None,1.9028,735.6805821000016,None,space,1,735.6805821000016,None,0.6165184999699704,P033,FENCOG,2,Pre,2022_Apr_05_1139,N-Back (New Version 2021),2021.1.4,120.04239893480636,
,,,,Conditions/Version_1/zeroback(3)_v1.xlsx,New rule: Press 'space' when you see the letter 'x' or 'X'.,B,None,,,,,,,,,0,9,9,9,0,1,1,1,,,,,,,,,,,,,,,,,,,,,,,,,,,,,,,,,,,,,,,,,,,,,,,,,,,,,,,,,,,,,,,,,,,,,1.971,739.6625906999689,None,None,1,739.6625906999689,None,,P033,FENCOG,2,Pre,2022_Apr_05_1139,N-Back (New Version 2021),2021.1.4,120.04239893480636,
,,,,Conditions/Version_1/zeroback(3)_v1.xlsx,New rule: Press 'space' when you see the letter 'x' or 'X'.,m,None,,,,,,,,,0,9,9,9,0,2,2,2,,,,,,,,,,,,,,,,,,,,,,,,,,,,,,,,,,,,,,,,,,,,,,,,,,,,,,,,,,,,,,,,,,,,,1.0844,742.7608890999691,None,None,1,742.7608890999691,None,,P033,FENCOG,2,Pre,2022_Apr_05_1139,N-Back (New Version 2021),2021.1.4,120.04239893480636,
,,,,Conditions/Version_1/zeroback(3)_v1.xlsx,New rule: Press 'space' when you see the letter 'x' or 'X'.,m,None,,,,,,,,,0,9,9,9,0,3,3,3,,,,,,,,,,,,,,,,,,,,,,,,,,,,,,,,,,,,,,,,,,,,,,,,,,,,,,,,,,,,,,,,,,,,,1.5308,746.2932003000169,None,None,1,746.2932003000169,None,,P033,FENCOG,2,Pre,2022_Apr_05_1139,N-Back (New Version 2021),2021.1.4,120.04239893480636,
,,,,Conditions/Version_1/zeroback(3)_v1.xlsx,New rule: Press 'space' when you see the letter 'x' or 'X'.,o,None,,,,,,,,,0,9,9,9,0,4,4,4,,,,,,,,,,,,,,,,,,,,,,,,,,,,,,,,,,,,,,,,,,,,,,,,,,,,,,,,,,,,,,,,,,,,,1.8966,750.1919546999852,None,None,1,750.1919546999852,None,,P033,FENCOG,2,Pre,2022_Apr_05_1139,N-Back (New Version 2021),2021.1.4,120.04239893480636,
,,,,Conditions/Version_1/zeroback(3)_v1.xlsx,New rule: Press 'space' when you see the letter 'x' or 'X'.,p,None,,,,,,,,,0,9,9,9,0,5,5,5,,,,,,,,,,,,,,,,,,,,,,,,,,,,,,,,,,,,,,,,,,,,,,,,,,,,,,,,,,,,,,,,,,,,,1.9648,754.1573611000204,None,None,1,754.1573611000204,None,,P033,FENCOG,2,Pre,2022_Apr_05_1139,N-Back (New Version 2021),2021.1.4,120.04239893480636,
,,,,Conditions/Version_1/zeroback(3)_v1.xlsx,New rule: Press 'space' when you see the letter 'x' or 'X'.,G,None,,,,,,,,,0,9,9,9,0,6,6,6,,,,,,,,,,,,,,,,,,,,,,,,,,,,,,,,,,,,,,,,,,,,,,,,,,,,,,,,,,,,,,,,,,,,,1.1216,757.2842876000213,None,None,1,757.2842876000213,None,,P033,FENCOG,2,Pre,2022_Apr_05_1139,N-Back (New Version 2021),2021.1.4,120.04239893480636,
,,,,Conditions/Version_1/zeroback(3)_v1.xlsx,New rule: Press 'space' when you see the letter 'x' or 'X'.,X,space,,,,,,,,,0,9,9,9,0,7,7,7,,,,,,,,,,,,,,,,,,,,,,,,,,,,,,,,,,,,,,,,,,,,,,,,,,,,,,,,,,,,,,,,,,,,,1.6796,760.9722627999727,None,space,1,760.9722627999727,None,1.5810327000217512,P033,FENCOG,2,Pre,2022_Apr_05_1139,N-Back (New Version 2021),2021.1.4,120.04239893480636,
,,,,Conditions/Version_1/zeroback(3)_v1.xlsx,New rule: Press 'space' when you see the letter 'x' or 'X'.,p,None,,,,,,,,,0,9,9,9,0,8,8,8,,,,,,,,,,,,,,,,,,,,,,,,,,,,,,,,,,,,,,,,,,,,,,,,,,,,,,,,,,,,,,,,,,,,,1.6238,764.5961840000236,None,None,1,764.5961840000236,None,,P033,FENCOG,2,Pre,2022_Apr_05_1139,N-Back (New Version 2021),2021.1.4,120.04239893480636,
,,,,Conditions/Version_1/zeroback(3)_v1.xlsx,New rule: Press 'space' when you see the letter 'x' or 'X'.,x,space,,,,,,,,,0,9,9,9,0,9,9,9,,,,,,,,,,,,,,,,,,,,,,,,,,,,,,,,,,,,,,,,,,,,,,,,,,,,,,,,,,,,,,,,,,,,,1.5928,768.1981939999969,None,space,1,768.1981939999969,None,0.4751928999903612,P033,FENCOG,2,Pre,2022_Apr_05_1139,N-Back (New Version 2021),2021.1.4,120.04239893480636,
,,,,Conditions/Version_1/zeroback(3)_v1.xlsx,New rule: Press 'space' when you see the letter 'x' or 'X'.,,,,,,,,,,,0,9,9,9,,,,,,,,,,,,,,,,,,,,,,,,,,,,,,,,,,,,,,,,,,,,,,,,,,,,,,,,,,,,,,,,,,,,,,,,,,,,,,,,,P033,FENCOG,2,Pre,2022_Apr_05_1139,N-Back (New Version 2021),2021.1.4,120.04239893480636,
,,,,Conditions/Version_1/twoback(3)_v1.xlsx,New rule: Press 'space' when you see 2-back (i.e. the same letter as the one that appeared 2 letters ago.),e,None,,,,,,,,,0,10,10,10,0,0,0,0,,,,,,,,,,,,,,,,,,,,,,,,,,,,,,,,,,,,,,,,,,,,,,,,,,,,,,,,,,,770.2213853999856,None,773.2116589000216,None,space,0.3572664000093937,773.2116589000216,None,770.2213853999856,None,1.2332,774.835570700001,None,None,1,774.835570700001,None,,P033,FENCOG,2,Pre,2022_Apr_05_1139,N-Back (New Version 2021),2021.1.4,120.04239893480636,
,,,,Conditions/Version_1/twoback(3)_v1.xlsx,New rule: Press 'space' when you see 2-back (i.e. the same letter as the one that appeared 2 letters ago.),o,None,,,,,,,,,0,10,10,10,0,1,1,1,,,,,,,,,,,,,,,,,,,,,,,,,,,,,,,,,,,,,,,,,,,,,,,,,,,,,,,,,,,,,,,,,,,,,1.0782,777.9253657999798,None,None,1,777.9253657999798,None,,P033,FENCOG,2,Pre,2022_Apr_05_1139,N-Back (New Version 2021),2021.1.4,120.04239893480636,
,,,,Conditions/Version_1/twoback(3)_v1.xlsx,New rule: Press 'space' when you see 2-back (i.e. the same letter as the one that appeared 2 letters ago.),P,None,,,,,,,,,0,10,10,10,0,2,2,2,,,,,,,,,,,,,,,,,,,,,,,,,,,,,,,,,,,,,,,,,,,,,,,,,,,,,,,,,,,,,,,,,,,,,1.2146,781.1411163000157,None,None,1,781.1411163000157,None,,P033,FENCOG,2,Pre,2022_Apr_05_1139,N-Back (New Version 2021),2021.1.4,120.04239893480636,
,,,,Conditions/Version_1/twoback(3)_v1.xlsx,New rule: Press 'space' when you see 2-back (i.e. the same letter as the one that appeared 2 letters ago.),z,None,,,,,,,,,0,10,10,10,0,3,3,3,,,,,,,,,,,,,,,,,,,,,,,,,,,,,,,,,,,,,,,,,,,,,,,,,,,,,,,,,,,,,,,,,,,,,1.0596,784.2096872999682,None,None,1,784.2096872999682,None,,P033,FENCOG,2,Pre,2022_Apr_05_1139,N-Back (New Version 2021),2021.1.4,120.04239893480636,
,,,,Conditions/Version_1/twoback(3)_v1.xlsx,New rule: Press 'space' when you see 2-back (i.e. the same letter as the one that appeared 2 letters ago.),X,None,,,,,,,,,0,10,10,10,0,4,4,4,,,,,,,,,,,,,,,,,,,,,,,,,,,,,,,,,,,,,,,,,,,,,,,,,,,,,,,,,,,,,,,,,,,,,1.3324,787.5476740999729,None,None,1,787.5476740999729,None,,P033,FENCOG,2,Pre,2022_Apr_05_1139,N-Back (New Version 2021),2021.1.4,120.04239893480636,
,,,,Conditions/Version_1/twoback(3)_v1.xlsx,New rule: Press 'space' when you see 2-back (i.e. the same letter as the one that appeared 2 letters ago.),z,space,,,,,,,,,0,10,10,10,0,5,5,5,,,,,,,,,,,,,,,,,,,,,,,,,,,,,,,,,,,,,,,,,,,,,,,,,,,,,,,,,,,,,,,,,,,,,1.9462,791.4975425999728,None,space,1,791.4975425999728,None,0.6394982999772765,P033,FENCOG,2,Pre,2022_Apr_05_1139,N-Back (New Version 2021),2021.1.4,120.04239893480636,
,,,,Conditions/Version_1/twoback(3)_v1.xlsx,New rule: Press 'space' when you see 2-back (i.e. the same letter as the one that appeared 2 letters ago.),x,space,,,,,,,,,0,10,10,10,0,6,6,6,,,,,,,,,,,,,,,,,,,,,,,,,,,,,,,,,,,,,,,,,,,,,,,,,,,,,,,,,,,,,,,,,,,,,1.2766,794.7874204000109,None,space,1,794.7874204000109,None,0.37350440002046525,P033,FENCOG,2,Pre,2022_Apr_05_1139,N-Back (New Version 2021),2021.1.4,120.04239893480636,
,,,,Conditions/Version_1/twoback(3)_v1.xlsx,New rule: Press 'space' when you see 2-back (i.e. the same letter as the one that appeared 2 letters ago.),c,None,,,,,,,,,0,10,10,10,0,7,7,7,,,,,,,,,,,,,,,,,,,,,,,,,,,,,,,,,,,,,,,,,,,,,,,,,,,,,,,,,,,,,,,,,,,,,1.6858,798.479223900009,None,None,1,798.479223900009,None,,P033,FENCOG,2,Pre,2022_Apr_05_1139,N-Back (New Version 2021),2021.1.4,120.04239893480636,
,,,,Conditions/Version_1/twoback(3)_v1.xlsx,New rule: Press 'space' when you see 2-back (i.e. the same letter as the one that appeared 2 letters ago.),i,None,,,,,,,,,0,10,10,10,0,8,8,8,,,,,,,,,,,,,,,,,,,,,,,,,,,,,,,,,,,,,,,,,,,,,,,,,,,,,,,,,,,,,,,,,,,,,1.816,802.3027654999751,None,None,1,802.3027654999751,None,,P033,FENCOG,2,Pre,2022_Apr_05_1139,N-Back (New Version 2021),2021.1.4,120.04239893480636,
,,,,Conditions/Version_1/twoback(3)_v1.xlsx,New rule: Press 'space' when you see 2-back (i.e. the same letter as the one that appeared 2 letters ago.),C,space,,,,,,,,,0,10,10,10,0,9,9,9,,,,,,,,,,,,,,,,,,,,,,,,,,,,,,,,,,,,,,,,,,,,,,,,,,,,,,,,,,,,,,,,,,,,,1.8904,806.2032913999865,None,space,1,806.2032913999865,None,0.5975207000155933,P033,FENCOG,2,Pre,2022_Apr_05_1139,N-Back (New Version 2021),2021.1.4,120.04239893480636,
,,,,Conditions/Version_1/twoback(3)_v1.xlsx,New rule: Press 'space' when you see 2-back (i.e. the same letter as the one that appeared 2 letters ago.),,,,,,,,,,,0,10,10,10,,,,,,,,,,,,,,,,,,,,,,,,,,,,,,,,,,,,,,,,,,,,,,,,,,,,,,,,,,,,,,,,,,,,,,,,,,,,,,,,,P033,FENCOG,2,Pre,2022_Apr_05_1139,N-Back (New Version 2021),2021.1.4,120.04239893480636,
,,,,Conditions/Version_1/oneback(3)_v1.xlsx,New rule: Press 'space' when you see 1-back (i.e. the same letter as the one that appeared 1 letter ago.),o,None,,,,,,,,,0,11,11,11,0,0,0,0,,,,,,,,,,,,,,,,,,,,,,,,,,,,,,,,,,,,,,,,,,,,,,,,,,,,,,,,,,,808.2287817000179,None,811.2167433999712,None,space,0.29630400001769885,811.2167433999712,None,808.2287817000179,None,1.909,813.4482419000124,None,None,1,813.4482419000124,None,,P033,FENCOG,2,Pre,2022_Apr_05_1139,N-Back (New Version 2021),2021.1.4,120.04239893480636,
,,,,Conditions/Version_1/oneback(3)_v1.xlsx,New rule: Press 'space' when you see 1-back (i.e. the same letter as the one that appeared 1 letter ago.),O,space,,,,,,,,,0,11,11,11,0,1,1,1,,,,,,,,,,,,,,,,,,,,,,,,,,,,,,,,,,,,,,,,,,,,,,,,,,,,,,,,,,,,,,,,,,,,,1.3882,816.8399493999896,None,space,1,816.8399493999896,None,0.5132247000001371,P033,FENCOG,2,Pre,2022_Apr_05_1139,N-Back (New Version 2021),2021.1.4,120.04239893480636,
,,,,Conditions/Version_1/oneback(3)_v1.xlsx,New rule: Press 'space' when you see 1-back (i.e. the same letter as the one that appeared 1 letter ago.),h,None,,,,,,,,,0,11,11,11,0,2,2,2,,,,,,,,,,,,,,,,,,,,,,,,,,,,,,,,,,,,,,,,,,,,,,,,,,,,,,,,,,,,,,,,,,,,,1.3572,820.2105585000245,None,None,1,820.2105585000245,None,,P033,FENCOG,2,Pre,2022_Apr_05_1139,N-Back (New Version 2021),2021.1.4,120.04239893480636,
,,,,Conditions/Version_1/oneback(3)_v1.xlsx,New rule: Press 'space' when you see 1-back (i.e. the same letter as the one that appeared 1 letter ago.),g,None,,,,,,,,,0,11,11,11,0,3,3,3,,,,,,,,,,,,,,,,,,,,,,,,,,,,,,,,,,,,,,,,,,,,,,,,,,,,,,,,,,,,,,,,,,,,,1.9338,824.1556554000126,None,None,1,824.1556554000126,None,,P033,FENCOG,2,Pre,2022_Apr_05_1139,N-Back (New Version 2021),2021.1.4,120.04239893480636,
,,,,Conditions/Version_1/oneback(3)_v1.xlsx,New rule: Press 'space' when you see 1-back (i.e. the same letter as the one that appeared 1 letter ago.),n,None,,,,,,,,,0,11,11,11,0,4,4,4,,,,,,,,,,,,,,,,,,,,,,,,,,,,,,,,,,,,,,,,,,,,,,,,,,,,,,,,,,,,,,,,,,,,,1.9028,828.0712639999692,None,None,1,828.0712639999692,None,,P033,FENCOG,2,Pre,2022_Apr_05_1139,N-Back (New Version 2021),2021.1.4,120.04239893480636,
,,,,Conditions/Version_1/oneback(3)_v1.xlsx,New rule: Press 'space' when you see 1-back (i.e. the same letter as the one that appeared 1 letter ago.),z,None,,,,,,,,,0,11,11,11,0,5,5,5,,,,,,,,,,,,,,,,,,,,,,,,,,,,,,,,,,,,,,,,,,,,,,,,,,,,,,,,,,,,,,,,,,,,,1.4192,831.5010522999801,None,None,1,831.5010522999801,None,,P033,FENCOG,2,Pre,2022_Apr_05_1139,N-Back (New Version 2021),2021.1.4,120.04239893480636,
,,,,Conditions/Version_1/oneback(3)_v1.xlsx,New rule: Press 'space' when you see 1-back (i.e. the same letter as the one that appeared 1 letter ago.),X,None,,,,,,,,,0,11,11,11,0,6,6,6,,,,,,,,,,,,,,,,,,,,,,,,,,,,,,,,,,,,,,,,,,,,,,,,,,,,,,,,,,,,,,,,,,,,,1.7168,835.2166134999716,None,None,1,835.2166134999716,None,,P033,FENCOG,2,Pre,2022_Apr_05_1139,N-Back (New Version 2021),2021.1.4,120.04239893480636,
,,,,Conditions/Version_1/oneback(3)_v1.xlsx,New rule: Press 'space' when you see 1-back (i.e. the same letter as the one that appeared 1 letter ago.),r,None,,,,,,,,,0,11,11,11,0,7,7,7,,,,,,,,,,,,,,,,,,,,,,,,,,,,,,,,,,,,,,,,,,,,,,,,,,,,,,,,,,,,,,,,,,,,,1.5246,838.7752334999968,None,None,1,838.7752334999968,None,,P033,FENCOG,2,Pre,2022_Apr_05_1139,N-Back (New Version 2021),2021.1.4,120.04239893480636,
,,,,Conditions/Version_1/oneback(3)_v1.xlsx,New rule: Press 'space' when you see 1-back (i.e. the same letter as the one that appeared 1 letter ago.),r,space,,,,,,,,,0,11,11,11,0,8,8,8,,,,,,,,,,,,,,,,,,,,,,,,,,,,,,,,,,,,,,,,,,,,,,,,,,,,,,,,,,,,,,,,,,,,,1.6238,842.3732144000242,None,space,1,842.3732144000242,None,0.5158064999850467,P033,FENCOG,2,Pre,2022_Apr_05_1139,N-Back (New Version 2021),2021.1.4,120.04239893480636,
,,,,Conditions/Version_1/oneback(3)_v1.xlsx,New rule: Press 'space' when you see 1-back (i.e. the same letter as the one that appeared 1 letter ago.),P,None,,,,,,,,,0,11,11,11,0,9,9,9,,,,,,,,,,,,,,,,,,,,,,,,,,,,,,,,,,,,,,,,,,,,,,,,,,,,,,,,,,,,,,,,,,,,,1.0968,845.4734076000168,None,None,1,845.4734076000168,None,,P033,FENCOG,2,Pre,2022_Apr_05_1139,N-Back (New Version 2021),2021.1.4,120.04239893480636,
,,,,Conditions/Version_1/oneback(3)_v1.xlsx,New rule: Press 'space' when you see 1-back (i.e. the same letter as the one that appeared 1 letter ago.),,,,,,,,,,,0,11,11,11,,,,,,,,,,,,,,,,,,,,,,,,,,,,,,,,,,,,,,,,,,,,,,,,,,,,,,,,,,,,,,,,,,,,,,,,,,,,,,,,,P033,FENCOG,2,Pre,2022_Apr_05_1139,N-Back (New Version 2021),2021.1.4,120.04239893480636,
,,,,Conditions/Version_1/twoback(4)_v1.xlsx,New rule: Press 'space' when you see 2-back (i.e. the same letter as the one that appeared 2 letters ago.),r,None,,,,,,,,,0,12,12,12,0,0,0,0,,,,,,,,,,,,,,,,,,,,,,,,,,,,,,,,,,,,,,,,,,,,,,,,,,,,,,,,,,,847.4987372999894,None,850.4807304000133,None,space,0.2640559999854304,850.4807304000133,None,847.4987372999894,None,1.2456,852.021038100007,None,None,1,852.021038100007,None,,P033,FENCOG,2,Pre,2022_Apr_05_1139,N-Back (New Version 2021),2021.1.4,120.04239893480636,
,,,,Conditions/Version_1/twoback(4)_v1.xlsx,New rule: Press 'space' when you see 2-back (i.e. the same letter as the one that appeared 2 letters ago.),T,None,,,,,,,,,0,12,12,12,0,1,1,1,,,,,,,,,,,,,,,,,,,,,,,,,,,,,,,,,,,,,,,,,,,,,,,,,,,,,,,,,,,,,,,,,,,,,1.1712,855.2039430000004,None,None,1,855.2039430000004,None,,P033,FENCOG,2,Pre,2022_Apr_05_1139,N-Back (New Version 2021),2021.1.4,120.04239893480636,
,,,,Conditions/Version_1/twoback(4)_v1.xlsx,New rule: Press 'space' when you see 2-back (i.e. the same letter as the one that appeared 2 letters ago.),o,None,,,,,,,,,0,12,12,12,0,2,2,2,,,,,,,,,,,,,,,,,,,,,,,,,,,,,,,,,,,,,,,,,,,,,,,,,,,,,,,,,,,,,,,,,,,,,1.3572,858.5684291999787,None,None,1,858.5684291999787,None,,P033,FENCOG,2,Pre,2022_Apr_05_1139,N-Back (New Version 2021),2021.1.4,120.04239893480636,
,,,,Conditions/Version_1/twoback(4)_v1.xlsx,New rule: Press 'space' when you see 2-back (i.e. the same letter as the one that appeared 2 letters ago.),p,None,,,,,,,,,0,12,12,12,0,3,3,3,,,,,,,,,,,,,,,,,,,,,,,,,,,,,,,,,,,,,,,,,,,,,,,,,,,,,,,,,,,,,,,,,,,,,1.2766,861.8507490999764,None,None,1,861.8507490999764,None,,P033,FENCOG,2,Pre,2022_Apr_05_1139,N-Back (New Version 2021),2021.1.4,120.04239893480636,
,,,,Conditions/Version_1/twoback(4)_v1.xlsx,New rule: Press 'space' when you see 2-back (i.e. the same letter as the one that appeared 2 letters ago.),p,None,,,,,,,,,0,12,12,12,0,4,4,4,,,,,,,,,,,,,,,,,,,,,,,,,,,,,,,,,,,,,,,,,,,,,,,,,,,,,,,,,,,,,,,,,,,,,1.8718,865.7244079000084,None,None,1,865.7244079000084,None,,P033,FENCOG,2,Pre,2022_Apr_05_1139,N-Back (New Version 2021),2021.1.4,120.04239893480636,
,,,,Conditions/Version_1/twoback(4)_v1.xlsx,New rule: Press 'space' when you see 2-back (i.e. the same letter as the one that appeared 2 letters ago.),y,None,,,,,,,,,0,12,12,12,0,5,5,5,,,,,,,,,,,,,,,,,,,,,,,,,,,,,,,,,,,,,,,,,,,,,,,,,,,,,,,,,,,,,,,,,,,,,1.1278,868.8573322999873,None,None,1,868.8573322999873,None,,P033,FENCOG,2,Pre,2022_Apr_05_1139,N-Back (New Version 2021),2021.1.4,120.04239893480636,
,,,,Conditions/Version_1/twoback(4)_v1.xlsx,New rule: Press 'space' when you see 2-back (i.e. the same letter as the one that appeared 2 letters ago.),P,space,,,,,,,,,0,12,12,12,0,6,6,6,,,,,,,,,,,,,,,,,,,,,,,,,,,,,,,,,,,,,,,,,,,,,,,,,,,,,,,,,,,,,,,,,,,,,1.0782,871.9394306999748,None,space,1,871.9394306999748,None,0.5496313999756239,P033,FENCOG,2,Pre,2022_Apr_05_1139,N-Back (New Version 2021),2021.1.4,120.04239893480636,
,,,,Conditions/Version_1/twoback(4)_v1.xlsx,New rule: Press 'space' when you see 2-back (i.e. the same letter as the one that appeared 2 letters ago.),y,None,,,,,,,,,0,12,12,12,0,7,7,7,,,,,,,,,,,,,,,,,,,,,,,,,,,,,,,,,,,,,,,,,,,,,,,,,,,,,,,,,,,,,,,,,,,,,1.0968,875.0467927000136,None,space,0,875.0467927000136,None,1.258374700031709,P033,FENCOG,2,Pre,2022_Apr_05_1139,N-Back (New Version 2021),2021.1.4,120.04239893480636,
,,,,Conditions/Version_1/twoback(4)_v1.xlsx,New rule: Press 'space' when you see 2-back (i.e. the same letter as the one that appeared 2 letters ago.),y,space,,,,,,,,,0,12,12,12,0,8,8,8,,,,,,,,,,,,,,,,,,,,,,,,,,,,,,,,,,,,,,,,,,,,,,,,,,,,,,,,,,,,,,,,,,,,,1.568,878.6209465999855,None,None,0,878.6209465999855,None,,P033,FENCOG,2,Pre,2022_Apr_05_1139,N-Back (New Version 2021),2021.1.4,120.04239893480636,
,,,,Conditions/Version_1/twoback(4)_v1.xlsx,New rule: Press 'space' when you see 2-back (i.e. the same letter as the one that appeared 2 letters ago.),,,,,,,,,,,0,12,12,12,,,,,,,,,,,,,,,,,,,,,,,,,,,,,,,,,,,,,,,,,,,,,,,,,,,,,,,,,,,,,,,,,,,,,,,,,,,,,,,,,P033,FENCOG,2,Pre,2022_Apr_05_1139,N-Back (New Version 2021),2021.1.4,120.04239893480636,
,,,,Conditions/Version_1/zeroback(4)_v1.xlsx,New rule: Press 'space' when you see the letter 'x' or 'X'.,o,None,,,,,,,,,0,13,13,13,0,0,0,0,,,,,,,,,,,,,,,,,,,,,,,,,,,,,,,,,,,,,,,,,,,,,,,,,,,,,,,,,,,880.6394530999823,None,883.6294988999725,None,space,0.2756960999686271,883.6294988999725,None,880.6394530999823,None,1.1154,885.054266399995,None,None,1,885.054266399995,None,,P033,FENCOG,2,Pre,2022_Apr_05_1139,N-Back (New Version 2021),2021.1.4,120.04239893480636,
,,,,Conditions/Version_1/zeroback(4)_v1.xlsx,New rule: Press 'space' when you see the letter 'x' or 'X'.,X,space,,,,,,,,,0,13,13,13,0,1,1,1,,,,,,,,,,,,,,,,,,,,,,,,,,,,,,,,,,,,,,,,,,,,,,,,,,,,,,,,,,,,,,,,,,,,,1.413,888.4771256999811,None,space,1,888.4771256999811,None,0.37997400003951043,P033,FENCOG,2,Pre,2022_Apr_05_1139,N-Back (New Version 2021),2021.1.4,120.04239893480636,
,,,,Conditions/Version_1/zeroback(4)_v1.xlsx,New rule: Press 'space' when you see the letter 'x' or 'X'.,p,None,,,,,,,,,0,13,13,13,0,2,2,2,,,,,,,,,,,,,,,,,,,,,,,,,,,,,,,,,,,,,,,,,,,,,,,,,,,,,,,,,,,,,,,,,,,,,1.0472,891.5335806999938,None,None,1,891.5335806999938,None,,P033,FENCOG,2,Pre,2022_Apr_05_1139,N-Back (New Version 2021),2021.1.4,120.04239893480636,
,,,,Conditions/Version_1/zeroback(4)_v1.xlsx,New rule: Press 'space' when you see the letter 'x' or 'X'.,m,None,,,,,,,,,0,13,13,13,0,3,3,3,,,,,,,,,,,,,,,,,,,,,,,,,,,,,,,,,,,,,,,,,,,,,,,,,,,,,,,,,,,,,,,,,,,,,1.2084,894.7412318999995,None,None,1,894.7412318999995,None,,P033,FENCOG,2,Pre,2022_Apr_05_1139,N-Back (New Version 2021),2021.1.4,120.04239893480636,
,,,,Conditions/Version_1/zeroback(4)_v1.xlsx,New rule: Press 'space' when you see the letter 'x' or 'X'.,n,None,,,,,,,,,0,13,13,13,0,4,4,4,,,,,,,,,,,,,,,,,,,,,,,,,,,,,,,,,,,,,,,,,,,,,,,,,,,,,,,,,,,,,,,,,,,,,1.382,898.1233887000126,None,None,1,898.1233887000126,None,,P033,FENCOG,2,Pre,2022_Apr_05_1139,N-Back (New Version 2021),2021.1.4,120.04239893480636,
,,,,Conditions/Version_1/zeroback(4)_v1.xlsx,New rule: Press 'space' when you see the letter 'x' or 'X'.,m,None,,,,,,,,,0,13,13,13,0,5,5,5,,,,,,,,,,,,,,,,,,,,,,,,,,,,,,,,,,,,,,,,,,,,,,,,,,,,,,,,,,,,,,,,,,,,,1.6362,901.7639674000093,None,None,1,901.7639674000093,None,,P033,FENCOG,2,Pre,2022_Apr_05_1139,N-Back (New Version 2021),2021.1.4,120.04239893480636,
,,,,Conditions/Version_1/zeroback(4)_v1.xlsx,New rule: Press 'space' when you see the letter 'x' or 'X'.,C,None,,,,,,,,,0,13,13,13,0,6,6,6,,,,,,,,,,,,,,,,,,,,,,,,,,,,,,,,,,,,,,,,,,,,,,,,,,,,,,,,,,,,,,,,,,,,,1.6052,905.3712594999815,None,None,1,905.3712594999815,None,,P033,FENCOG,2,Pre,2022_Apr_05_1139,N-Back (New Version 2021),2021.1.4,120.04239893480636,
,,,,Conditions/Version_1/zeroback(4)_v1.xlsx,New rule: Press 'space' when you see the letter 'x' or 'X'.,m,None,,,,,,,,,0,13,13,13,0,7,7,7,,,,,,,,,,,,,,,,,,,,,,,,,,,,,,,,,,,,,,,,,,,,,,,,,,,,,,,,,,,,,,,,,,,,,1.2518,908.6284947000095,None,None,1,908.6284947000095,None,,P033,FENCOG,2,Pre,2022_Apr_05_1139,N-Back (New Version 2021),2021.1.4,120.04239893480636,
,,,,Conditions/Version_1/zeroback(4)_v1.xlsx,New rule: Press 'space' when you see the letter 'x' or 'X'.,p,None,,,,,,,,,0,13,13,13,0,8,8,8,,,,,,,,,,,,,,,,,,,,,,,,,,,,,,,,,,,,,,,,,,,,,,,,,,,,,,,,,,,,,,,,,,,,,1.2766,911.9111575999996,None,None,1,911.9111575999996,None,,P033,FENCOG,2,Pre,2022_Apr_05_1139,N-Back (New Version 2021),2021.1.4,120.04239893480636,
,,,,Conditions/Version_1/zeroback(4)_v1.xlsx,New rule: Press 'space' when you see the letter 'x' or 'X'.,X,space,,,,,,,,,0,13,13,13,0,9,9,9,,,,,,,,,,,,,,,,,,,,,,,,,,,,,,,,,,,,,,,,,,,,,,,,,,,,,,,,,,,,,,,,,,,,,1.1836,915.0945158000104,None,space,1,915.0945158000104,None,0.5145300999865867,P033,FENCOG,2,Pre,2022_Apr_05_1139,N-Back (New Version 2021),2021.1.4,120.04239893480636,
,,,,Conditions/Version_1/zeroback(4)_v1.xlsx,New rule: Press 'space' when you see the letter 'x' or 'X'.,,,,,,,,,,,0,13,13,13,,,,,,,,,,,,,,,,,,,,,,,,,,,,,,,,,,,,,,,,,,,,,,,,,,,,,,,,,,,,,,,,,,,,,,,,,,,,,,,,,P033,FENCOG,2,Pre,2022_Apr_05_1139,N-Back (New Version 2021),2021.1.4,120.04239893480636,
,,,,Conditions/Version_1/oneback(4)_v1.xlsx,New rule: Press 'space' when you see 1-back (i.e. the same letter as the one that appeared 1 letter ago.),w,None,,,,,,,,,0,14,14,14,0,0,0,0,,,,,,,,,,,,,,,,,,,,,,,,,,,,,,,,,,,,,,,,,,,,,,,,,,,,,,,,,,,917.1250111999689,None,920.1106755000073,None,space,0.2903531999909319,920.1106755000073,None,917.1250111999689,None,1.5928,922.0246504999814,None,None,1,922.0246504999814,None,,P033,FENCOG,2,Pre,2022_Apr_05_1139,N-Back (New Version 2021),2021.1.4,120.04239893480636,
,,,,Conditions/Version_1/oneback(4)_v1.xlsx,New rule: Press 'space' when you see 1-back (i.e. the same letter as the one that appeared 1 letter ago.),q,None,,,,,,,,,0,14,14,14,0,1,1,1,,,,,,,,,,,,,,,,,,,,,,,,,,,,,,,,,,,,,,,,,,,,,,,,,,,,,,,,,,,,,,,,,,,,,1.4936,925.5248837000108,None,None,1,925.5248837000108,None,,P033,FENCOG,2,Pre,2022_Apr_05_1139,N-Back (New Version 2021),2021.1.4,120.04239893480636,
,,,,Conditions/Version_1/oneback(4)_v1.xlsx,New rule: Press 'space' when you see 1-back (i.e. the same letter as the one that appeared 1 letter ago.),i,None,,,,,,,,,0,14,14,14,0,2,2,2,,,,,,,,,,,,,,,,,,,,,,,,,,,,,,,,,,,,,,,,,,,,,,,,,,,,,,,,,,,,,,,,,,,,,1.7354,929.2724277999951,None,None,1,929.2724277999951,None,,P033,FENCOG,2,Pre,2022_Apr_05_1139,N-Back (New Version 2021),2021.1.4,120.04239893480636,
,,,,Conditions/Version_1/oneback(4)_v1.xlsx,New rule: Press 'space' when you see 1-back (i.e. the same letter as the one that appeared 1 letter ago.),t,None,,,,,,,,,0,14,14,14,0,3,3,3,,,,,,,,,,,,,,,,,,,,,,,,,,,,,,,,,,,,,,,,,,,,,,,,,,,,,,,,,,,,,,,,,,,,,1.6858,932.9630768999923,None,None,1,932.9630768999923,None,,P033,FENCOG,2,Pre,2022_Apr_05_1139,N-Back (New Version 2021),2021.1.4,120.04239893480636,
,,,,Conditions/Version_1/oneback(4)_v1.xlsx,New rule: Press 'space' when you see 1-back (i.e. the same letter as the one that appeared 1 letter ago.),v,None,,,,,,,,,0,14,14,14,0,4,4,4,,,,,,,,,,,,,,,,,,,,,,,,,,,,,,,,,,,,,,,,,,,,,,,,,,,,,,,,,,,,,,,,,,,,,1.7044,936.6748652000097,None,None,1,936.6748652000097,None,,P033,FENCOG,2,Pre,2022_Apr_05_1139,N-Back (New Version 2021),2021.1.4,120.04239893480636,
,,,,Conditions/Version_1/oneback(4)_v1.xlsx,New rule: Press 'space' when you see 1-back (i.e. the same letter as the one that appeared 1 letter ago.),V,space,,,,,,,,,0,14,14,14,0,5,5,5,,,,,,,,,,,,,,,,,,,,,,,,,,,,,,,,,,,,,,,,,,,,,,,,,,,,,,,,,,,,,,,,,,,,,1.2332,939.9153030000161,None,space,1,939.9153030000161,None,0.6455364999710582,P033,FENCOG,2,Pre,2022_Apr_05_1139,N-Back (New Version 2021),2021.1.4,120.04239893480636,
,,,,Conditions/Version_1/oneback(4)_v1.xlsx,New rule: Press 'space' when you see 1-back (i.e. the same letter as the one that appeared 1 letter ago.),v,space,,,,,,,,,0,14,14,14,0,6,6,6,,,,,,,,,,,,,,,,,,,,,,,,,,,,,,,,,,,,,,,,,,,,,,,,,,,,,,,,,,,,,,,,,,,,,1.2642,943.1861970999744,None,space,1,943.1861970999744,None,1.1188494000234641,P033,FENCOG,2,Pre,2022_Apr_05_1139,N-Back (New Version 2021),2021.1.4,120.04239893480636,
,,,,Conditions/Version_1/oneback(4)_v1.xlsx,New rule: Press 'space' when you see 1-back (i.e. the same letter as the one that appeared 1 letter ago.),p,None,,,,,,,,,0,14,14,14,0,7,7,7,,,,,,,,,,,,,,,,,,,,,,,,,,,,,,,,,,,,,,,,,,,,,,,,,,,,,,,,,,,,,,,,,,,,,1.3076,946.5033042000141,None,None,1,946.5033042000141,None,,P033,FENCOG,2,Pre,2022_Apr_05_1139,N-Back (New Version 2021),2021.1.4,120.04239893480636,
,,,,Conditions/Version_1/oneback(4)_v1.xlsx,New rule: Press 'space' when you see 1-back (i.e. the same letter as the one that appeared 1 letter ago.),w,None,,,,,,,,,0,14,14,14,0,8,8,8,,,,,,,,,,,,,,,,,,,,,,,,,,,,,,,,,,,,,,,,,,,,,,,,,,,,,,,,,,,,,,,,,,,,,1.6176,950.133164400002,None,None,1,950.133164400002,None,,P033,FENCOG,2,Pre,2022_Apr_05_1139,N-Back (New Version 2021),2021.1.4,120.04239893480636,
,,,,Conditions/Version_1/oneback(4)_v1.xlsx,New rule: Press 'space' when you see 1-back (i.e. the same letter as the one that appeared 1 letter ago.),W,space,,,,,,,,,0,14,14,14,0,9,9,9,,,,,,,,,,,,,,,,,,,,,,,,,,,,,,,,,,,,,,,,,,,,,,,,,,,,,,,,,,,,,,,,,,,,,1.8036,953.9403188999859,None,space,1,953.9403188999859,None,0.5727540000225417,P033,FENCOG,2,Pre,2022_Apr_05_1139,N-Back (New Version 2021),2021.1.4,120.04239893480636,
,,,,Conditions/Version_1/oneback(4)_v1.xlsx,New rule: Press 'space' when you see 1-back (i.e. the same letter as the one that appeared 1 letter ago.),,,,,,,,,,,0,14,14,14,,,,,,,,,,,,,,,,,,,,,,,,,,,,,,,,,,,,,,,,,,,,,,,,,,,,,,,,,,,,,,,,,,,,,,,,,,,,,,,,,P033,FENCOG,2,Pre,2022_Apr_05_1139,N-Back (New Version 2021),2021.1.4,120.04239893480636,
,,,,Conditions/Version_1/threeback(4)_v1.xlsx,New rule: Press 'space' when you see 3-back (i.e. the same letter as the one that appeared 3 letters ago.),A,None,,,,,,,,,0,15,15,15,0,0,0,0,,,,,,,,,,,,,,,,,,,,,,,,,,,,,,,,,,,,,,,,,,,,,,,,,,,,,,,,,,,955.9625420999946,None,958.9515485999873,None,space,0.3052719000261277,958.9515485999873,None,955.9625420999946,None,1.9524,961.2395756000187,None,None,1,961.2395756000187,None,,P033,FENCOG,2,Pre,2022_Apr_05_1139,N-Back (New Version 2021),2021.1.4,120.04239893480636,
,,,,Conditions/Version_1/threeback(4)_v1.xlsx,New rule: Press 'space' when you see 3-back (i.e. the same letter as the one that appeared 3 letters ago.),n,None,,,,,,,,,0,15,15,15,0,1,1,1,,,,,,,,,,,,,,,,,,,,,,,,,,,,,,,,,,,,,,,,,,,,,,,,,,,,,,,,,,,,,,,,,,,,,1.4936,964.7474248000071,None,None,1,964.7474248000071,None,,P033,FENCOG,2,Pre,2022_Apr_05_1139,N-Back (New Version 2021),2021.1.4,120.04239893480636,
,,,,Conditions/Version_1/threeback(4)_v1.xlsx,New rule: Press 'space' when you see 3-back (i.e. the same letter as the one that appeared 3 letters ago.),g,None,,,,,,,,,0,15,15,15,0,2,2,2,,,,,,,,,,,,,,,,,,,,,,,,,,,,,,,,,,,,,,,,,,,,,,,,,,,,,,,,,,,,,,,,,,,,,1.0968,967.8527586999699,None,None,1,967.8527586999699,None,,P033,FENCOG,2,Pre,2022_Apr_05_1139,N-Back (New Version 2021),2021.1.4,120.04239893480636,
,,,,Conditions/Version_1/threeback(4)_v1.xlsx,New rule: Press 'space' when you see 3-back (i.e. the same letter as the one that appeared 3 letters ago.),A,space,,,,,,,,,0,15,15,15,0,3,3,3,,,,,,,,,,,,,,,,,,,,,,,,,,,,,,,,,,,,,,,,,,,,,,,,,,,,,,,,,,,,,,,,,,,,,1.9958,971.8541915999958,None,space,1,971.8541915999958,None,0.49084369995398447,P033,FENCOG,2,Pre,2022_Apr_05_1139,N-Back (New Version 2021),2021.1.4,120.04239893480636,
,,,,Conditions/Version_1/threeback(4)_v1.xlsx,New rule: Press 'space' when you see 3-back (i.e. the same letter as the one that appeared 3 letters ago.),p,None,,,,,,,,,0,15,15,15,0,4,4,4,,,,,,,,,,,,,,,,,,,,,,,,,,,,,,,,,,,,,,,,,,,,,,,,,,,,,,,,,,,,,,,,,,,,,1.2518,975.119426099991,None,None,1,975.119426099991,None,,P033,FENCOG,2,Pre,2022_Apr_05_1139,N-Back (New Version 2021),2021.1.4,120.04239893480636,
,,,,Conditions/Version_1/threeback(4)_v1.xlsx,New rule: Press 'space' when you see 3-back (i.e. the same letter as the one that appeared 3 letters ago.),O,None,,,,,,,,,0,15,15,15,0,5,5,5,,,,,,,,,,,,,,,,,,,,,,,,,,,,,,,,,,,,,,,,,,,,,,,,,,,,,,,,,,,,,,,,,,,,,1.7168,978.8412270999979,None,None,1,978.8412270999979,None,,P033,FENCOG,2,Pre,2022_Apr_05_1139,N-Back (New Version 2021),2021.1.4,120.04239893480636,
,,,,Conditions/Version_1/threeback(4)_v1.xlsx,New rule: Press 'space' when you see 3-back (i.e. the same letter as the one that appeared 3 letters ago.),a,space,,,,,,,,,0,15,15,15,0,6,6,6,,,,,,,,,,,,,,,,,,,,,,,,,,,,,,,,,,,,,,,,,,,,,,,,,,,,,,,,,,,,,,,,,,,,,1.4068,982.2486198999686,None,None,0,982.2486198999686,None,,P033,FENCOG,2,Pre,2022_Apr_05_1139,N-Back (New Version 2021),2021.1.4,120.04239893480636,
,,,,Conditions/Version_1/threeback(4)_v1.xlsx,New rule: Press 'space' when you see 3-back (i.e. the same letter as the one that appeared 3 letters ago.),p,space,,,,,,,,,0,15,15,15,0,7,7,7,,,,,,,,,,,,,,,,,,,,,,,,,,,,,,,,,,,,,,,,,,,,,,,,,,,,,,,,,,,,,,,,,,,,,1.9896,986.2390209999867,None,space,1,986.2390209999867,None,0.6420789999538101,P033,FENCOG,2,Pre,2022_Apr_05_1139,N-Back (New Version 2021),2021.1.4,120.04239893480636,
,,,,Conditions/Version_1/threeback(4)_v1.xlsx,New rule: Press 'space' when you see 3-back (i.e. the same letter as the one that appeared 3 letters ago.),x,None,,,,,,,,,0,15,15,15,0,8,8,8,,,,,,,,,,,,,,,,,,,,,,,,,,,,,,,,,,,,,,,,,,,,,,,,,,,,,,,,,,,,,,,,,,,,,1.5928,989.8380154999904,None,None,1,989.8380154999904,None,,P033,FENCOG,2,Pre,2022_Apr_05_1139,N-Back (New Version 2021),2021.1.4,120.04239893480636,
,,,,Conditions/Version_1/threeback(4)_v1.xlsx,New rule: Press 'space' when you see 3-back (i.e. the same letter as the one that appeared 3 letters ago.),X,None,,,,,,,,,0,15,15,15,0,9,9,9,,,,,,,,,,,,,,,,,,,,,,,,,,,,,,,,,,,,,,,,,,,,,,,,,,,,,,,,,,,,,,,,,,,,,1.568,993.4118986999965,None,space,0,993.4118986999965,None,1.501184299995657,P033,FENCOG,2,Pre,2022_Apr_05_1139,N-Back (New Version 2021),2021.1.4,120.04239893480636,
,,,,Conditions/Version_1/threeback(4)_v1.xlsx,New rule: Press 'space' when you see 3-back (i.e. the same letter as the one that appeared 3 letters ago.),,,,,,,,,,,0,15,15,15,,,,,,,,,,,,,,,,,,,,,,,,,,,,,,,,,,,,,,,,,,,,,,,,,,,,,,,,,,,,,,,,,,,,,,,,,,,,,,,,,P033,FENCOG,2,Pre,2022_Apr_05_1139,N-Back (New Version 2021),2021.1.4,120.04239893480636,
