CondFileP,InstructionsP,LettersDisplayedP,CorrectnessP,CondFile,Instructions,LettersDisplayed,Correctness,practicetrials.thisRepN,practicetrials.thisTrialN,practicetrials.thisN,practicetrials.thisIndex,InnerLoopPractice.thisRepN,InnerLoopPractice.thisTrialN,InnerLoopPractice.thisN,InnerLoopPractice.thisIndex,trials.thisRepN,trials.thisTrialN,trials.thisN,trials.thisIndex,InnerLoop.thisRepN,InnerLoop.thisTrialN,InnerLoop.thisN,InnerLoop.thisIndex,TaskVersionText.started,TaskVersionText.stopped,InstrKey1.keys,InstrKey1.rt,InstrKey1.started,InstrKey1.stopped,text.started,text.stopped,key_resp_4.keys,key_resp_4.rt,key_resp_4.started,key_resp_4.stopped,text_2.started,text_2.stopped,key_resp_3.keys,key_resp_3.rt,key_resp_3.started,key_resp_3.stopped,text_3.started,text_3.stopped,key_resp_2.keys,key_resp_2.rt,key_resp_2.started,key_resp_2.stopped,PractIn1.started,PractIn1.stopped,PractIn2.started,PractIn2.stopped,PractInstructionPass.keys,PractInstructionPass.rt,PractInstructionPass.started,PractInstructionPass.stopped,PractBlock1.started,PractBlock1.stopped,ISIjitterPractice,ISI_Pract_Fixation.started,ISI_Pract_Fixation.stopped,N_backP.started,N_backP.stopped,KeyPractice.keys,KeyPractice.corr,KeyPractice.rt,KeyPractice.started,KeyPractice.stopped,text_4.started,text_4.stopped,TransitionText.started,TransitionText.stopped,key_resp_6.keys,key_resp_6.rt,key_resp_6.started,key_resp_6.stopped,text_5.started,text_5.stopped,key_resp_5.keys,key_resp_5.rt,key_resp_5.started,key_resp_5.stopped,MainInt1.started,MainInt1.stopped,MainInt2.started,MainInt2.stopped,InstructionPass.keys,InstructionPass.rt,InstructionPass.started,InstructionPass.stopped,Blocks1.started,Blocks1.stopped,ISIjitter,N_backD.started,N_backD.stopped,key_resp.keys,key_resp.corr,key_resp.started,key_resp.stopped,key_resp.rt,participant,Study Name,Task Version (required to run),PRE/POST,date,expName,psychopyVersion,frameRate,
,,,,,,,,,,,,,,,,,,,,,,,,238.09130110003753,None,space,54.553352800023276,238.5816287000198,None,,,,,,,,,,,,,,,,,,,,,,,,,,,,,,,,,,,,,,,,,,,,,,,,,,,,,,,,,,,,,,,,,,,,,,,P034,FENCOG,2,Pre,2022_Apr_07_1121,N-Back (New Version 2021),2021.1.4,120.33086179145563,
,,,,,,,,,,,,,,,,,,,,,,,,,,,,,,293.17399000003934,None,space,10.084821299999021,293.6659897000063,None,,,,,,,,,,,,,,,,,,,,,,,,,,,,,,,,,,,,,,,,,,,,,,,,,,,,,,,,,,,,,,,,,P034,FENCOG,2,Pre,2022_Apr_07_1121,N-Back (New Version 2021),2021.1.4,120.33086179145563,
,,,,,,,,,,,,,,,,,,,,,,,,,,,,,,,,,,,,303.78665050002746,None,space,18.11110410001129,304.2798156000208,None,,,,,,,,,,,,,,,,,,,,,,,,,,,,,,,,,,,,,,,,,,,,,,,,,,,,,,,,,,,P034,FENCOG,2,Pre,2022_Apr_07_1121,N-Back (New Version 2021),2021.1.4,120.33086179145563,
,,,,,,,,,,,,,,,,,,,,,,,,,,,,,,,,,,,,,,,,,,322.4187568000052,None,space,10.923325299983844,322.90754580002977,None,,,,,,,,,,,,,,,,,,,,,,,,,,,,,,,,,,,,,,,,,,,,,,,,,,,,,P034,FENCOG,2,Pre,2022_Apr_07_1121,N-Back (New Version 2021),2021.1.4,120.33086179145563,
Conditions/Version_2Pr/zeroback(1)_v2.xlsx,Rule: Press 'space' when you see the letter 'x' or 'X'.,x,space,,,,,0,0,0,0,0,0,0,0,,,,,,,,,,,,,,,,,,,,,,,,,,,,,,,,,335.3709913000348,None,338.34499380004127,None,space,0.8137814999790862,338.34499380004127,None,335.3709913000348,None,1.615,339.202133600018,None,340.8210724000237,None,space,1,0.4418669000151567,340.8210724000237,None,341.27983509999467,None,,,,,,,,,,,,,,,,,,,,,,,,,,,,,,,P034,FENCOG,2,Pre,2022_Apr_07_1121,N-Back (New Version 2021),2021.1.4,120.33086179145563,
Conditions/Version_2Pr/zeroback(1)_v2.xlsx,Rule: Press 'space' when you see the letter 'x' or 'X'.,R,None,,,,,0,0,0,0,0,1,1,1,,,,,,,,,,,,,,,,,,,,,,,,,,,,,,,,,,,,,,,,,,,1.715,342.78416229999857,None,344.5027625000221,None,None,1,,344.5027625000221,None,346.5080171999871,None,,,,,,,,,,,,,,,,,,,,,,,,,,,,,,,P034,FENCOG,2,Pre,2022_Apr_07_1121,N-Back (New Version 2021),2021.1.4,120.33086179145563,
Conditions/Version_2Pr/zeroback(1)_v2.xlsx,Rule: Press 'space' when you see the letter 'x' or 'X'.,p,None,,,,,0,0,0,0,0,2,2,2,,,,,,,,,,,,,,,,,,,,,,,,,,,,,,,,,,,,,,,,,,,1.74,348.0076524000033,None,349.74897330004023,None,None,1,,349.74897330004023,None,351.7537362999865,None,,,,,,,,,,,,,,,,,,,,,,,,,,,,,,,P034,FENCOG,2,Pre,2022_Apr_07_1121,N-Back (New Version 2021),2021.1.4,120.33086179145563,
Conditions/Version_2Pr/zeroback(1)_v2.xlsx,Rule: Press 'space' when you see the letter 'x' or 'X'.,O,None,,,,,0,0,0,0,0,3,3,3,,,,,,,,,,,,,,,,,,,,,,,,,,,,,,,,,,,,,,,,,,,1.415,353.25595010002144,None,354.67445570003474,None,None,1,,354.67445570003474,None,356.6801576000289,None,,,,,,,,,,,,,,,,,,,,,,,,,,,,,,,P034,FENCOG,2,Pre,2022_Apr_07_1121,N-Back (New Version 2021),2021.1.4,120.33086179145563,
Conditions/Version_2Pr/zeroback(1)_v2.xlsx,Rule: Press 'space' when you see the letter 'x' or 'X'.,i,None,,,,,0,0,0,0,0,4,4,4,,,,,,,,,,,,,,,,,,,,,,,,,,,,,,,,,,,,,,,,,,,1.99,358.1794026000425,None,360.1751007999992,None,None,1,,360.1751007999992,None,362.1753189000301,None,,,,,,,,,,,,,,,,,,,,,,,,,,,,,,,P034,FENCOG,2,Pre,2022_Apr_07_1121,N-Back (New Version 2021),2021.1.4,120.33086179145563,
Conditions/Version_2Pr/zeroback(1)_v2.xlsx,Rule: Press 'space' when you see the letter 'x' or 'X'.,U,None,,,,,0,0,0,0,0,5,5,5,,,,,,,,,,,,,,,,,,,,,,,,,,,,,,,,,,,,,,,,,,,1.54,363.6779135999968,None,365.2205114000244,None,None,1,,365.2205114000244,None,367.22479320003185,None,,,,,,,,,,,,,,,,,,,,,,,,,,,,,,,P034,FENCOG,2,Pre,2022_Apr_07_1121,N-Back (New Version 2021),2021.1.4,120.33086179145563,
Conditions/Version_2Pr/zeroback(1)_v2.xlsx,Rule: Press 'space' when you see the letter 'x' or 'X'.,N,None,,,,,0,0,0,0,0,6,6,6,,,,,,,,,,,,,,,,,,,,,,,,,,,,,,,,,,,,,,,,,,,1.115,368.7266199000296,None,369.8451694000396,None,None,1,,369.8451694000396,None,371.84319700003834,None,,,,,,,,,,,,,,,,,,,,,,,,,,,,,,,P034,FENCOG,2,Pre,2022_Apr_07_1121,N-Back (New Version 2021),2021.1.4,120.33086179145563,
Conditions/Version_2Pr/zeroback(1)_v2.xlsx,Rule: Press 'space' when you see the letter 'x' or 'X'.,m,None,,,,,0,0,0,0,0,7,7,7,,,,,,,,,,,,,,,,,,,,,,,,,,,,,,,,,,,,,,,,,,,1.665,373.3500872000004,None,375.01746030000504,None,None,1,,375.01746030000504,None,377.0239211000153,None,,,,,,,,,,,,,,,,,,,,,,,,,,,,,,,P034,FENCOG,2,Pre,2022_Apr_07_1121,N-Back (New Version 2021),2021.1.4,120.33086179145563,
Conditions/Version_2Pr/zeroback(1)_v2.xlsx,Rule: Press 'space' when you see the letter 'x' or 'X'.,x,space,,,,,0,0,0,0,0,8,8,8,,,,,,,,,,,,,,,,,,,,,,,,,,,,,,,,,,,,,,,,,,,1.465,378.5232202000334,None,379.9903970999876,None,space,1,0.5286682000150904,379.9903970999876,None,380.5319071999984,None,,,,,,,,,,,,,,,,,,,,,,,,,,,,,,,P034,FENCOG,2,Pre,2022_Apr_07_1121,N-Back (New Version 2021),2021.1.4,120.33086179145563,
Conditions/Version_2Pr/zeroback(1)_v2.xlsx,Rule: Press 'space' when you see the letter 'x' or 'X'.,X,space,,,,,0,0,0,0,0,9,9,9,,,,,,,,,,,,,,,,,,,,,,,,,,,,,,,,,,,,,,,,,,,1.64,382.03929939999944,None,383.6820077000302,None,space,1,0.5329582000267692,383.6820077000302,None,384.22457720001694,None,,,,,,,,,,,,,,,,,,,,,,,,,,,,,,,P034,FENCOG,2,Pre,2022_Apr_07_1121,N-Back (New Version 2021),2021.1.4,120.33086179145563,
Conditions/Version_2Pr/zeroback(1)_v2.xlsx,Rule: Press 'space' when you see the letter 'x' or 'X'.,,,,,,,0,0,0,0,,,,,,,,,,,,,,,,,,,,,,,,,,,,,,,,,,,,,,,,,,,,,,,,,,,,,,,,,,,,,,,,,,,,,,,,,,,,,,,,,,,,,,,,,P034,FENCOG,2,Pre,2022_Apr_07_1121,N-Back (New Version 2021),2021.1.4,120.33086179145563,
Conditions/Version_2Pr/oneback(1)_v2.xlsx,New rule: Press 'space' when you see 1-back (i.e. the same letter as the one that appeared 1 letter ago.),r,None,,,,,0,1,1,1,0,0,0,0,,,,,,,,,,,,,,,,,,,,,,,,,,,,,,,,,385.75457719998667,None,388.73158170003444,None,space,5.515129100007471,388.73158170003444,None,385.75457719998667,None,1.79,394.27831930003595,None,396.0700621000142,None,None,1,,396.0700621000142,None,398.0743515000213,None,,,,,,,,,,,,,,,,,,,,,,,,,,,,,,,P034,FENCOG,2,Pre,2022_Apr_07_1121,N-Back (New Version 2021),2021.1.4,120.33086179145563,
Conditions/Version_2Pr/oneback(1)_v2.xlsx,New rule: Press 'space' when you see 1-back (i.e. the same letter as the one that appeared 1 letter ago.),t,None,,,,,0,1,1,1,0,1,1,1,,,,,,,,,,,,,,,,,,,,,,,,,,,,,,,,,,,,,,,,,,,2.015,399.575773700024,None,401.59308060002513,None,None,1,,401.59308060002513,None,403.5996264999849,None,,,,,,,,,,,,,,,,,,,,,,,,,,,,,,,P034,FENCOG,2,Pre,2022_Apr_07_1121,N-Back (New Version 2021),2021.1.4,120.33086179145563,
Conditions/Version_2Pr/oneback(1)_v2.xlsx,New rule: Press 'space' when you see 1-back (i.e. the same letter as the one that appeared 1 letter ago.),Y,None,,,,,0,1,1,1,0,2,2,2,,,,,,,,,,,,,,,,,,,,,,,,,,,,,,,,,,,,,,,,,,,1.465,405.0991111000185,None,406.5679511000053,None,None,1,,406.5679511000053,None,408.5730281000142,None,,,,,,,,,,,,,,,,,,,,,,,,,,,,,,,P034,FENCOG,2,Pre,2022_Apr_07_1121,N-Back (New Version 2021),2021.1.4,120.33086179145563,
Conditions/Version_2Pr/oneback(1)_v2.xlsx,New rule: Press 'space' when you see 1-back (i.e. the same letter as the one that appeared 1 letter ago.),y,space,,,,,0,1,1,1,0,3,3,3,,,,,,,,,,,,,,,,,,,,,,,,,,,,,,,,,,,,,,,,,,,1.94,410.07265620003454,None,412.01470609998796,None,None,0,,412.01470609998796,None,414.02603960002307,None,,,,,,,,,,,,,,,,,,,,,,,,,,,,,,,P034,FENCOG,2,Pre,2022_Apr_07_1121,N-Back (New Version 2021),2021.1.4,120.33086179145563,
Conditions/Version_2Pr/oneback(1)_v2.xlsx,New rule: Press 'space' when you see 1-back (i.e. the same letter as the one that appeared 1 letter ago.),p,None,,,,,0,1,1,1,0,4,4,4,,,,,,,,,,,,,,,,,,,,,,,,,,,,,,,,,,,,,,,,,,,1.69,415.5208086000057,None,417.213082900038,None,None,1,,417.213082900038,None,419.21382040000753,None,,,,,,,,,,,,,,,,,,,,,,,,,,,,,,,P034,FENCOG,2,Pre,2022_Apr_07_1121,N-Back (New Version 2021),2021.1.4,120.33086179145563,
Conditions/Version_2Pr/oneback(1)_v2.xlsx,New rule: Press 'space' when you see 1-back (i.e. the same letter as the one that appeared 1 letter ago.),P,space,,,,,0,1,1,1,0,5,5,5,,,,,,,,,,,,,,,,,,,,,,,,,,,,,,,,,,,,,,,,,,,1.065,420.7195308000082,None,421.7867661000346,None,space,1,1.1882076000329107,421.7867661000346,None,422.98586570000043,None,,,,,,,,,,,,,,,,,,,,,,,,,,,,,,,P034,FENCOG,2,Pre,2022_Apr_07_1121,N-Back (New Version 2021),2021.1.4,120.33086179145563,
Conditions/Version_2Pr/oneback(1)_v2.xlsx,New rule: Press 'space' when you see 1-back (i.e. the same letter as the one that appeared 1 letter ago.),e,None,,,,,0,1,1,1,0,6,6,6,,,,,,,,,,,,,,,,,,,,,,,,,,,,,,,,,,,,,,,,,,,1.99,424.4850710000028,None,426.4774601000245,None,None,1,,426.4774601000245,None,428.4837867000024,None,,,,,,,,,,,,,,,,,,,,,,,,,,,,,,,P034,FENCOG,2,Pre,2022_Apr_07_1121,N-Back (New Version 2021),2021.1.4,120.33086179145563,
Conditions/Version_2Pr/oneback(1)_v2.xlsx,New rule: Press 'space' when you see 1-back (i.e. the same letter as the one that appeared 1 letter ago.),r,None,,,,,0,1,1,1,0,7,7,7,,,,,,,,,,,,,,,,,,,,,,,,,,,,,,,,,,,,,,,,,,,1.59,429.9835266000009,None,431.5756943000015,None,None,1,,431.5756943000015,None,433.582263600023,None,,,,,,,,,,,,,,,,,,,,,,,,,,,,,,,P034,FENCOG,2,Pre,2022_Apr_07_1121,N-Back (New Version 2021),2021.1.4,120.33086179145563,
Conditions/Version_2Pr/oneback(1)_v2.xlsx,New rule: Press 'space' when you see 1-back (i.e. the same letter as the one that appeared 1 letter ago.),R,space,,,,,0,1,1,1,0,8,8,8,,,,,,,,,,,,,,,,,,,,,,,,,,,,,,,,,,,,,,,,,,,1.115,435.0819819000317,None,436.1983106000116,None,None,0,,436.1983106000116,None,438.19995420001214,None,,,,,,,,,,,,,,,,,,,,,,,,,,,,,,,P034,FENCOG,2,Pre,2022_Apr_07_1121,N-Back (New Version 2021),2021.1.4,120.33086179145563,
Conditions/Version_2Pr/oneback(1)_v2.xlsx,New rule: Press 'space' when you see 1-back (i.e. the same letter as the one that appeared 1 letter ago.),p,None,,,,,0,1,1,1,0,9,9,9,,,,,,,,,,,,,,,,,,,,,,,,,,,,,,,,,,,,,,,,,,,1.515,439.70557970000664,None,441.2217093000072,None,None,1,,441.2217093000072,None,443.232307200029,None,,,,,,,,,,,,,,,,,,,,,,,,,,,,,,,P034,FENCOG,2,Pre,2022_Apr_07_1121,N-Back (New Version 2021),2021.1.4,120.33086179145563,
Conditions/Version_2Pr/oneback(1)_v2.xlsx,New rule: Press 'space' when you see 1-back (i.e. the same letter as the one that appeared 1 letter ago.),,,,,,,0,1,1,1,,,,,,,,,,,,,,,,,,,,,,,,,,,,,,,,,,,,,,,,,,,,,,,,,,,,,,,,,,,,,,,,,,,,,,,,,,,,,,,,,,,,,,,,,P034,FENCOG,2,Pre,2022_Apr_07_1121,N-Back (New Version 2021),2021.1.4,120.33086179145563,
Conditions/Version_2Pr/twoback(1)_v2.xlsx,New rule: Press 'space' when you see 2-back (i.e. the same letter as the one that appeared 2 letters ago.),r,None,,,,,0,2,2,2,0,0,0,0,,,,,,,,,,,,,,,,,,,,,,,,,,,,,,,,,444.75356360001024,None,447.73850750003476,None,space,0.5884103000280447,447.73850750003476,None,444.75356360001024,None,1.465,448.35447429999476,None,449.8192038999987,None,None,1,,449.8192038999987,None,451.8184154999908,None,,,,,,,,,,,,,,,,,,,,,,,,,,,,,,,P034,FENCOG,2,Pre,2022_Apr_07_1121,N-Back (New Version 2021),2021.1.4,120.33086179145563,
Conditions/Version_2Pr/twoback(1)_v2.xlsx,New rule: Press 'space' when you see 2-back (i.e. the same letter as the one that appeared 2 letters ago.),P,None,,,,,0,2,2,2,0,1,1,1,,,,,,,,,,,,,,,,,,,,,,,,,,,,,,,,,,,,,,,,,,,1.79,453.3180518000154,None,455.1106206999975,None,None,1,,455.1106206999975,None,457.11703580000903,None,,,,,,,,,,,,,,,,,,,,,,,,,,,,,,,P034,FENCOG,2,Pre,2022_Apr_07_1121,N-Back (New Version 2021),2021.1.4,120.33086179145563,
Conditions/Version_2Pr/twoback(1)_v2.xlsx,New rule: Press 'space' when you see 2-back (i.e. the same letter as the one that appeared 2 letters ago.),o,None,,,,,0,2,2,2,0,2,2,2,,,,,,,,,,,,,,,,,,,,,,,,,,,,,,,,,,,,,,,,,,,1.915,458.6167271999875,None,460.5384432999999,None,None,1,,460.5384432999999,None,462.54033839999465,None,,,,,,,,,,,,,,,,,,,,,,,,,,,,,,,P034,FENCOG,2,Pre,2022_Apr_07_1121,N-Back (New Version 2021),2021.1.4,120.33086179145563,
Conditions/Version_2Pr/twoback(1)_v2.xlsx,New rule: Press 'space' when you see 2-back (i.e. the same letter as the one that appeared 2 letters ago.),p,space,,,,,0,2,2,2,0,3,3,3,,,,,,,,,,,,,,,,,,,,,,,,,,,,,,,,,,,,,,,,,,,1.34,464.04014639998786,None,465.381152499991,None,space,1,1.6096212000120431,465.381152499991,None,467.00645970000187,None,,,,,,,,,,,,,,,,,,,,,,,,,,,,,,,P034,FENCOG,2,Pre,2022_Apr_07_1121,N-Back (New Version 2021),2021.1.4,120.33086179145563,
Conditions/Version_2Pr/twoback(1)_v2.xlsx,New rule: Press 'space' when you see 2-back (i.e. the same letter as the one that appeared 2 letters ago.),Y,None,,,,,0,2,2,2,0,4,4,4,,,,,,,,,,,,,,,,,,,,,,,,,,,,,,,,,,,,,,,,,,,1.265,468.5137493000366,None,469.78283839998767,None,None,1,,469.78283839998767,None,471.78785309998784,None,,,,,,,,,,,,,,,,,,,,,,,,,,,,,,,P034,FENCOG,2,Pre,2022_Apr_07_1121,N-Back (New Version 2021),2021.1.4,120.33086179145563,
Conditions/Version_2Pr/twoback(1)_v2.xlsx,New rule: Press 'space' when you see 2-back (i.e. the same letter as the one that appeared 2 letters ago.),q,None,,,,,0,2,2,2,0,5,5,5,,,,,,,,,,,,,,,,,,,,,,,,,,,,,,,,,,,,,,,,,,,1.39,473.28719210001873,None,474.68004990002373,None,None,1,,474.68004990002373,None,476.68630270002177,None,,,,,,,,,,,,,,,,,,,,,,,,,,,,,,,P034,FENCOG,2,Pre,2022_Apr_07_1121,N-Back (New Version 2021),2021.1.4,120.33086179145563,
Conditions/Version_2Pr/twoback(1)_v2.xlsx,New rule: Press 'space' when you see 2-back (i.e. the same letter as the one that appeared 2 letters ago.),m,None,,,,,0,2,2,2,0,6,6,6,,,,,,,,,,,,,,,,,,,,,,,,,,,,,,,,,,,,,,,,,,,1.59,478.18563630001154,None,479.77755649999017,None,None,1,,479.77755649999017,None,481.7765625999891,None,,,,,,,,,,,,,,,,,,,,,,,,,,,,,,,P034,FENCOG,2,Pre,2022_Apr_07_1121,N-Back (New Version 2021),2021.1.4,120.33086179145563,
Conditions/Version_2Pr/twoback(1)_v2.xlsx,New rule: Press 'space' when you see 2-back (i.e. the same letter as the one that appeared 2 letters ago.),Q,space,,,,,0,2,2,2,0,7,7,7,,,,,,,,,,,,,,,,,,,,,,,,,,,,,,,,,,,,,,,,,,,1.165,483.2760949000367,None,484.4433198000188,None,space,1,0.8754422000492923,484.4433198000188,None,485.3353507000138,None,,,,,,,,,,,,,,,,,,,,,,,,,,,,,,,P034,FENCOG,2,Pre,2022_Apr_07_1121,N-Back (New Version 2021),2021.1.4,120.33086179145563,
Conditions/Version_2Pr/twoback(1)_v2.xlsx,New rule: Press 'space' when you see 2-back (i.e. the same letter as the one that appeared 2 letters ago.),L,None,,,,,0,2,2,2,0,8,8,8,,,,,,,,,,,,,,,,,,,,,,,,,,,,,,,,,,,,,,,,,,,1.715,486.84227670001565,None,488.55965459998697,None,None,1,,488.55965459998697,None,490.5656226000283,None,,,,,,,,,,,,,,,,,,,,,,,,,,,,,,,P034,FENCOG,2,Pre,2022_Apr_07_1121,N-Back (New Version 2021),2021.1.4,120.33086179145563,
Conditions/Version_2Pr/twoback(1)_v2.xlsx,New rule: Press 'space' when you see 2-back (i.e. the same letter as the one that appeared 2 letters ago.),q,space,,,,,0,2,2,2,0,9,9,9,,,,,,,,,,,,,,,,,,,,,,,,,,,,,,,,,,,,,,,,,,,1.365,492.064926400024,None,493.4313486000174,None,space,1,0.6635878999950364,493.4313486000174,None,494.1111940999981,None,,,,,,,,,,,,,,,,,,,,,,,,,,,,,,,P034,FENCOG,2,Pre,2022_Apr_07_1121,N-Back (New Version 2021),2021.1.4,120.33086179145563,
Conditions/Version_2Pr/twoback(1)_v2.xlsx,New rule: Press 'space' when you see 2-back (i.e. the same letter as the one that appeared 2 letters ago.),,,,,,,0,2,2,2,,,,,,,,,,,,,,,,,,,,,,,,,,,,,,,,,,,,,,,,,,,,,,,,,,,,,,,,,,,,,,,,,,,,,,,,,,,,,,,,,,,,,,,,,P034,FENCOG,2,Pre,2022_Apr_07_1121,N-Back (New Version 2021),2021.1.4,120.33086179145563,
Conditions/Version_2Pr/threeback(1)_v2.xlsx,New rule: Press 'space' when you see 3-back (i.e. the same letter as the one that appeared 3 letters ago.),u,None,,,,,0,3,3,3,0,0,0,0,,,,,,,,,,,,,,,,,,,,,,,,,,,,,,,,,495.65169140003854,None,498.64046259998577,None,space,0.5745169000001624,498.64046259998577,None,495.65169140003854,None,1.315,499.2485811000224,None,500.56466750003165,None,None,1,,500.56466750003165,None,502.57026220002444,None,,,,,,,,,,,,,,,,,,,,,,,,,,,,,,,P034,FENCOG,2,Pre,2022_Apr_07_1121,N-Back (New Version 2021),2021.1.4,120.33086179145563,
Conditions/Version_2Pr/threeback(1)_v2.xlsx,New rule: Press 'space' when you see 3-back (i.e. the same letter as the one that appeared 3 letters ago.),U,None,,,,,0,3,3,3,0,1,1,1,,,,,,,,,,,,,,,,,,,,,,,,,,,,,,,,,,,,,,,,,,,1.465,504.0699878000305,None,505.5368934000144,None,None,1,,505.5368934000144,None,507.54377480002586,None,,,,,,,,,,,,,,,,,,,,,,,,,,,,,,,P034,FENCOG,2,Pre,2022_Apr_07_1121,N-Back (New Version 2021),2021.1.4,120.33086179145563,
Conditions/Version_2Pr/threeback(1)_v2.xlsx,New rule: Press 'space' when you see 3-back (i.e. the same letter as the one that appeared 3 letters ago.),p,None,,,,,0,3,3,3,0,2,2,2,,,,,,,,,,,,,,,,,,,,,,,,,,,,,,,,,,,,,,,,,,,1.765,509.0435367000173,None,510.81043030001456,None,None,1,,510.81043030001456,None,512.817217200005,None,,,,,,,,,,,,,,,,,,,,,,,,,,,,,,,P034,FENCOG,2,Pre,2022_Apr_07_1121,N-Back (New Version 2021),2021.1.4,120.33086179145563,
Conditions/Version_2Pr/threeback(1)_v2.xlsx,New rule: Press 'space' when you see 3-back (i.e. the same letter as the one that appeared 3 letters ago.),U,space,,,,,0,3,3,3,0,3,3,3,,,,,,,,,,,,,,,,,,,,,,,,,,,,,,,,,,,,,,,,,,,1.59,514.3167718999903,None,515.9082816999871,None,space,1,0.6027427999651991,515.9082816999871,None,516.5218392999959,None,,,,,,,,,,,,,,,,,,,,,,,,,,,,,,,P034,FENCOG,2,Pre,2022_Apr_07_1121,N-Back (New Version 2021),2021.1.4,120.33086179145563,
Conditions/Version_2Pr/threeback(1)_v2.xlsx,New rule: Press 'space' when you see 3-back (i.e. the same letter as the one that appeared 3 letters ago.),e,None,,,,,0,3,3,3,0,4,4,4,,,,,,,,,,,,,,,,,,,,,,,,,,,,,,,,,,,,,,,,,,,1.615,518.0241964000161,None,519.6404038000037,None,None,1,,519.6404038000037,None,521.6398077000049,None,,,,,,,,,,,,,,,,,,,,,,,,,,,,,,,P034,FENCOG,2,Pre,2022_Apr_07_1121,N-Back (New Version 2021),2021.1.4,120.33086179145563,
Conditions/Version_2Pr/threeback(1)_v2.xlsx,New rule: Press 'space' when you see 3-back (i.e. the same letter as the one that appeared 3 letters ago.),R,None,,,,,0,3,3,3,0,5,5,5,,,,,,,,,,,,,,,,,,,,,,,,,,,,,,,,,,,,,,,,,,,1.515,523.1392931999872,None,524.6563447000226,None,None,1,,524.6563447000226,None,526.6632590999943,None,,,,,,,,,,,,,,,,,,,,,,,,,,,,,,,P034,FENCOG,2,Pre,2022_Apr_07_1121,N-Back (New Version 2021),2021.1.4,120.33086179145563,
Conditions/Version_2Pr/threeback(1)_v2.xlsx,New rule: Press 'space' when you see 3-back (i.e. the same letter as the one that appeared 3 letters ago.),p,None,,,,,0,3,3,3,0,6,6,6,,,,,,,,,,,,,,,,,,,,,,,,,,,,,,,,,,,,,,,,,,,1.815,528.1629455999937,None,529.9796042999951,None,space,0,0.5794489999534562,529.9796042999951,None,530.5764944000402,None,,,,,,,,,,,,,,,,,,,,,,,,,,,,,,,P034,FENCOG,2,Pre,2022_Apr_07_1121,N-Back (New Version 2021),2021.1.4,120.33086179145563,
Conditions/Version_2Pr/threeback(1)_v2.xlsx,New rule: Press 'space' when you see 3-back (i.e. the same letter as the one that appeared 3 letters ago.),E,space,,,,,0,3,3,3,0,7,7,7,,,,,,,,,,,,,,,,,,,,,,,,,,,,,,,,,,,,,,,,,,,1.99,532.0783911999897,None,534.0719134000246,None,None,0,,534.0719134000246,None,536.0948334999848,None,,,,,,,,,,,,,,,,,,,,,,,,,,,,,,,P034,FENCOG,2,Pre,2022_Apr_07_1121,N-Back (New Version 2021),2021.1.4,120.33086179145563,
Conditions/Version_2Pr/threeback(1)_v2.xlsx,New rule: Press 'space' when you see 3-back (i.e. the same letter as the one that appeared 3 letters ago.),k,None,,,,,0,3,3,3,0,8,8,8,,,,,,,,,,,,,,,,,,,,,,,,,,,,,,,,,,,,,,,,,,,1.165,537.5766099999892,None,538.7446386000374,None,None,1,,538.7446386000374,None,540.7506604000228,None,,,,,,,,,,,,,,,,,,,,,,,,,,,,,,,P034,FENCOG,2,Pre,2022_Apr_07_1121,N-Back (New Version 2021),2021.1.4,120.33086179145563,
Conditions/Version_2Pr/threeback(1)_v2.xlsx,New rule: Press 'space' when you see 3-back (i.e. the same letter as the one that appeared 3 letters ago.),m,None,,,,,0,3,3,3,0,9,9,9,,,,,,,,,,,,,,,,,,,,,,,,,,,,,,,,,,,,,,,,,,,1.415,542.2503345999867,None,543.6663364000269,None,None,1,,543.6663364000269,None,545.6659287000075,None,,,,,,,,,,,,,,,,,,,,,,,,,,,,,,,P034,FENCOG,2,Pre,2022_Apr_07_1121,N-Back (New Version 2021),2021.1.4,120.33086179145563,
Conditions/Version_2Pr/threeback(1)_v2.xlsx,New rule: Press 'space' when you see 3-back (i.e. the same letter as the one that appeared 3 letters ago.),,,,,,,0,3,3,3,,,,,,,,,,,,,,,,,,,,,,,,,,,,,,,,,,,,,,,,,,,,,,,,,,,,,,,,,,,,,,,,,,,,,,,,,,,,,,,,,,,,,,,,,P034,FENCOG,2,Pre,2022_Apr_07_1121,N-Back (New Version 2021),2021.1.4,120.33086179145563,
,,,,,,,,,,,,,,,,,,,,,,,,,,,,,,,,,,,,,,,,,,,,,,,,,,,,,,,,,,,,,,,,,,,,,,547.1799377000425,None,space,5.836963800014928,547.6739721000195,None,,,,,,,,,,,,,,,,,,,,,,,,,P034,FENCOG,2,Pre,2022_Apr_07_1121,N-Back (New Version 2021),2021.1.4,120.33086179145563,
,,,,,,,,,,,,,,,,,,,,,,,,,,,,,,,,,,,,,,,,,,,,,,,,,,,,,,,,,,,,,,,,,,,,,,,,,,,,553.5354177000117,None,space,6.592047100013588,554.0307642000262,None,,,,,,,,,,,,,,,,,,,P034,FENCOG,2,Pre,2022_Apr_07_1121,N-Back (New Version 2021),2021.1.4,120.33086179145563,
,,,,Conditions/Version_1/zeroback(1)_v1.xlsx,Rule: Press 'space' when you see the letter 'x' or 'X'.,b,None,,,,,,,,,0,0,0,0,0,0,0,0,,,,,,,,,,,,,,,,,,,,,,,,,,,,,,,,,,,,,,,,,,,,,,,,,,,,,,,,,,,560.7449141000398,None,563.7293660999858,None,space,0.48543589998735115,563.7293660999858,None,560.7449141000398,None,1.6052,565.8606561000342,None,None,1,565.8606561000342,None,,P034,FENCOG,2,Pre,2022_Apr_07_1121,N-Back (New Version 2021),2021.1.4,120.33086179145563,
,,,,Conditions/Version_1/zeroback(1)_v1.xlsx,Rule: Press 'space' when you see the letter 'x' or 'X'.,T,None,,,,,,,,,0,0,0,0,0,1,1,1,,,,,,,,,,,,,,,,,,,,,,,,,,,,,,,,,,,,,,,,,,,,,,,,,,,,,,,,,,,,,,,,,,,,,1.5494,569.4182518000016,None,None,1,569.4182518000016,None,,P034,FENCOG,2,Pre,2022_Apr_07_1121,N-Back (New Version 2021),2021.1.4,120.33086179145563,
,,,,Conditions/Version_1/zeroback(1)_v1.xlsx,Rule: Press 'space' when you see the letter 'x' or 'X'.,L,None,,,,,,,,,0,0,0,0,0,2,2,2,,,,,,,,,,,,,,,,,,,,,,,,,,,,,,,,,,,,,,,,,,,,,,,,,,,,,,,,,,,,,,,,,,,,,1.4502,572.8772558000055,None,None,1,572.8772558000055,None,,P034,FENCOG,2,Pre,2022_Apr_07_1121,N-Back (New Version 2021),2021.1.4,120.33086179145563,
,,,,Conditions/Version_1/zeroback(1)_v1.xlsx,Rule: Press 'space' when you see the letter 'x' or 'X'.,x,space,,,,,,,,,0,0,0,0,0,3,3,3,,,,,,,,,,,,,,,,,,,,,,,,,,,,,,,,,,,,,,,,,,,,,,,,,,,,,,,,,,,,,,,,,,,,,1.9276,576.8162792000221,None,space,1,576.8162792000221,None,1.5186906000017188,P034,FENCOG,2,Pre,2022_Apr_07_1121,N-Back (New Version 2021),2021.1.4,120.33086179145563,
,,,,Conditions/Version_1/zeroback(1)_v1.xlsx,Rule: Press 'space' when you see the letter 'x' or 'X'.,o,None,,,,,,,,,0,0,0,0,0,4,4,4,,,,,,,,,,,,,,,,,,,,,,,,,,,,,,,,,,,,,,,,,,,,,,,,,,,,,,,,,,,,,,,,,,,,,1.165,579.9893378000124,None,None,1,579.9893378000124,None,,P034,FENCOG,2,Pre,2022_Apr_07_1121,N-Back (New Version 2021),2021.1.4,120.33086179145563,
,,,,Conditions/Version_1/zeroback(1)_v1.xlsx,Rule: Press 'space' when you see the letter 'x' or 'X'.,P,None,,,,,,,,,0,0,0,0,0,5,5,5,,,,,,,,,,,,,,,,,,,,,,,,,,,,,,,,,,,,,,,,,,,,,,,,,,,,,,,,,,,,,,,,,,,,,1.2518,583.2466157000163,None,None,1,583.2466157000163,None,,P034,FENCOG,2,Pre,2022_Apr_07_1121,N-Back (New Version 2021),2021.1.4,120.33086179145563,
,,,,Conditions/Version_1/zeroback(1)_v1.xlsx,Rule: Press 'space' when you see the letter 'x' or 'X'.,X,space,,,,,,,,,0,0,0,0,0,6,6,6,,,,,,,,,,,,,,,,,,,,,,,,,,,,,,,,,,,,,,,,,,,,,,,,,,,,,,,,,,,,,,,,,,,,,1.7788,587.0286783000338,None,space,1,587.0286783000338,None,0.34608099999604747,P034,FENCOG,2,Pre,2022_Apr_07_1121,N-Back (New Version 2021),2021.1.4,120.33086179145563,
,,,,Conditions/Version_1/zeroback(1)_v1.xlsx,Rule: Press 'space' when you see the letter 'x' or 'X'.,n,None,,,,,,,,,0,0,0,0,0,7,7,7,,,,,,,,,,,,,,,,,,,,,,,,,,,,,,,,,,,,,,,,,,,,,,,,,,,,,,,,,,,,,,,,,,,,,1.1898,590.2224633999867,None,None,1,590.2224633999867,None,,P034,FENCOG,2,Pre,2022_Apr_07_1121,N-Back (New Version 2021),2021.1.4,120.33086179145563,
,,,,Conditions/Version_1/zeroback(1)_v1.xlsx,Rule: Press 'space' when you see the letter 'x' or 'X'.,M,None,,,,,,,,,0,0,0,0,0,8,8,8,,,,,,,,,,,,,,,,,,,,,,,,,,,,,,,,,,,,,,,,,,,,,,,,,,,,,,,,,,,,,,,,,,,,,1.7168,593.9441397000337,None,None,1,593.9441397000337,None,,P034,FENCOG,2,Pre,2022_Apr_07_1121,N-Back (New Version 2021),2021.1.4,120.33086179145563,
,,,,Conditions/Version_1/zeroback(1)_v1.xlsx,Rule: Press 'space' when you see the letter 'x' or 'X'.,a,None,,,,,,,,,0,0,0,0,0,9,9,9,,,,,,,,,,,,,,,,,,,,,,,,,,,,,,,,,,,,,,,,,,,,,,,,,,,,,,,,,,,,,,,,,,,,,1.3386,597.2950140000321,None,None,1,597.2950140000321,None,,P034,FENCOG,2,Pre,2022_Apr_07_1121,N-Back (New Version 2021),2021.1.4,120.33086179145563,
,,,,Conditions/Version_1/zeroback(1)_v1.xlsx,Rule: Press 'space' when you see the letter 'x' or 'X'.,,,,,,,,,,,0,0,0,0,,,,,,,,,,,,,,,,,,,,,,,,,,,,,,,,,,,,,,,,,,,,,,,,,,,,,,,,,,,,,,,,,,,,,,,,,,,,,,,,,P034,FENCOG,2,Pre,2022_Apr_07_1121,N-Back (New Version 2021),2021.1.4,120.33086179145563,
,,,,Conditions/Version_1/oneback(1)_v1.xlsx,New rule: Press 'space' when you see 1-back (i.e. the same letter as the one that appeared 1 letter ago.),b,None,,,,,,,,,0,1,1,1,0,0,0,0,,,,,,,,,,,,,,,,,,,,,,,,,,,,,,,,,,,,,,,,,,,,,,,,,,,,,,,,,,,599.3232253000024,None,602.3203814000008,None,space,10.16641929995967,602.3203814000008,None,599.3232253000024,None,1.909,614.4375209000427,None,None,1,614.4375209000427,None,,P034,FENCOG,2,Pre,2022_Apr_07_1121,N-Back (New Version 2021),2021.1.4,120.33086179145563,
,,,,Conditions/Version_1/oneback(1)_v1.xlsx,New rule: Press 'space' when you see 1-back (i.e. the same letter as the one that appeared 1 letter ago.),p,None,,,,,,,,,0,1,1,1,0,1,1,1,,,,,,,,,,,,,,,,,,,,,,,,,,,,,,,,,,,,,,,,,,,,,,,,,,,,,,,,,,,,,,,,,,,,,1.0224,617.4697613000171,None,None,1,617.4697613000171,None,,P034,FENCOG,2,Pre,2022_Apr_07_1121,N-Back (New Version 2021),2021.1.4,120.33086179145563,
,,,,Conditions/Version_1/oneback(1)_v1.xlsx,New rule: Press 'space' when you see 1-back (i.e. the same letter as the one that appeared 1 letter ago.),M,None,,,,,,,,,0,1,1,1,0,2,2,2,,,,,,,,,,,,,,,,,,,,,,,,,,,,,,,,,,,,,,,,,,,,,,,,,,,,,,,,,,,,,,,,,,,,,1.5618,621.0353063000366,None,None,1,621.0353063000366,None,,P034,FENCOG,2,Pre,2022_Apr_07_1121,N-Back (New Version 2021),2021.1.4,120.33086179145563,
,,,,Conditions/Version_1/oneback(1)_v1.xlsx,New rule: Press 'space' when you see 1-back (i.e. the same letter as the one that appeared 1 letter ago.),M,space,,,,,,,,,0,1,1,1,0,3,3,3,,,,,,,,,,,,,,,,,,,,,,,,,,,,,,,,,,,,,,,,,,,,,,,,,,,,,,,,,,,,,,,,,,,,,1.3572,624.392845000024,None,space,1,624.392845000024,None,1.246046899992507,P034,FENCOG,2,Pre,2022_Apr_07_1121,N-Back (New Version 2021),2021.1.4,120.33086179145563,
,,,,Conditions/Version_1/oneback(1)_v1.xlsx,New rule: Press 'space' when you see 1-back (i.e. the same letter as the one that appeared 1 letter ago.),n,None,,,,,,,,,0,1,1,1,0,4,4,4,,,,,,,,,,,,,,,,,,,,,,,,,,,,,,,,,,,,,,,,,,,,,,,,,,,,,,,,,,,,,,,,,,,,,1.258,627.6502661000122,None,None,1,627.6502661000122,None,,P034,FENCOG,2,Pre,2022_Apr_07_1121,N-Back (New Version 2021),2021.1.4,120.33086179145563,
,,,,Conditions/Version_1/oneback(1)_v1.xlsx,New rule: Press 'space' when you see 1-back (i.e. the same letter as the one that appeared 1 letter ago.),g,None,,,,,,,,,0,1,1,1,0,5,5,5,,,,,,,,,,,,,,,,,,,,,,,,,,,,,,,,,,,,,,,,,,,,,,,,,,,,,,,,,,,,,,,,,,,,,1.692,631.342094600026,None,None,1,631.342094600026,None,,P034,FENCOG,2,Pre,2022_Apr_07_1121,N-Back (New Version 2021),2021.1.4,120.33086179145563,
,,,,Conditions/Version_1/oneback(1)_v1.xlsx,New rule: Press 'space' when you see 1-back (i.e. the same letter as the one that appeared 1 letter ago.),P,None,,,,,,,,,0,1,1,1,0,6,6,6,,,,,,,,,,,,,,,,,,,,,,,,,,,,,,,,,,,,,,,,,,,,,,,,,,,,,,,,,,,,,,,,,,,,,1.041,634.3910497000325,None,None,1,634.3910497000325,None,,P034,FENCOG,2,Pre,2022_Apr_07_1121,N-Back (New Version 2021),2021.1.4,120.33086179145563,
,,,,Conditions/Version_1/oneback(1)_v1.xlsx,New rule: Press 'space' when you see 1-back (i.e. the same letter as the one that appeared 1 letter ago.),o,None,,,,,,,,,0,1,1,1,0,7,7,7,,,,,,,,,,,,,,,,,,,,,,,,,,,,,,,,,,,,,,,,,,,,,,,,,,,,,,,,,,,,,,,,,,,,,1.32,637.7235725999926,None,None,1,637.7235725999926,None,,P034,FENCOG,2,Pre,2022_Apr_07_1121,N-Back (New Version 2021),2021.1.4,120.33086179145563,
,,,,Conditions/Version_1/oneback(1)_v1.xlsx,New rule: Press 'space' when you see 1-back (i.e. the same letter as the one that appeared 1 letter ago.),f,None,,,,,,,,,0,1,1,1,0,8,8,8,,,,,,,,,,,,,,,,,,,,,,,,,,,,,,,,,,,,,,,,,,,,,,,,,,,,,,,,,,,,,,,,,,,,,1.723,641.4558865000145,None,None,1,641.4558865000145,None,,P034,FENCOG,2,Pre,2022_Apr_07_1121,N-Back (New Version 2021),2021.1.4,120.33086179145563,
,,,,Conditions/Version_1/oneback(1)_v1.xlsx,New rule: Press 'space' when you see 1-back (i.e. the same letter as the one that appeared 1 letter ago.),F,space,,,,,,,,,0,1,1,1,0,9,9,9,,,,,,,,,,,,,,,,,,,,,,,,,,,,,,,,,,,,,,,,,,,,,,,,,,,,,,,,,,,,,,,,,,,,,1.4316,644.8975534000201,None,space,1,644.8975534000201,None,0.9093134000431746,P034,FENCOG,2,Pre,2022_Apr_07_1121,N-Back (New Version 2021),2021.1.4,120.33086179145563,
,,,,Conditions/Version_1/oneback(1)_v1.xlsx,New rule: Press 'space' when you see 1-back (i.e. the same letter as the one that appeared 1 letter ago.),,,,,,,,,,,0,1,1,1,,,,,,,,,,,,,,,,,,,,,,,,,,,,,,,,,,,,,,,,,,,,,,,,,,,,,,,,,,,,,,,,,,,,,,,,,,,,,,,,,P034,FENCOG,2,Pre,2022_Apr_07_1121,N-Back (New Version 2021),2021.1.4,120.33086179145563,
,,,,Conditions/Version_1/twoback(1)_v1.xlsx,New rule: Press 'space' when you see 2-back (i.e. the same letter as the one that appeared 2 letters ago.),b,None,,,,,,,,,0,2,2,2,0,0,0,0,,,,,,,,,,,,,,,,,,,,,,,,,,,,,,,,,,,,,,,,,,,,,,,,,,,,,,,,,,,646.9229291999945,None,649.904257200018,None,space,0.6146701000398025,649.904257200018,None,646.9229291999945,None,1.8966,652.451102800027,None,None,1,652.451102800027,None,,P034,FENCOG,2,Pre,2022_Apr_07_1121,N-Back (New Version 2021),2021.1.4,120.33086179145563,
,,,,Conditions/Version_1/twoback(1)_v1.xlsx,New rule: Press 'space' when you see 2-back (i.e. the same letter as the one that appeared 2 letters ago.),h,None,,,,,,,,,0,2,2,2,0,1,1,1,,,,,,,,,,,,,,,,,,,,,,,,,,,,,,,,,,,,,,,,,,,,,,,,,,,,,,,,,,,,,,,,,,,,,1.2394,655.6918741000118,None,None,1,655.6918741000118,None,,P034,FENCOG,2,Pre,2022_Apr_07_1121,N-Back (New Version 2021),2021.1.4,120.33086179145563,
,,,,Conditions/Version_1/twoback(1)_v1.xlsx,New rule: Press 'space' when you see 2-back (i.e. the same letter as the one that appeared 2 letters ago.),j,None,,,,,,,,,0,2,2,2,0,2,2,2,,,,,,,,,,,,,,,,,,,,,,,,,,,,,,,,,,,,,,,,,,,,,,,,,,,,,,,,,,,,,,,,,,,,,1.196,658.8907722000149,None,None,1,658.8907722000149,None,,P034,FENCOG,2,Pre,2022_Apr_07_1121,N-Back (New Version 2021),2021.1.4,120.33086179145563,
,,,,Conditions/Version_1/twoback(1)_v1.xlsx,New rule: Press 'space' when you see 2-back (i.e. the same letter as the one that appeared 2 letters ago.),H,space,,,,,,,,,0,2,2,2,0,3,3,3,,,,,,,,,,,,,,,,,,,,,,,,,,,,,,,,,,,,,,,,,,,,,,,,,,,,,,,,,,,,,,,,,,,,,1.7602,662.6579562000115,None,space,1,662.6579562000115,None,0.7330622999579646,P034,FENCOG,2,Pre,2022_Apr_07_1121,N-Back (New Version 2021),2021.1.4,120.33086179145563,
,,,,Conditions/Version_1/twoback(1)_v1.xlsx,New rule: Press 'space' when you see 2-back (i.e. the same letter as the one that appeared 2 letters ago.),p,None,,,,,,,,,0,2,2,2,0,4,4,4,,,,,,,,,,,,,,,,,,,,,,,,,,,,,,,,,,,,,,,,,,,,,,,,,,,,,,,,,,,,,,,,,,,,,1.5618,666.2304409000208,None,None,1,666.2304409000208,None,,P034,FENCOG,2,Pre,2022_Apr_07_1121,N-Back (New Version 2021),2021.1.4,120.33086179145563,
,,,,Conditions/Version_1/twoback(1)_v1.xlsx,New rule: Press 'space' when you see 2-back (i.e. the same letter as the one that appeared 2 letters ago.),p,None,,,,,,,,,0,2,2,2,0,5,5,5,,,,,,,,,,,,,,,,,,,,,,,,,,,,,,,,,,,,,,,,,,,,,,,,,,,,,,,,,,,,,,,,,,,,,1.9524,670.1876704000169,None,None,1,670.1876704000169,None,,P034,FENCOG,2,Pre,2022_Apr_07_1121,N-Back (New Version 2021),2021.1.4,120.33086179145563,
,,,,Conditions/Version_1/twoback(1)_v1.xlsx,New rule: Press 'space' when you see 2-back (i.e. the same letter as the one that appeared 2 letters ago.),w,None,,,,,,,,,0,2,2,2,0,6,6,6,,,,,,,,,,,,,,,,,,,,,,,,,,,,,,,,,,,,,,,,,,,,,,,,,,,,,,,,,,,,,,,,,,,,,1.816,674.0036767999991,None,None,1,674.0036767999991,None,,P034,FENCOG,2,Pre,2022_Apr_07_1121,N-Back (New Version 2021),2021.1.4,120.33086179145563,
,,,,Conditions/Version_1/twoback(1)_v1.xlsx,New rule: Press 'space' when you see 2-back (i.e. the same letter as the one that appeared 2 letters ago.),R,None,,,,,,,,,0,2,2,2,0,7,7,7,,,,,,,,,,,,,,,,,,,,,,,,,,,,,,,,,,,,,,,,,,,,,,,,,,,,,,,,,,,,,,,,,,,,,1.3324,677.3360257000313,None,None,1,677.3360257000313,None,,P034,FENCOG,2,Pre,2022_Apr_07_1121,N-Back (New Version 2021),2021.1.4,120.33086179145563,
,,,,Conditions/Version_1/twoback(1)_v1.xlsx,New rule: Press 'space' when you see 2-back (i.e. the same letter as the one that appeared 2 letters ago.),a,None,,,,,,,,,0,2,2,2,0,8,8,8,,,,,,,,,,,,,,,,,,,,,,,,,,,,,,,,,,,,,,,,,,,,,,,,,,,,,,,,,,,,,,,,,,,,,1.6176,680.9597947000293,None,None,1,680.9597947000293,None,,P034,FENCOG,2,Pre,2022_Apr_07_1121,N-Back (New Version 2021),2021.1.4,120.33086179145563,
,,,,Conditions/Version_1/twoback(1)_v1.xlsx,New rule: Press 'space' when you see 2-back (i.e. the same letter as the one that appeared 2 letters ago.),r,space,,,,,,,,,0,2,2,2,0,9,9,9,,,,,,,,,,,,,,,,,,,,,,,,,,,,,,,,,,,,,,,,,,,,,,,,,,,,,,,,,,,,,,,,,,,,,1.5494,684.5082049000193,None,space,1,684.5082049000193,None,0.4666713000042364,P034,FENCOG,2,Pre,2022_Apr_07_1121,N-Back (New Version 2021),2021.1.4,120.33086179145563,
,,,,Conditions/Version_1/twoback(1)_v1.xlsx,New rule: Press 'space' when you see 2-back (i.e. the same letter as the one that appeared 2 letters ago.),,,,,,,,,,,0,2,2,2,,,,,,,,,,,,,,,,,,,,,,,,,,,,,,,,,,,,,,,,,,,,,,,,,,,,,,,,,,,,,,,,,,,,,,,,,,,,,,,,,P034,FENCOG,2,Pre,2022_Apr_07_1121,N-Back (New Version 2021),2021.1.4,120.33086179145563,
,,,,Conditions/Version_1/threeback(1)_v1.xlsx,New rule: Press 'space' when you see 3-back (i.e. the same letter as the one that appeared 3 letters ago.),r,None,,,,,,,,,0,3,3,3,0,0,0,0,,,,,,,,,,,,,,,,,,,,,,,,,,,,,,,,,,,,,,,,,,,,,,,,,,,,,,,,,,,686.5402598000364,None,689.5175730999908,None,space,0.6172223999747075,689.5175730999908,None,686.5402598000364,None,1.7664,691.9396881000139,None,None,1,691.9396881000139,None,,P034,FENCOG,2,Pre,2022_Apr_07_1121,N-Back (New Version 2021),2021.1.4,120.33086179145563,
,,,,Conditions/Version_1/threeback(1)_v1.xlsx,New rule: Press 'space' when you see 3-back (i.e. the same letter as the one that appeared 3 letters ago.),o,None,,,,,,,,,0,3,3,3,0,1,1,1,,,,,,,,,,,,,,,,,,,,,,,,,,,,,,,,,,,,,,,,,,,,,,,,,,,,,,,,,,,,,,,,,,,,,1.8098,695.7575285999919,None,None,1,695.7575285999919,None,,P034,FENCOG,2,Pre,2022_Apr_07_1121,N-Back (New Version 2021),2021.1.4,120.33086179145563,
,,,,Conditions/Version_1/threeback(1)_v1.xlsx,New rule: Press 'space' when you see 3-back (i.e. the same letter as the one that appeared 3 letters ago.),P,None,,,,,,,,,0,3,3,3,0,2,2,2,,,,,,,,,,,,,,,,,,,,,,,,,,,,,,,,,,,,,,,,,,,,,,,,,,,,,,,,,,,,,,,,,,,,,1.5556,699.3215273999958,None,None,1,699.3215273999958,None,,P034,FENCOG,2,Pre,2022_Apr_07_1121,N-Back (New Version 2021),2021.1.4,120.33086179145563,
,,,,Conditions/Version_1/threeback(1)_v1.xlsx,New rule: Press 'space' when you see 3-back (i.e. the same letter as the one that appeared 3 letters ago.),R,space,,,,,,,,,0,3,3,3,0,3,3,3,,,,,,,,,,,,,,,,,,,,,,,,,,,,,,,,,,,,,,,,,,,,,,,,,,,,,,,,,,,,,,,,,,,,,1.475,702.8040225000004,None,None,0,702.8040225000004,None,,P034,FENCOG,2,Pre,2022_Apr_07_1121,N-Back (New Version 2021),2021.1.4,120.33086179145563,
,,,,Conditions/Version_1/threeback(1)_v1.xlsx,New rule: Press 'space' when you see 3-back (i.e. the same letter as the one that appeared 3 letters ago.),p,None,,,,,,,,,0,3,3,3,0,4,4,4,,,,,,,,,,,,,,,,,,,,,,,,,,,,,,,,,,,,,,,,,,,,,,,,,,,,,,,,,,,,,,,,,,,,,1.351,706.1685885000043,None,None,1,706.1685885000043,None,,P034,FENCOG,2,Pre,2022_Apr_07_1121,N-Back (New Version 2021),2021.1.4,120.33086179145563,
,,,,Conditions/Version_1/threeback(1)_v1.xlsx,New rule: Press 'space' when you see 3-back (i.e. the same letter as the one that appeared 3 letters ago.),E,None,,,,,,,,,0,3,3,3,0,5,5,5,,,,,,,,,,,,,,,,,,,,,,,,,,,,,,,,,,,,,,,,,,,,,,,,,,,,,,,,,,,,,,,,,,,,,1.0534,709.2286017999868,None,None,1,709.2286017999868,None,,P034,FENCOG,2,Pre,2022_Apr_07_1121,N-Back (New Version 2021),2021.1.4,120.33086179145563,
,,,,Conditions/Version_1/threeback(1)_v1.xlsx,New rule: Press 'space' when you see 3-back (i.e. the same letter as the one that appeared 3 letters ago.),e,None,,,,,,,,,0,3,3,3,0,6,6,6,,,,,,,,,,,,,,,,,,,,,,,,,,,,,,,,,,,,,,,,,,,,,,,,,,,,,,,,,,,,,,,,,,,,,1.227,712.4678802000126,None,None,1,712.4678802000126,None,,P034,FENCOG,2,Pre,2022_Apr_07_1121,N-Back (New Version 2021),2021.1.4,120.33086179145563,
,,,,Conditions/Version_1/threeback(1)_v1.xlsx,New rule: Press 'space' when you see 3-back (i.e. the same letter as the one that appeared 3 letters ago.),m,None,,,,,,,,,0,3,3,3,0,7,7,7,,,,,,,,,,,,,,,,,,,,,,,,,,,,,,,,,,,,,,,,,,,,,,,,,,,,,,,,,,,,,,,,,,,,,1.971,716.4493652000092,None,None,1,716.4493652000092,None,,P034,FENCOG,2,Pre,2022_Apr_07_1121,N-Back (New Version 2021),2021.1.4,120.33086179145563,
,,,,Conditions/Version_1/threeback(1)_v1.xlsx,New rule: Press 'space' when you see 3-back (i.e. the same letter as the one that appeared 3 letters ago.),n,None,,,,,,,,,0,3,3,3,0,8,8,8,,,,,,,,,,,,,,,,,,,,,,,,,,,,,,,,,,,,,,,,,,,,,,,,,,,,,,,,,,,,,,,,,,,,,1.5184,719.9729469000013,None,None,1,719.9729469000013,None,,P034,FENCOG,2,Pre,2022_Apr_07_1121,N-Back (New Version 2021),2021.1.4,120.33086179145563,
,,,,Conditions/Version_1/threeback(1)_v1.xlsx,New rule: Press 'space' when you see 3-back (i.e. the same letter as the one that appeared 3 letters ago.),e,space,,,,,,,,,0,3,3,3,0,9,9,9,,,,,,,,,,,,,,,,,,,,,,,,,,,,,,,,,,,,,,,,,,,,,,,,,,,,,,,,,,,,,,,,,,,,,1.2642,723.2403223000001,None,space,1,723.2403223000001,None,1.0146298999898136,P034,FENCOG,2,Pre,2022_Apr_07_1121,N-Back (New Version 2021),2021.1.4,120.33086179145563,
,,,,Conditions/Version_1/threeback(1)_v1.xlsx,New rule: Press 'space' when you see 3-back (i.e. the same letter as the one that appeared 3 letters ago.),,,,,,,,,,,0,3,3,3,,,,,,,,,,,,,,,,,,,,,,,,,,,,,,,,,,,,,,,,,,,,,,,,,,,,,,,,,,,,,,,,,,,,,,,,,,,,,,,,,P034,FENCOG,2,Pre,2022_Apr_07_1121,N-Back (New Version 2021),2021.1.4,120.33086179145563,
,,,,Conditions/Version_1/oneback(2)_v1.xlsx,New rule: Press 'space' when you see 1-back (i.e. the same letter as the one that appeared 1 letter ago.),q,None,,,,,,,,,0,4,4,4,0,0,0,0,,,,,,,,,,,,,,,,,,,,,,,,,,,,,,,,,,,,,,,,,,,,,,,,,,,,,,,,,,,725.2686562000308,None,728.2569724000059,None,space,0.5900720999925397,728.2569724000059,None,725.2686562000308,None,1.6548,730.5372248000349,None,None,1,730.5372248000349,None,,P034,FENCOG,2,Pre,2022_Apr_07_1121,N-Back (New Version 2021),2021.1.4,120.33086179145563,
,,,,Conditions/Version_1/oneback(2)_v1.xlsx,New rule: Press 'space' when you see 1-back (i.e. the same letter as the one that appeared 1 letter ago.),Q,space,,,,,,,,,0,4,4,4,0,1,1,1,,,,,,,,,,,,,,,,,,,,,,,,,,,,,,,,,,,,,,,,,,,,,,,,,,,,,,,,,,,,,,,,,,,,,1.2394,733.7864817000227,None,space,1,733.7864817000227,None,0.5565346000366844,P034,FENCOG,2,Pre,2022_Apr_07_1121,N-Back (New Version 2021),2021.1.4,120.33086179145563,
,,,,Conditions/Version_1/oneback(2)_v1.xlsx,New rule: Press 'space' when you see 1-back (i.e. the same letter as the one that appeared 1 letter ago.),P,None,,,,,,,,,0,4,4,4,0,2,2,2,,,,,,,,,,,,,,,,,,,,,,,,,,,,,,,,,,,,,,,,,,,,,,,,,,,,,,,,,,,,,,,,,,,,,1.4502,737.2480454000179,None,None,1,737.2480454000179,None,,P034,FENCOG,2,Pre,2022_Apr_07_1121,N-Back (New Version 2021),2021.1.4,120.33086179145563,
,,,,Conditions/Version_1/oneback(2)_v1.xlsx,New rule: Press 'space' when you see 1-back (i.e. the same letter as the one that appeared 1 letter ago.),o,None,,,,,,,,,0,4,4,4,0,3,3,3,,,,,,,,,,,,,,,,,,,,,,,,,,,,,,,,,,,,,,,,,,,,,,,,,,,,,,,,,,,,,,,,,,,,,1.5742,740.8274226000067,None,None,1,740.8274226000067,None,,P034,FENCOG,2,Pre,2022_Apr_07_1121,N-Back (New Version 2021),2021.1.4,120.33086179145563,
,,,,Conditions/Version_1/oneback(2)_v1.xlsx,New rule: Press 'space' when you see 1-back (i.e. the same letter as the one that appeared 1 letter ago.),m,None,,,,,,,,,0,4,4,4,0,4,4,4,,,,,,,,,,,,,,,,,,,,,,,,,,,,,,,,,,,,,,,,,,,,,,,,,,,,,,,,,,,,,,,,,,,,,1.6796,744.5157181000104,None,None,1,744.5157181000104,None,,P034,FENCOG,2,Pre,2022_Apr_07_1121,N-Back (New Version 2021),2021.1.4,120.33086179145563,
,,,,Conditions/Version_1/oneback(2)_v1.xlsx,New rule: Press 'space' when you see 1-back (i.e. the same letter as the one that appeared 1 letter ago.),Z,None,,,,,,,,,0,4,4,4,0,5,5,5,,,,,,,,,,,,,,,,,,,,,,,,,,,,,,,,,,,,,,,,,,,,,,,,,,,,,,,,,,,,,,,,,,,,,1.94,748.4594041000237,None,None,1,748.4594041000237,None,,P034,FENCOG,2,Pre,2022_Apr_07_1121,N-Back (New Version 2021),2021.1.4,120.33086179145563,
,,,,Conditions/Version_1/oneback(2)_v1.xlsx,New rule: Press 'space' when you see 1-back (i.e. the same letter as the one that appeared 1 letter ago.),c,None,,,,,,,,,0,4,4,4,0,6,6,6,,,,,,,,,,,,,,,,,,,,,,,,,,,,,,,,,,,,,,,,,,,,,,,,,,,,,,,,,,,,,,,,,,,,,1.5246,751.9889862000127,None,None,1,751.9889862000127,None,,P034,FENCOG,2,Pre,2022_Apr_07_1121,N-Back (New Version 2021),2021.1.4,120.33086179145563,
,,,,Conditions/Version_1/oneback(2)_v1.xlsx,New rule: Press 'space' when you see 1-back (i.e. the same letter as the one that appeared 1 letter ago.),c,space,,,,,,,,,0,4,4,4,0,7,7,7,,,,,,,,,,,,,,,,,,,,,,,,,,,,,,,,,,,,,,,,,,,,,,,,,,,,,,,,,,,,,,,,,,,,,1.041,755.029388200026,None,space,1,755.029388200026,None,0.8095378000289202,P034,FENCOG,2,Pre,2022_Apr_07_1121,N-Back (New Version 2021),2021.1.4,120.33086179145563,
,,,,Conditions/Version_1/oneback(2)_v1.xlsx,New rule: Press 'space' when you see 1-back (i.e. the same letter as the one that appeared 1 letter ago.),P,None,,,,,,,,,0,4,4,4,0,8,8,8,,,,,,,,,,,,,,,,,,,,,,,,,,,,,,,,,,,,,,,,,,,,,,,,,,,,,,,,,,,,,,,,,,,,,1.289,758.3267656000098,None,None,1,758.3267656000098,None,,P034,FENCOG,2,Pre,2022_Apr_07_1121,N-Back (New Version 2021),2021.1.4,120.33086179145563,
,,,,Conditions/Version_1/oneback(2)_v1.xlsx,New rule: Press 'space' when you see 1-back (i.e. the same letter as the one that appeared 1 letter ago.),p,space,,,,,,,,,0,4,4,4,0,9,9,9,,,,,,,,,,,,,,,,,,,,,,,,,,,,,,,,,,,,,,,,,,,,,,,,,,,,,,,,,,,,,,,,,,,,,1.1588,761.4884839000297,None,space,1,761.4884839000297,None,0.43048779998207465,P034,FENCOG,2,Pre,2022_Apr_07_1121,N-Back (New Version 2021),2021.1.4,120.33086179145563,
,,,,Conditions/Version_1/oneback(2)_v1.xlsx,New rule: Press 'space' when you see 1-back (i.e. the same letter as the one that appeared 1 letter ago.),,,,,,,,,,,0,4,4,4,,,,,,,,,,,,,,,,,,,,,,,,,,,,,,,,,,,,,,,,,,,,,,,,,,,,,,,,,,,,,,,,,,,,,,,,,,,,,,,,,P034,FENCOG,2,Pre,2022_Apr_07_1121,N-Back (New Version 2021),2021.1.4,120.33086179145563,
,,,,Conditions/Version_1/zeroback(2)_v1.xlsx,New rule: Press 'space' when you see the letter 'x' or 'X'.,p,None,,,,,,,,,0,5,5,5,0,0,0,0,,,,,,,,,,,,,,,,,,,,,,,,,,,,,,,,,,,,,,,,,,,,,,,,,,,,,,,,,,,763.5111694000079,None,766.4931193999946,None,space,0.5697194999665953,766.4931193999946,None,763.5111694000079,None,1.6982,768.7916420000256,None,None,1,768.7916420000256,None,,P034,FENCOG,2,Pre,2022_Apr_07_1121,N-Back (New Version 2021),2021.1.4,120.33086179145563,
,,,,Conditions/Version_1/zeroback(2)_v1.xlsx,New rule: Press 'space' when you see the letter 'x' or 'X'.,L,None,,,,,,,,,0,5,5,5,0,1,1,1,,,,,,,,,,,,,,,,,,,,,,,,,,,,,,,,,,,,,,,,,,,,,,,,,,,,,,,,,,,,,,,,,,,,,1.4068,772.1989548000274,None,None,1,772.1989548000274,None,,P034,FENCOG,2,Pre,2022_Apr_07_1121,N-Back (New Version 2021),2021.1.4,120.33086179145563,
,,,,Conditions/Version_1/zeroback(2)_v1.xlsx,New rule: Press 'space' when you see the letter 'x' or 'X'.,G,None,,,,,,,,,0,5,5,5,0,2,2,2,,,,,,,,,,,,,,,,,,,,,,,,,,,,,,,,,,,,,,,,,,,,,,,,,,,,,,,,,,,,,,,,,,,,,1.2766,775.4863848999958,None,None,1,775.4863848999958,None,,P034,FENCOG,2,Pre,2022_Apr_07_1121,N-Back (New Version 2021),2021.1.4,120.33086179145563,
,,,,Conditions/Version_1/zeroback(2)_v1.xlsx,New rule: Press 'space' when you see the letter 'x' or 'X'.,y,None,,,,,,,,,0,5,5,5,0,3,3,3,,,,,,,,,,,,,,,,,,,,,,,,,,,,,,,,,,,,,,,,,,,,,,,,,,,,,,,,,,,,,,,,,,,,,1.2394,778.7334464000305,None,None,1,778.7334464000305,None,,P034,FENCOG,2,Pre,2022_Apr_07_1121,N-Back (New Version 2021),2021.1.4,120.33086179145563,
,,,,Conditions/Version_1/zeroback(2)_v1.xlsx,New rule: Press 'space' when you see the letter 'x' or 'X'.,Y,None,,,,,,,,,0,5,5,5,0,4,4,4,,,,,,,,,,,,,,,,,,,,,,,,,,,,,,,,,,,,,,,,,,,,,,,,,,,,,,,,,,,,,,,,,,,,,1.3572,782.0973753000144,None,None,1,782.0973753000144,None,,P034,FENCOG,2,Pre,2022_Apr_07_1121,N-Back (New Version 2021),2021.1.4,120.33086179145563,
,,,,Conditions/Version_1/zeroback(2)_v1.xlsx,New rule: Press 'space' when you see the letter 'x' or 'X'.,W,None,,,,,,,,,0,5,5,5,0,5,5,5,,,,,,,,,,,,,,,,,,,,,,,,,,,,,,,,,,,,,,,,,,,,,,,,,,,,,,,,,,,,,,,,,,,,,1.2704,785.3800474000163,None,None,1,785.3800474000163,None,,P034,FENCOG,2,Pre,2022_Apr_07_1121,N-Back (New Version 2021),2021.1.4,120.33086179145563,
,,,,Conditions/Version_1/zeroback(2)_v1.xlsx,New rule: Press 'space' when you see the letter 'x' or 'X'.,x,space,,,,,,,,,0,5,5,5,0,6,6,6,,,,,,,,,,,,,,,,,,,,,,,,,,,,,,,,,,,,,,,,,,,,,,,,,,,,,,,,,,,,,,,,,,,,,1.0224,788.4112546000397,None,space,1,788.4112546000397,None,0.5880125000257976,P034,FENCOG,2,Pre,2022_Apr_07_1121,N-Back (New Version 2021),2021.1.4,120.33086179145563,
,,,,Conditions/Version_1/zeroback(2)_v1.xlsx,New rule: Press 'space' when you see the letter 'x' or 'X'.,X,space,,,,,,,,,0,5,5,5,0,7,7,7,,,,,,,,,,,,,,,,,,,,,,,,,,,,,,,,,,,,,,,,,,,,,,,,,,,,,,,,,,,,,,,,,,,,,1.692,792.1103279000381,None,space,1,792.1103279000381,None,0.5289022999932058,P034,FENCOG,2,Pre,2022_Apr_07_1121,N-Back (New Version 2021),2021.1.4,120.33086179145563,
,,,,Conditions/Version_1/zeroback(2)_v1.xlsx,New rule: Press 'space' when you see the letter 'x' or 'X'.,p,None,,,,,,,,,0,5,5,5,0,8,8,8,,,,,,,,,,,,,,,,,,,,,,,,,,,,,,,,,,,,,,,,,,,,,,,,,,,,,,,,,,,,,,,,,,,,,1.5122,795.6256845000316,None,None,1,795.6256845000316,None,,P034,FENCOG,2,Pre,2022_Apr_07_1121,N-Back (New Version 2021),2021.1.4,120.33086179145563,
,,,,Conditions/Version_1/zeroback(2)_v1.xlsx,New rule: Press 'space' when you see the letter 'x' or 'X'.,h,None,,,,,,,,,0,5,5,5,0,9,9,9,,,,,,,,,,,,,,,,,,,,,,,,,,,,,,,,,,,,,,,,,,,,,,,,,,,,,,,,,,,,,,,,,,,,,1.5866,799.2167264000163,None,None,1,799.2167264000163,None,,P034,FENCOG,2,Pre,2022_Apr_07_1121,N-Back (New Version 2021),2021.1.4,120.33086179145563,
,,,,Conditions/Version_1/zeroback(2)_v1.xlsx,New rule: Press 'space' when you see the letter 'x' or 'X'.,,,,,,,,,,,0,5,5,5,,,,,,,,,,,,,,,,,,,,,,,,,,,,,,,,,,,,,,,,,,,,,,,,,,,,,,,,,,,,,,,,,,,,,,,,,,,,,,,,,P034,FENCOG,2,Pre,2022_Apr_07_1121,N-Back (New Version 2021),2021.1.4,120.33086179145563,
,,,,Conditions/Version_1/threeback(2)_v1.xlsx,New rule: Press 'space' when you see 3-back (i.e. the same letter as the one that appeared 3 letters ago.),q,None,,,,,,,,,0,6,6,6,0,0,0,0,,,,,,,,,,,,,,,,,,,,,,,,,,,,,,,,,,,,,,,,,,,,,,,,,,,,,,,,,,,801.257628899999,None,804.2426933000097,None,space,3.8361261999816634,804.2426933000097,None,801.257628899999,None,1.5618,809.6718690000125,None,None,1,809.6718690000125,None,,P034,FENCOG,2,Pre,2022_Apr_07_1121,N-Back (New Version 2021),2021.1.4,120.33086179145563,
,,,,Conditions/Version_1/threeback(2)_v1.xlsx,New rule: Press 'space' when you see 3-back (i.e. the same letter as the one that appeared 3 letters ago.),Y,None,,,,,,,,,0,6,6,6,0,1,1,1,,,,,,,,,,,,,,,,,,,,,,,,,,,,,,,,,,,,,,,,,,,,,,,,,,,,,,,,,,,,,,,,,,,,,1.4688,813.1454081000411,None,None,1,813.1454081000411,None,,P034,FENCOG,2,Pre,2022_Apr_07_1121,N-Back (New Version 2021),2021.1.4,120.33086179145563,
,,,,Conditions/Version_1/threeback(2)_v1.xlsx,New rule: Press 'space' when you see 3-back (i.e. the same letter as the one that appeared 3 letters ago.),p,None,,,,,,,,,0,6,6,6,0,2,2,2,,,,,,,,,,,,,,,,,,,,,,,,,,,,,,,,,,,,,,,,,,,,,,,,,,,,,,,,,,,,,,,,,,,,,1.289,816.4360202000244,None,None,1,816.4360202000244,None,,P034,FENCOG,2,Pre,2022_Apr_07_1121,N-Back (New Version 2021),2021.1.4,120.33086179145563,
,,,,Conditions/Version_1/threeback(2)_v1.xlsx,New rule: Press 'space' when you see 3-back (i.e. the same letter as the one that appeared 3 letters ago.),p,None,,,,,,,,,0,6,6,6,0,3,3,3,,,,,,,,,,,,,,,,,,,,,,,,,,,,,,,,,,,,,,,,,,,,,,,,,,,,,,,,,,,,,,,,,,,,,1.4936,819.9353173000272,None,None,1,819.9353173000272,None,,P034,FENCOG,2,Pre,2022_Apr_07_1121,N-Back (New Version 2021),2021.1.4,120.33086179145563,
,,,,Conditions/Version_1/threeback(2)_v1.xlsx,New rule: Press 'space' when you see 3-back (i.e. the same letter as the one that appeared 3 letters ago.),y,space,,,,,,,,,0,6,6,6,0,4,4,4,,,,,,,,,,,,,,,,,,,,,,,,,,,,,,,,,,,,,,,,,,,,,,,,,,,,,,,,,,,,,,,,,,,,,1.9648,823.9152941000066,None,space,1,823.9152941000066,None,0.7556523000239395,P034,FENCOG,2,Pre,2022_Apr_07_1121,N-Back (New Version 2021),2021.1.4,120.33086179145563,
,,,,Conditions/Version_1/threeback(2)_v1.xlsx,New rule: Press 'space' when you see 3-back (i.e. the same letter as the one that appeared 3 letters ago.),u,None,,,,,,,,,0,6,6,6,0,5,5,5,,,,,,,,,,,,,,,,,,,,,,,,,,,,,,,,,,,,,,,,,,,,,,,,,,,,,,,,,,,,,,,,,,,,,1.599,827.5187848000205,None,None,1,827.5187848000205,None,,P034,FENCOG,2,Pre,2022_Apr_07_1121,N-Back (New Version 2021),2021.1.4,120.33086179145563,
,,,,Conditions/Version_1/threeback(2)_v1.xlsx,New rule: Press 'space' when you see 3-back (i.e. the same letter as the one that appeared 3 letters ago.),P,space,,,,,,,,,0,6,6,6,0,6,6,6,,,,,,,,,,,,,,,,,,,,,,,,,,,,,,,,,,,,,,,,,,,,,,,,,,,,,,,,,,,,,,,,,,,,,1.2146,830.7401055000373,None,space,1,830.7401055000373,None,1.2989706000080332,P034,FENCOG,2,Pre,2022_Apr_07_1121,N-Back (New Version 2021),2021.1.4,120.33086179145563,
,,,,Conditions/Version_1/threeback(2)_v1.xlsx,New rule: Press 'space' when you see 3-back (i.e. the same letter as the one that appeared 3 letters ago.),a,None,,,,,,,,,0,6,6,6,0,7,7,7,,,,,,,,,,,,,,,,,,,,,,,,,,,,,,,,,,,,,,,,,,,,,,,,,,,,,,,,,,,,,,,,,,,,,1.2518,833.9975949000218,None,None,1,833.9975949000218,None,,P034,FENCOG,2,Pre,2022_Apr_07_1121,N-Back (New Version 2021),2021.1.4,120.33086179145563,
,,,,Conditions/Version_1/threeback(2)_v1.xlsx,New rule: Press 'space' when you see 3-back (i.e. the same letter as the one that appeared 3 letters ago.),U,space,,,,,,,,,0,6,6,6,0,8,8,8,,,,,,,,,,,,,,,,,,,,,,,,,,,,,,,,,,,,,,,,,,,,,,,,,,,,,,,,,,,,,,,,,,,,,1.3572,837.3556023000274,None,space,1,837.3556023000274,None,1.163215600012336,P034,FENCOG,2,Pre,2022_Apr_07_1121,N-Back (New Version 2021),2021.1.4,120.33086179145563,
,,,,Conditions/Version_1/threeback(2)_v1.xlsx,New rule: Press 'space' when you see 3-back (i.e. the same letter as the one that appeared 3 letters ago.),q,None,,,,,,,,,0,6,6,6,0,9,9,9,,,,,,,,,,,,,,,,,,,,,,,,,,,,,,,,,,,,,,,,,,,,,,,,,,,,,,,,,,,,,,,,,,,,,1.9524,841.3223938000156,None,None,1,841.3223938000156,None,,P034,FENCOG,2,Pre,2022_Apr_07_1121,N-Back (New Version 2021),2021.1.4,120.33086179145563,
,,,,Conditions/Version_1/threeback(2)_v1.xlsx,New rule: Press 'space' when you see 3-back (i.e. the same letter as the one that appeared 3 letters ago.),,,,,,,,,,,0,6,6,6,,,,,,,,,,,,,,,,,,,,,,,,,,,,,,,,,,,,,,,,,,,,,,,,,,,,,,,,,,,,,,,,,,,,,,,,,,,,,,,,,P034,FENCOG,2,Pre,2022_Apr_07_1121,N-Back (New Version 2021),2021.1.4,120.33086179145563,
,,,,Conditions/Version_1/twoback(2)_v1.xlsx,New rule: Press 'space' when you see 2-back (i.e. the same letter as the one that appeared 2 letters ago.),q,None,,,,,,,,,0,7,7,7,0,0,0,0,,,,,,,,,,,,,,,,,,,,,,,,,,,,,,,,,,,,,,,,,,,,,,,,,,,,,,,,,,,843.3500972000184,None,846.338453400007,None,space,0.6123626999906264,846.338453400007,None,843.3500972000184,None,1.2952,848.2770004000049,None,None,1,848.2770004000049,None,,P034,FENCOG,2,Pre,2022_Apr_07_1121,N-Back (New Version 2021),2021.1.4,120.33086179145563,
,,,,Conditions/Version_1/twoback(2)_v1.xlsx,New rule: Press 'space' when you see 2-back (i.e. the same letter as the one that appeared 2 letters ago.),r,None,,,,,,,,,0,7,7,7,0,1,1,1,,,,,,,,,,,,,,,,,,,,,,,,,,,,,,,,,,,,,,,,,,,,,,,,,,,,,,,,,,,,,,,,,,,,,1.7168,851.992745800002,None,None,1,851.992745800002,None,,P034,FENCOG,2,Pre,2022_Apr_07_1121,N-Back (New Version 2021),2021.1.4,120.33086179145563,
,,,,Conditions/Version_1/twoback(2)_v1.xlsx,New rule: Press 'space' when you see 2-back (i.e. the same letter as the one that appeared 2 letters ago.),q,space,,,,,,,,,0,7,7,7,0,2,2,2,,,,,,,,,,,,,,,,,,,,,,,,,,,,,,,,,,,,,,,,,,,,,,,,,,,,,,,,,,,,,,,,,,,,,1.5804,855.5753356000059,None,space,1,855.5753356000059,None,0.5517174999695271,P034,FENCOG,2,Pre,2022_Apr_07_1121,N-Back (New Version 2021),2021.1.4,120.33086179145563,
,,,,Conditions/Version_1/twoback(2)_v1.xlsx,New rule: Press 'space' when you see 2-back (i.e. the same letter as the one that appeared 2 letters ago.),P,None,,,,,,,,,0,7,7,7,0,3,3,3,,,,,,,,,,,,,,,,,,,,,,,,,,,,,,,,,,,,,,,,,,,,,,,,,,,,,,,,,,,,,,,,,,,,,1.7354,859.3237549000187,None,None,1,859.3237549000187,None,,P034,FENCOG,2,Pre,2022_Apr_07_1121,N-Back (New Version 2021),2021.1.4,120.33086179145563,
,,,,Conditions/Version_1/twoback(2)_v1.xlsx,New rule: Press 'space' when you see 2-back (i.e. the same letter as the one that appeared 2 letters ago.),p,None,,,,,,,,,0,7,7,7,0,4,4,4,,,,,,,,,,,,,,,,,,,,,,,,,,,,,,,,,,,,,,,,,,,,,,,,,,,,,,,,,,,,,,,,,,,,,1.7912,863.1140237000072,None,space,0,863.1140237000072,None,1.1568796999636106,P034,FENCOG,2,Pre,2022_Apr_07_1121,N-Back (New Version 2021),2021.1.4,120.33086179145563,
,,,,Conditions/Version_1/twoback(2)_v1.xlsx,New rule: Press 'space' when you see 2-back (i.e. the same letter as the one that appeared 2 letters ago.),H,None,,,,,,,,,0,7,7,7,0,5,5,5,,,,,,,,,,,,,,,,,,,,,,,,,,,,,,,,,,,,,,,,,,,,,,,,,,,,,,,,,,,,,,,,,,,,,1.3758,866.4996240999899,None,None,1,866.4996240999899,None,,P034,FENCOG,2,Pre,2022_Apr_07_1121,N-Back (New Version 2021),2021.1.4,120.33086179145563,
,,,,Conditions/Version_1/twoback(2)_v1.xlsx,New rule: Press 'space' when you see 2-back (i.e. the same letter as the one that appeared 2 letters ago.),g,None,,,,,,,,,0,7,7,7,0,6,6,6,,,,,,,,,,,,,,,,,,,,,,,,,,,,,,,,,,,,,,,,,,,,,,,,,,,,,,,,,,,,,,,,,,,,,1.3386,869.8454374999856,None,None,1,869.8454374999856,None,,P034,FENCOG,2,Pre,2022_Apr_07_1121,N-Back (New Version 2021),2021.1.4,120.33086179145563,
,,,,Conditions/Version_1/twoback(2)_v1.xlsx,New rule: Press 'space' when you see 2-back (i.e. the same letter as the one that appeared 2 letters ago.),j,None,,,,,,,,,0,7,7,7,0,7,7,7,,,,,,,,,,,,,,,,,,,,,,,,,,,,,,,,,,,,,,,,,,,,,,,,,,,,,,,,,,,,,,,,,,,,,1.2084,873.0529682000051,None,None,1,873.0529682000051,None,,P034,FENCOG,2,Pre,2022_Apr_07_1121,N-Back (New Version 2021),2021.1.4,120.33086179145563,
,,,,Conditions/Version_1/twoback(2)_v1.xlsx,New rule: Press 'space' when you see 2-back (i.e. the same letter as the one that appeared 2 letters ago.),g,space,,,,,,,,,0,7,7,7,0,8,8,8,,,,,,,,,,,,,,,,,,,,,,,,,,,,,,,,,,,,,,,,,,,,,,,,,,,,,,,,,,,,,,,,,,,,,1.1464,876.2136873000418,None,space,1,876.2136873000418,None,0.8010024999966845,P034,FENCOG,2,Pre,2022_Apr_07_1121,N-Back (New Version 2021),2021.1.4,120.33086179145563,
,,,,Conditions/Version_1/twoback(2)_v1.xlsx,New rule: Press 'space' when you see 2-back (i.e. the same letter as the one that appeared 2 letters ago.),G,None,,,,,,,,,0,7,7,7,0,9,9,9,,,,,,,,,,,,,,,,,,,,,,,,,,,,,,,,,,,,,,,,,,,,,,,,,,,,,,,,,,,,,,,,,,,,,1.4564,879.6761059000273,None,None,1,879.6761059000273,None,,P034,FENCOG,2,Pre,2022_Apr_07_1121,N-Back (New Version 2021),2021.1.4,120.33086179145563,
,,,,Conditions/Version_1/twoback(2)_v1.xlsx,New rule: Press 'space' when you see 2-back (i.e. the same letter as the one that appeared 2 letters ago.),,,,,,,,,,,0,7,7,7,,,,,,,,,,,,,,,,,,,,,,,,,,,,,,,,,,,,,,,,,,,,,,,,,,,,,,,,,,,,,,,,,,,,,,,,,,,,,,,,,P034,FENCOG,2,Pre,2022_Apr_07_1121,N-Back (New Version 2021),2021.1.4,120.33086179145563,
,,,,Conditions/Version_1/threeback(3)_v1.xlsx,New rule: Press 'space' when you see 3-back (i.e. the same letter as the one that appeared 3 letters ago.),w,None,,,,,,,,,0,8,8,8,0,0,0,0,,,,,,,,,,,,,,,,,,,,,,,,,,,,,,,,,,,,,,,,,,,,,,,,,,,,,,,,,,,881.7019163999939,None,884.6822742000222,None,space,0.6688059000298381,884.6822742000222,None,881.7019163999939,None,1.7292,887.1196842000354,None,None,1,887.1196842000354,None,,P034,FENCOG,2,Pre,2022_Apr_07_1121,N-Back (New Version 2021),2021.1.4,120.33086179145563,
,,,,Conditions/Version_1/threeback(3)_v1.xlsx,New rule: Press 'space' when you see 3-back (i.e. the same letter as the one that appeared 3 letters ago.),p,None,,,,,,,,,0,8,8,8,0,1,1,1,,,,,,,,,,,,,,,,,,,,,,,,,,,,,,,,,,,,,,,,,,,,,,,,,,,,,,,,,,,,,,,,,,,,,1.7726,890.8995011000079,None,None,1,890.8995011000079,None,,P034,FENCOG,2,Pre,2022_Apr_07_1121,N-Back (New Version 2021),2021.1.4,120.33086179145563,
,,,,Conditions/Version_1/threeback(3)_v1.xlsx,New rule: Press 'space' when you see 3-back (i.e. the same letter as the one that appeared 3 letters ago.),P,None,,,,,,,,,0,8,8,8,0,2,2,2,,,,,,,,,,,,,,,,,,,,,,,,,,,,,,,,,,,,,,,,,,,,,,,,,,,,,,,,,,,,,,,,,,,,,1.7416,894.6493661000277,None,None,1,894.6493661000277,None,,P034,FENCOG,2,Pre,2022_Apr_07_1121,N-Back (New Version 2021),2021.1.4,120.33086179145563,
,,,,Conditions/Version_1/threeback(3)_v1.xlsx,New rule: Press 'space' when you see 3-back (i.e. the same letter as the one that appeared 3 letters ago.),i,None,,,,,,,,,0,8,8,8,0,3,3,3,,,,,,,,,,,,,,,,,,,,,,,,,,,,,,,,,,,,,,,,,,,,,,,,,,,,,,,,,,,,,,,,,,,,,1.1154,897.7742844999884,None,None,1,897.7742844999884,None,,P034,FENCOG,2,Pre,2022_Apr_07_1121,N-Back (New Version 2021),2021.1.4,120.33086179145563,
,,,,Conditions/Version_1/threeback(3)_v1.xlsx,New rule: Press 'space' when you see 3-back (i.e. the same letter as the one that appeared 3 letters ago.),f,None,,,,,,,,,0,8,8,8,0,4,4,4,,,,,,,,,,,,,,,,,,,,,,,,,,,,,,,,,,,,,,,,,,,,,,,,,,,,,,,,,,,,,,,,,,,,,1.6424,901.4295799999963,None,None,1,901.4295799999963,None,,P034,FENCOG,2,Pre,2022_Apr_07_1121,N-Back (New Version 2021),2021.1.4,120.33086179145563,
,,,,Conditions/Version_1/threeback(3)_v1.xlsx,New rule: Press 'space' when you see 3-back (i.e. the same letter as the one that appeared 3 letters ago.),o,None,,,,,,,,,0,8,8,8,0,5,5,5,,,,,,,,,,,,,,,,,,,,,,,,,,,,,,,,,,,,,,,,,,,,,,,,,,,,,,,,,,,,,,,,,,,,,1.1464,904.585433100001,None,None,1,904.585433100001,None,,P034,FENCOG,2,Pre,2022_Apr_07_1121,N-Back (New Version 2021),2021.1.4,120.33086179145563,
,,,,Conditions/Version_1/threeback(3)_v1.xlsx,New rule: Press 'space' when you see 3-back (i.e. the same letter as the one that appeared 3 letters ago.),w,None,,,,,,,,,0,8,8,8,0,6,6,6,,,,,,,,,,,,,,,,,,,,,,,,,,,,,,,,,,,,,,,,,,,,,,,,,,,,,,,,,,,,,,,,,,,,,1.103,907.69342960004,None,None,1,907.69342960004,None,,P034,FENCOG,2,Pre,2022_Apr_07_1121,N-Back (New Version 2021),2021.1.4,120.33086179145563,
,,,,Conditions/Version_1/threeback(3)_v1.xlsx,New rule: Press 'space' when you see 3-back (i.e. the same letter as the one that appeared 3 letters ago.),F,space,,,,,,,,,0,8,8,8,0,7,7,7,,,,,,,,,,,,,,,,,,,,,,,,,,,,,,,,,,,,,,,,,,,,,,,,,,,,,,,,,,,,,,,,,,,,,1.8656,911.5665348999901,None,space,1,911.5665348999901,None,1.1043082000105642,P034,FENCOG,2,Pre,2022_Apr_07_1121,N-Back (New Version 2021),2021.1.4,120.33086179145563,
,,,,Conditions/Version_1/threeback(3)_v1.xlsx,New rule: Press 'space' when you see 3-back (i.e. the same letter as the one that appeared 3 letters ago.),p,None,,,,,,,,,0,8,8,8,0,8,8,8,,,,,,,,,,,,,,,,,,,,,,,,,,,,,,,,,,,,,,,,,,,,,,,,,,,,,,,,,,,,,,,,,,,,,1.816,915.3826152000111,None,None,1,915.3826152000111,None,,P034,FENCOG,2,Pre,2022_Apr_07_1121,N-Back (New Version 2021),2021.1.4,120.33086179145563,
,,,,Conditions/Version_1/threeback(3)_v1.xlsx,New rule: Press 'space' when you see 3-back (i.e. the same letter as the one that appeared 3 letters ago.),W,space,,,,,,,,,0,8,8,8,0,9,9,9,,,,,,,,,,,,,,,,,,,,,,,,,,,,,,,,,,,,,,,,,,,,,,,,,,,,,,,,,,,,,,,,,,,,,1.8966,919.2808468000148,None,None,0,919.2808468000148,None,,P034,FENCOG,2,Pre,2022_Apr_07_1121,N-Back (New Version 2021),2021.1.4,120.33086179145563,
,,,,Conditions/Version_1/threeback(3)_v1.xlsx,New rule: Press 'space' when you see 3-back (i.e. the same letter as the one that appeared 3 letters ago.),,,,,,,,,,,0,8,8,8,,,,,,,,,,,,,,,,,,,,,,,,,,,,,,,,,,,,,,,,,,,,,,,,,,,,,,,,,,,,,,,,,,,,,,,,,,,,,,,,,P034,FENCOG,2,Pre,2022_Apr_07_1121,N-Back (New Version 2021),2021.1.4,120.33086179145563,
,,,,Conditions/Version_1/zeroback(3)_v1.xlsx,New rule: Press 'space' when you see the letter 'x' or 'X'.,X,space,,,,,,,,,0,9,9,9,0,0,0,0,,,,,,,,,,,,,,,,,,,,,,,,,,,,,,,,,,,,,,,,,,,,,,,,,,,,,,,,,,,921.3005152000114,None,924.2908775000251,None,space,2.7481241000350565,924.2908775000251,None,921.3005152000114,None,1.9648,929.0444827000028,None,space,1,929.0444827000028,None,0.8504357000347227,P034,FENCOG,2,Pre,2022_Apr_07_1121,N-Back (New Version 2021),2021.1.4,120.33086179145563,
,,,,Conditions/Version_1/zeroback(3)_v1.xlsx,New rule: Press 'space' when you see the letter 'x' or 'X'.,B,None,,,,,,,,,0,9,9,9,0,1,1,1,,,,,,,,,,,,,,,,,,,,,,,,,,,,,,,,,,,,,,,,,,,,,,,,,,,,,,,,,,,,,,,,,,,,,1.3262,932.3775400000159,None,None,1,932.3775400000159,None,,P034,FENCOG,2,Pre,2022_Apr_07_1121,N-Back (New Version 2021),2021.1.4,120.33086179145563,
,,,,Conditions/Version_1/zeroback(3)_v1.xlsx,New rule: Press 'space' when you see the letter 'x' or 'X'.,m,None,,,,,,,,,0,9,9,9,0,2,2,2,,,,,,,,,,,,,,,,,,,,,,,,,,,,,,,,,,,,,,,,,,,,,,,,,,,,,,,,,,,,,,,,,,,,,1.6052,935.9864699000027,None,None,1,935.9864699000027,None,,P034,FENCOG,2,Pre,2022_Apr_07_1121,N-Back (New Version 2021),2021.1.4,120.33086179145563,
,,,,Conditions/Version_1/zeroback(3)_v1.xlsx,New rule: Press 'space' when you see the letter 'x' or 'X'.,m,None,,,,,,,,,0,9,9,9,0,3,3,3,,,,,,,,,,,,,,,,,,,,,,,,,,,,,,,,,,,,,,,,,,,,,,,,,,,,,,,,,,,,,,,,,,,,,1.3324,939.3251554000308,None,None,1,939.3251554000308,None,,P034,FENCOG,2,Pre,2022_Apr_07_1121,N-Back (New Version 2021),2021.1.4,120.33086179145563,
,,,,Conditions/Version_1/zeroback(3)_v1.xlsx,New rule: Press 'space' when you see the letter 'x' or 'X'.,o,None,,,,,,,,,0,9,9,9,0,4,4,4,,,,,,,,,,,,,,,,,,,,,,,,,,,,,,,,,,,,,,,,,,,,,,,,,,,,,,,,,,,,,,,,,,,,,1.9958,943.3238045999897,None,None,1,943.3238045999897,None,,P034,FENCOG,2,Pre,2022_Apr_07_1121,N-Back (New Version 2021),2021.1.4,120.33086179145563,
,,,,Conditions/Version_1/zeroback(3)_v1.xlsx,New rule: Press 'space' when you see the letter 'x' or 'X'.,p,None,,,,,,,,,0,9,9,9,0,5,5,5,,,,,,,,,,,,,,,,,,,,,,,,,,,,,,,,,,,,,,,,,,,,,,,,,,,,,,,,,,,,,,,,,,,,,1.351,946.6810662000207,None,None,1,946.6810662000207,None,,P034,FENCOG,2,Pre,2022_Apr_07_1121,N-Back (New Version 2021),2021.1.4,120.33086179145563,
,,,,Conditions/Version_1/zeroback(3)_v1.xlsx,New rule: Press 'space' when you see the letter 'x' or 'X'.,G,None,,,,,,,,,0,9,9,9,0,6,6,6,,,,,,,,,,,,,,,,,,,,,,,,,,,,,,,,,,,,,,,,,,,,,,,,,,,,,,,,,,,,,,,,,,,,,1.8284,950.5146891000331,None,None,1,950.5146891000331,None,,P034,FENCOG,2,Pre,2022_Apr_07_1121,N-Back (New Version 2021),2021.1.4,120.33086179145563,
,,,,Conditions/Version_1/zeroback(3)_v1.xlsx,New rule: Press 'space' when you see the letter 'x' or 'X'.,X,space,,,,,,,,,0,9,9,9,0,7,7,7,,,,,,,,,,,,,,,,,,,,,,,,,,,,,,,,,,,,,,,,,,,,,,,,,,,,,,,,,,,,,,,,,,,,,1.537,954.0624081999995,None,space,1,954.0624081999995,None,0.6485143000027165,P034,FENCOG,2,Pre,2022_Apr_07_1121,N-Back (New Version 2021),2021.1.4,120.33086179145563,
,,,,Conditions/Version_1/zeroback(3)_v1.xlsx,New rule: Press 'space' when you see the letter 'x' or 'X'.,p,None,,,,,,,,,0,9,9,9,0,8,8,8,,,,,,,,,,,,,,,,,,,,,,,,,,,,,,,,,,,,,,,,,,,,,,,,,,,,,,,,,,,,,,,,,,,,,1.692,957.7575907999999,None,None,1,957.7575907999999,None,,P034,FENCOG,2,Pre,2022_Apr_07_1121,N-Back (New Version 2021),2021.1.4,120.33086179145563,
,,,,Conditions/Version_1/zeroback(3)_v1.xlsx,New rule: Press 'space' when you see the letter 'x' or 'X'.,x,space,,,,,,,,,0,9,9,9,0,9,9,9,,,,,,,,,,,,,,,,,,,,,,,,,,,,,,,,,,,,,,,,,,,,,,,,,,,,,,,,,,,,,,,,,,,,,1.7726,961.5350584000116,None,space,1,961.5350584000116,None,0.5680359000107273,P034,FENCOG,2,Pre,2022_Apr_07_1121,N-Back (New Version 2021),2021.1.4,120.33086179145563,
,,,,Conditions/Version_1/zeroback(3)_v1.xlsx,New rule: Press 'space' when you see the letter 'x' or 'X'.,,,,,,,,,,,0,9,9,9,,,,,,,,,,,,,,,,,,,,,,,,,,,,,,,,,,,,,,,,,,,,,,,,,,,,,,,,,,,,,,,,,,,,,,,,,,,,,,,,,P034,FENCOG,2,Pre,2022_Apr_07_1121,N-Back (New Version 2021),2021.1.4,120.33086179145563,
,,,,Conditions/Version_1/twoback(3)_v1.xlsx,New rule: Press 'space' when you see 2-back (i.e. the same letter as the one that appeared 2 letters ago.),e,None,,,,,,,,,0,10,10,10,0,0,0,0,,,,,,,,,,,,,,,,,,,,,,,,,,,,,,,,,,,,,,,,,,,,,,,,,,,,,,,,,,,963.5610627999995,None,966.547402199998,None,space,0.1236592999775894,966.547402199998,None,963.5610627999995,None,1.1278,967.8332726000226,None,None,1,967.8332726000226,None,,P034,FENCOG,2,Pre,2022_Apr_07_1121,N-Back (New Version 2021),2021.1.4,120.33086179145563,
,,,,Conditions/Version_1/twoback(3)_v1.xlsx,New rule: Press 'space' when you see 2-back (i.e. the same letter as the one that appeared 2 letters ago.),o,None,,,,,,,,,0,10,10,10,0,1,1,1,,,,,,,,,,,,,,,,,,,,,,,,,,,,,,,,,,,,,,,,,,,,,,,,,,,,,,,,,,,,,,,,,,,,,1.8532,971.6904861000367,None,None,1,971.6904861000367,None,,P034,FENCOG,2,Pre,2022_Apr_07_1121,N-Back (New Version 2021),2021.1.4,120.33086179145563,
,,,,Conditions/Version_1/twoback(3)_v1.xlsx,New rule: Press 'space' when you see 2-back (i.e. the same letter as the one that appeared 2 letters ago.),P,None,,,,,,,,,0,10,10,10,0,2,2,2,,,,,,,,,,,,,,,,,,,,,,,,,,,,,,,,,,,,,,,,,,,,,,,,,,,,,,,,,,,,,,,,,,,,,1.3572,975.0477793000173,None,None,1,975.0477793000173,None,,P034,FENCOG,2,Pre,2022_Apr_07_1121,N-Back (New Version 2021),2021.1.4,120.33086179145563,
,,,,Conditions/Version_1/twoback(3)_v1.xlsx,New rule: Press 'space' when you see 2-back (i.e. the same letter as the one that appeared 2 letters ago.),z,None,,,,,,,,,0,10,10,10,0,3,3,3,,,,,,,,,,,,,,,,,,,,,,,,,,,,,,,,,,,,,,,,,,,,,,,,,,,,,,,,,,,,,,,,,,,,,1.847,978.8989663000102,None,None,1,978.8989663000102,None,,P034,FENCOG,2,Pre,2022_Apr_07_1121,N-Back (New Version 2021),2021.1.4,120.33086179145563,
,,,,Conditions/Version_1/twoback(3)_v1.xlsx,New rule: Press 'space' when you see 2-back (i.e. the same letter as the one that appeared 2 letters ago.),X,None,,,,,,,,,0,10,10,10,0,4,4,4,,,,,,,,,,,,,,,,,,,,,,,,,,,,,,,,,,,,,,,,,,,,,,,,,,,,,,,,,,,,,,,,,,,,,1.2456,982.1613569000037,None,None,1,982.1613569000037,None,,P034,FENCOG,2,Pre,2022_Apr_07_1121,N-Back (New Version 2021),2021.1.4,120.33086179145563,
,,,,Conditions/Version_1/twoback(3)_v1.xlsx,New rule: Press 'space' when you see 2-back (i.e. the same letter as the one that appeared 2 letters ago.),z,space,,,,,,,,,0,10,10,10,0,5,5,5,,,,,,,,,,,,,,,,,,,,,,,,,,,,,,,,,,,,,,,,,,,,,,,,,,,,,,,,,,,,,,,,,,,,,1.6238,985.788839899993,None,space,1,985.788839899993,None,1.1460944999707863,P034,FENCOG,2,Pre,2022_Apr_07_1121,N-Back (New Version 2021),2021.1.4,120.33086179145563,
,,,,Conditions/Version_1/twoback(3)_v1.xlsx,New rule: Press 'space' when you see 2-back (i.e. the same letter as the one that appeared 2 letters ago.),x,space,,,,,,,,,0,10,10,10,0,6,6,6,,,,,,,,,,,,,,,,,,,,,,,,,,,,,,,,,,,,,,,,,,,,,,,,,,,,,,,,,,,,,,,,,,,,,1.4812,989.2769282000372,None,space,1,989.2769282000372,None,0.40991799999028444,P034,FENCOG,2,Pre,2022_Apr_07_1121,N-Back (New Version 2021),2021.1.4,120.33086179145563,
,,,,Conditions/Version_1/twoback(3)_v1.xlsx,New rule: Press 'space' when you see 2-back (i.e. the same letter as the one that appeared 2 letters ago.),c,None,,,,,,,,,0,10,10,10,0,7,7,7,,,,,,,,,,,,,,,,,,,,,,,,,,,,,,,,,,,,,,,,,,,,,,,,,,,,,,,,,,,,,,,,,,,,,1.9834,993.2599570000311,None,None,1,993.2599570000311,None,,P034,FENCOG,2,Pre,2022_Apr_07_1121,N-Back (New Version 2021),2021.1.4,120.33086179145563,
,,,,Conditions/Version_1/twoback(3)_v1.xlsx,New rule: Press 'space' when you see 2-back (i.e. the same letter as the one that appeared 2 letters ago.),i,None,,,,,,,,,0,10,10,10,0,8,8,8,,,,,,,,,,,,,,,,,,,,,,,,,,,,,,,,,,,,,,,,,,,,,,,,,,,,,,,,,,,,,,,,,,,,,1.9772,997.2531238000374,None,None,1,997.2531238000374,None,,P034,FENCOG,2,Pre,2022_Apr_07_1121,N-Back (New Version 2021),2021.1.4,120.33086179145563,
,,,,Conditions/Version_1/twoback(3)_v1.xlsx,New rule: Press 'space' when you see 2-back (i.e. the same letter as the one that appeared 2 letters ago.),C,space,,,,,,,,,0,10,10,10,0,9,9,9,,,,,,,,,,,,,,,,,,,,,,,,,,,,,,,,,,,,,,,,,,,,,,,,,,,,,,,,,,,,,,,,,,,,,1.3696,1000.6334787000087,None,space,1,1000.6334787000087,None,0.5975050000124611,P034,FENCOG,2,Pre,2022_Apr_07_1121,N-Back (New Version 2021),2021.1.4,120.33086179145563,
,,,,Conditions/Version_1/twoback(3)_v1.xlsx,New rule: Press 'space' when you see 2-back (i.e. the same letter as the one that appeared 2 letters ago.),,,,,,,,,,,0,10,10,10,,,,,,,,,,,,,,,,,,,,,,,,,,,,,,,,,,,,,,,,,,,,,,,,,,,,,,,,,,,,,,,,,,,,,,,,,,,,,,,,,P034,FENCOG,2,Pre,2022_Apr_07_1121,N-Back (New Version 2021),2021.1.4,120.33086179145563,
,,,,Conditions/Version_1/oneback(3)_v1.xlsx,New rule: Press 'space' when you see 1-back (i.e. the same letter as the one that appeared 1 letter ago.),o,None,,,,,,,,,0,11,11,11,0,0,0,0,,,,,,,,,,,,,,,,,,,,,,,,,,,,,,,,,,,,,,,,,,,,,,,,,,,,,,,,,,,1002.6641637000139,None,1005.6421110000229,None,space,0.6286809000303037,1005.6421110000229,None,1002.6641637000139,None,1.568,1007.8714690000052,None,None,1,1007.8714690000052,None,,P034,FENCOG,2,Pre,2022_Apr_07_1121,N-Back (New Version 2021),2021.1.4,120.33086179145563,
,,,,Conditions/Version_1/oneback(3)_v1.xlsx,New rule: Press 'space' when you see 1-back (i.e. the same letter as the one that appeared 1 letter ago.),O,space,,,,,,,,,0,11,11,11,0,1,1,1,,,,,,,,,,,,,,,,,,,,,,,,,,,,,,,,,,,,,,,,,,,,,,,,,,,,,,,,,,,,,,,,,,,,,1.7168,1011.5957256000256,None,space,1,1011.5957256000256,None,0.5473805000074208,P034,FENCOG,2,Pre,2022_Apr_07_1121,N-Back (New Version 2021),2021.1.4,120.33086179145563,
,,,,Conditions/Version_1/oneback(3)_v1.xlsx,New rule: Press 'space' when you see 1-back (i.e. the same letter as the one that appeared 1 letter ago.),h,None,,,,,,,,,0,11,11,11,0,2,2,2,,,,,,,,,,,,,,,,,,,,,,,,,,,,,,,,,,,,,,,,,,,,,,,,,,,,,,,,,,,,,,,,,,,,,1.8966,1015.4946053000167,None,None,1,1015.4946053000167,None,,P034,FENCOG,2,Pre,2022_Apr_07_1121,N-Back (New Version 2021),2021.1.4,120.33086179145563,
,,,,Conditions/Version_1/oneback(3)_v1.xlsx,New rule: Press 'space' when you see 1-back (i.e. the same letter as the one that appeared 1 letter ago.),g,None,,,,,,,,,0,11,11,11,0,3,3,3,,,,,,,,,,,,,,,,,,,,,,,,,,,,,,,,,,,,,,,,,,,,,,,,,,,,,,,,,,,,,,,,,,,,,1.4936,1018.9960747000296,None,None,1,1018.9960747000296,None,,P034,FENCOG,2,Pre,2022_Apr_07_1121,N-Back (New Version 2021),2021.1.4,120.33086179145563,
,,,,Conditions/Version_1/oneback(3)_v1.xlsx,New rule: Press 'space' when you see 1-back (i.e. the same letter as the one that appeared 1 letter ago.),n,None,,,,,,,,,0,11,11,11,0,4,4,4,,,,,,,,,,,,,,,,,,,,,,,,,,,,,,,,,,,,,,,,,,,,,,,,,,,,,,,,,,,,,,,,,,,,,1.6982,1022.7030064000282,None,None,1,1022.7030064000282,None,,P034,FENCOG,2,Pre,2022_Apr_07_1121,N-Back (New Version 2021),2021.1.4,120.33086179145563,
,,,,Conditions/Version_1/oneback(3)_v1.xlsx,New rule: Press 'space' when you see 1-back (i.e. the same letter as the one that appeared 1 letter ago.),z,None,,,,,,,,,0,11,11,11,0,5,5,5,,,,,,,,,,,,,,,,,,,,,,,,,,,,,,,,,,,,,,,,,,,,,,,,,,,,,,,,,,,,,,,,,,,,,1.103,1025.8163550000172,None,None,1,1025.8163550000172,None,,P034,FENCOG,2,Pre,2022_Apr_07_1121,N-Back (New Version 2021),2021.1.4,120.33086179145563,
,,,,Conditions/Version_1/oneback(3)_v1.xlsx,New rule: Press 'space' when you see 1-back (i.e. the same letter as the one that appeared 1 letter ago.),X,None,,,,,,,,,0,11,11,11,0,6,6,6,,,,,,,,,,,,,,,,,,,,,,,,,,,,,,,,,,,,,,,,,,,,,,,,,,,,,,,,,,,,,,,,,,,,,1.8904,1029.7066754000261,None,None,1,1029.7066754000261,None,,P034,FENCOG,2,Pre,2022_Apr_07_1121,N-Back (New Version 2021),2021.1.4,120.33086179145563,
,,,,Conditions/Version_1/oneback(3)_v1.xlsx,New rule: Press 'space' when you see 1-back (i.e. the same letter as the one that appeared 1 letter ago.),r,None,,,,,,,,,0,11,11,11,0,7,7,7,,,,,,,,,,,,,,,,,,,,,,,,,,,,,,,,,,,,,,,,,,,,,,,,,,,,,,,,,,,,,,,,,,,,,1.9152,1033.6223650000175,None,None,1,1033.6223650000175,None,,P034,FENCOG,2,Pre,2022_Apr_07_1121,N-Back (New Version 2021),2021.1.4,120.33086179145563,
,,,,Conditions/Version_1/oneback(3)_v1.xlsx,New rule: Press 'space' when you see 1-back (i.e. the same letter as the one that appeared 1 letter ago.),r,space,,,,,,,,,0,11,11,11,0,8,8,8,,,,,,,,,,,,,,,,,,,,,,,,,,,,,,,,,,,,,,,,,,,,,,,,,,,,,,,,,,,,,,,,,,,,,1.4316,1037.0544696000288,None,space,1,1037.0544696000288,None,0.8008129000081681,P034,FENCOG,2,Pre,2022_Apr_07_1121,N-Back (New Version 2021),2021.1.4,120.33086179145563,
,,,,Conditions/Version_1/oneback(3)_v1.xlsx,New rule: Press 'space' when you see 1-back (i.e. the same letter as the one that appeared 1 letter ago.),P,None,,,,,,,,,0,11,11,11,0,9,9,9,,,,,,,,,,,,,,,,,,,,,,,,,,,,,,,,,,,,,,,,,,,,,,,,,,,,,,,,,,,,,,,,,,,,,1.3696,1040.5090851000277,None,None,1,1040.5090851000277,None,,P034,FENCOG,2,Pre,2022_Apr_07_1121,N-Back (New Version 2021),2021.1.4,120.33086179145563,
,,,,Conditions/Version_1/oneback(3)_v1.xlsx,New rule: Press 'space' when you see 1-back (i.e. the same letter as the one that appeared 1 letter ago.),,,,,,,,,,,0,11,11,11,,,,,,,,,,,,,,,,,,,,,,,,,,,,,,,,,,,,,,,,,,,,,,,,,,,,,,,,,,,,,,,,,,,,,,,,,,,,,,,,,P034,FENCOG,2,Pre,2022_Apr_07_1121,N-Back (New Version 2021),2021.1.4,120.33086179145563,
,,,,Conditions/Version_1/twoback(4)_v1.xlsx,New rule: Press 'space' when you see 2-back (i.e. the same letter as the one that appeared 2 letters ago.),r,None,,,,,,,,,0,12,12,12,0,0,0,0,,,,,,,,,,,,,,,,,,,,,,,,,,,,,,,,,,,,,,,,,,,,,,,,,,,,,,,,,,,1042.4573447000002,None,1045.4375803000294,None,space,0.08916820003651083,1045.4375803000294,None,1042.4573447000002,None,1.8966,1047.4518637,None,None,1,1047.4518637,None,,P034,FENCOG,2,Pre,2022_Apr_07_1121,N-Back (New Version 2021),2021.1.4,120.33086179145563,
,,,,Conditions/Version_1/twoback(4)_v1.xlsx,New rule: Press 'space' when you see 2-back (i.e. the same letter as the one that appeared 2 letters ago.),T,None,,,,,,,,,0,12,12,12,0,1,1,1,,,,,,,,,,,,,,,,,,,,,,,,,,,,,,,,,,,,,,,,,,,,,,,,,,,,,,,,,,,,,,,,,,,,,1.9586,1051.409251300036,None,None,1,1051.409251300036,None,,P034,FENCOG,2,Pre,2022_Apr_07_1121,N-Back (New Version 2021),2021.1.4,120.33086179145563,
,,,,Conditions/Version_1/twoback(4)_v1.xlsx,New rule: Press 'space' when you see 2-back (i.e. the same letter as the one that appeared 2 letters ago.),o,None,,,,,,,,,0,12,12,12,0,2,2,2,,,,,,,,,,,,,,,,,,,,,,,,,,,,,,,,,,,,,,,,,,,,,,,,,,,,,,,,,,,,,,,,,,,,,1.1898,1054.6021274999948,None,None,1,1054.6021274999948,None,,P034,FENCOG,2,Pre,2022_Apr_07_1121,N-Back (New Version 2021),2021.1.4,120.33086179145563,
,,,,Conditions/Version_1/twoback(4)_v1.xlsx,New rule: Press 'space' when you see 2-back (i.e. the same letter as the one that appeared 2 letters ago.),p,None,,,,,,,,,0,12,12,12,0,3,3,3,,,,,,,,,,,,,,,,,,,,,,,,,,,,,,,,,,,,,,,,,,,,,,,,,,,,,,,,,,,,,,,,,,,,,1.072,1057.6895511000184,None,None,1,1057.6895511000184,None,,P034,FENCOG,2,Pre,2022_Apr_07_1121,N-Back (New Version 2021),2021.1.4,120.33086179145563,
,,,,Conditions/Version_1/twoback(4)_v1.xlsx,New rule: Press 'space' when you see 2-back (i.e. the same letter as the one that appeared 2 letters ago.),p,None,,,,,,,,,0,12,12,12,0,4,4,4,,,,,,,,,,,,,,,,,,,,,,,,,,,,,,,,,,,,,,,,,,,,,,,,,,,,,,,,,,,,,,,,,,,,,1.0658,1060.7560798000195,None,None,1,1060.7560798000195,None,,P034,FENCOG,2,Pre,2022_Apr_07_1121,N-Back (New Version 2021),2021.1.4,120.33086179145563,
,,,,Conditions/Version_1/twoback(4)_v1.xlsx,New rule: Press 'space' when you see 2-back (i.e. the same letter as the one that appeared 2 letters ago.),y,None,,,,,,,,,0,12,12,12,0,5,5,5,,,,,,,,,,,,,,,,,,,,,,,,,,,,,,,,,,,,,,,,,,,,,,,,,,,,,,,,,,,,,,,,,,,,,1.785,1064.5472274000058,None,None,1,1064.5472274000058,None,,P034,FENCOG,2,Pre,2022_Apr_07_1121,N-Back (New Version 2021),2021.1.4,120.33086179145563,
,,,,Conditions/Version_1/twoback(4)_v1.xlsx,New rule: Press 'space' when you see 2-back (i.e. the same letter as the one that appeared 2 letters ago.),P,space,,,,,,,,,0,12,12,12,0,6,6,6,,,,,,,,,,,,,,,,,,,,,,,,,,,,,,,,,,,,,,,,,,,,,,,,,,,,,,,,,,,,,,,,,,,,,1.816,1068.3709740000195,None,None,0,1068.3709740000195,None,,P034,FENCOG,2,Pre,2022_Apr_07_1121,N-Back (New Version 2021),2021.1.4,120.33086179145563,
,,,,Conditions/Version_1/twoback(4)_v1.xlsx,New rule: Press 'space' when you see 2-back (i.e. the same letter as the one that appeared 2 letters ago.),y,None,,,,,,,,,0,12,12,12,0,7,7,7,,,,,,,,,,,,,,,,,,,,,,,,,,,,,,,,,,,,,,,,,,,,,,,,,,,,,,,,,,,,,,,,,,,,,1.103,1071.4860255999956,None,space,0,1071.4860255999956,None,1.4728761999867857,P034,FENCOG,2,Pre,2022_Apr_07_1121,N-Back (New Version 2021),2021.1.4,120.33086179145563,
,,,,Conditions/Version_1/twoback(4)_v1.xlsx,New rule: Press 'space' when you see 2-back (i.e. the same letter as the one that appeared 2 letters ago.),y,space,,,,,,,,,0,12,12,12,0,8,8,8,,,,,,,,,,,,,,,,,,,,,,,,,,,,,,,,,,,,,,,,,,,,,,,,,,,,,,,,,,,,,,,,,,,,,1.2766,1074.7686492000357,None,space,1,1074.7686492000357,None,1.4384670000290498,P034,FENCOG,2,Pre,2022_Apr_07_1121,N-Back (New Version 2021),2021.1.4,120.33086179145563,
,,,,Conditions/Version_1/twoback(4)_v1.xlsx,New rule: Press 'space' when you see 2-back (i.e. the same letter as the one that appeared 2 letters ago.),,,,,,,,,,,0,12,12,12,,,,,,,,,,,,,,,,,,,,,,,,,,,,,,,,,,,,,,,,,,,,,,,,,,,,,,,,,,,,,,,,,,,,,,,,,,,,,,,,,P034,FENCOG,2,Pre,2022_Apr_07_1121,N-Back (New Version 2021),2021.1.4,120.33086179145563,
,,,,Conditions/Version_1/zeroback(4)_v1.xlsx,New rule: Press 'space' when you see the letter 'x' or 'X'.,o,None,,,,,,,,,0,13,13,13,0,0,0,0,,,,,,,,,,,,,,,,,,,,,,,,,,,,,,,,,,,,,,,,,,,,,,,,,,,,,,,,,,,1076.7861460000277,None,1079.7691733000102,None,space,0.9341251000296324,1079.7691733000102,None,1076.7861460000277,None,1.0906,1081.8283464999986,None,None,1,1081.8283464999986,None,,P034,FENCOG,2,Pre,2022_Apr_07_1121,N-Back (New Version 2021),2021.1.4,120.33086179145563,
,,,,Conditions/Version_1/zeroback(4)_v1.xlsx,New rule: Press 'space' when you see the letter 'x' or 'X'.,X,space,,,,,,,,,0,13,13,13,0,1,1,1,,,,,,,,,,,,,,,,,,,,,,,,,,,,,,,,,,,,,,,,,,,,,,,,,,,,,,,,,,,,,,,,,,,,,1.0224,1084.857923100004,None,None,0,1084.857923100004,None,,P034,FENCOG,2,Pre,2022_Apr_07_1121,N-Back (New Version 2021),2021.1.4,120.33086179145563,
,,,,Conditions/Version_1/zeroback(4)_v1.xlsx,New rule: Press 'space' when you see the letter 'x' or 'X'.,p,None,,,,,,,,,0,13,13,13,0,2,2,2,,,,,,,,,,,,,,,,,,,,,,,,,,,,,,,,,,,,,,,,,,,,,,,,,,,,,,,,,,,,,,,,,,,,,1.6176,1088.4893815999967,None,None,1,1088.4893815999967,None,,P034,FENCOG,2,Pre,2022_Apr_07_1121,N-Back (New Version 2021),2021.1.4,120.33086179145563,
,,,,Conditions/Version_1/zeroback(4)_v1.xlsx,New rule: Press 'space' when you see the letter 'x' or 'X'.,m,None,,,,,,,,,0,13,13,13,0,3,3,3,,,,,,,,,,,,,,,,,,,,,,,,,,,,,,,,,,,,,,,,,,,,,,,,,,,,,,,,,,,,,,,,,,,,,1.1774,1091.6719025000348,None,None,1,1091.6719025000348,None,,P034,FENCOG,2,Pre,2022_Apr_07_1121,N-Back (New Version 2021),2021.1.4,120.33086179145563,
,,,,Conditions/Version_1/zeroback(4)_v1.xlsx,New rule: Press 'space' when you see the letter 'x' or 'X'.,n,None,,,,,,,,,0,13,13,13,0,4,4,4,,,,,,,,,,,,,,,,,,,,,,,,,,,,,,,,,,,,,,,,,,,,,,,,,,,,,,,,,,,,,,,,,,,,,1.6486,1095.3206386000384,None,None,1,1095.3206386000384,None,,P034,FENCOG,2,Pre,2022_Apr_07_1121,N-Back (New Version 2021),2021.1.4,120.33086179145563,
,,,,Conditions/Version_1/zeroback(4)_v1.xlsx,New rule: Press 'space' when you see the letter 'x' or 'X'.,m,None,,,,,,,,,0,13,13,13,0,5,5,5,,,,,,,,,,,,,,,,,,,,,,,,,,,,,,,,,,,,,,,,,,,,,,,,,,,,,,,,,,,,,,,,,,,,,1.909,1099.2381387000205,None,space,0,1099.2381387000205,None,0.40086980001069605,P034,FENCOG,2,Pre,2022_Apr_07_1121,N-Back (New Version 2021),2021.1.4,120.33086179145563,
,,,,Conditions/Version_1/zeroback(4)_v1.xlsx,New rule: Press 'space' when you see the letter 'x' or 'X'.,C,None,,,,,,,,,0,13,13,13,0,6,6,6,,,,,,,,,,,,,,,,,,,,,,,,,,,,,,,,,,,,,,,,,,,,,,,,,,,,,,,,,,,,,,,,,,,,,1.444,1102.6935232999967,None,None,1,1102.6935232999967,None,,P034,FENCOG,2,Pre,2022_Apr_07_1121,N-Back (New Version 2021),2021.1.4,120.33086179145563,
,,,,Conditions/Version_1/zeroback(4)_v1.xlsx,New rule: Press 'space' when you see the letter 'x' or 'X'.,m,None,,,,,,,,,0,13,13,13,0,7,7,7,,,,,,,,,,,,,,,,,,,,,,,,,,,,,,,,,,,,,,,,,,,,,,,,,,,,,,,,,,,,,,,,,,,,,1.196,1105.9010131999967,None,space,0,1105.9010131999967,None,0.929774499963969,P034,FENCOG,2,Pre,2022_Apr_07_1121,N-Back (New Version 2021),2021.1.4,120.33086179145563,
,,,,Conditions/Version_1/zeroback(4)_v1.xlsx,New rule: Press 'space' when you see the letter 'x' or 'X'.,p,None,,,,,,,,,0,13,13,13,0,8,8,8,,,,,,,,,,,,,,,,,,,,,,,,,,,,,,,,,,,,,,,,,,,,,,,,,,,,,,,,,,,,,,,,,,,,,1.9772,1109.8853062000126,None,None,1,1109.8853062000126,None,,P034,FENCOG,2,Pre,2022_Apr_07_1121,N-Back (New Version 2021),2021.1.4,120.33086179145563,
,,,,Conditions/Version_1/zeroback(4)_v1.xlsx,New rule: Press 'space' when you see the letter 'x' or 'X'.,X,space,,,,,,,,,0,13,13,13,0,9,9,9,,,,,,,,,,,,,,,,,,,,,,,,,,,,,,,,,,,,,,,,,,,,,,,,,,,,,,,,,,,,,,,,,,,,,1.0844,1112.9820949000423,None,None,0,1112.9820949000423,None,,P034,FENCOG,2,Pre,2022_Apr_07_1121,N-Back (New Version 2021),2021.1.4,120.33086179145563,
,,,,Conditions/Version_1/zeroback(4)_v1.xlsx,New rule: Press 'space' when you see the letter 'x' or 'X'.,,,,,,,,,,,0,13,13,13,,,,,,,,,,,,,,,,,,,,,,,,,,,,,,,,,,,,,,,,,,,,,,,,,,,,,,,,,,,,,,,,,,,,,,,,,,,,,,,,,P034,FENCOG,2,Pre,2022_Apr_07_1121,N-Back (New Version 2021),2021.1.4,120.33086179145563,
,,,,Conditions/Version_1/oneback(4)_v1.xlsx,New rule: Press 'space' when you see 1-back (i.e. the same letter as the one that appeared 1 letter ago.),w,None,,,,,,,,,0,14,14,14,0,0,0,0,,,,,,,,,,,,,,,,,,,,,,,,,,,,,,,,,,,,,,,,,,,,,,,,,,,,,,,,,,,1115.0081168999895,None,1117.9917073000106,None,space,1.0231423000223003,1117.9917073000106,None,1115.0081168999895,None,1.3076,1120.3566426000325,None,None,1,1120.3566426000325,None,,P034,FENCOG,2,Pre,2022_Apr_07_1121,N-Back (New Version 2021),2021.1.4,120.33086179145563,
,,,,Conditions/Version_1/oneback(4)_v1.xlsx,New rule: Press 'space' when you see 1-back (i.e. the same letter as the one that appeared 1 letter ago.),q,None,,,,,,,,,0,14,14,14,0,1,1,1,,,,,,,,,,,,,,,,,,,,,,,,,,,,,,,,,,,,,,,,,,,,,,,,,,,,,,,,,,,,,,,,,,,,,1.5308,1123.8960347000393,None,None,1,1123.8960347000393,None,,P034,FENCOG,2,Pre,2022_Apr_07_1121,N-Back (New Version 2021),2021.1.4,120.33086179145563,
,,,,Conditions/Version_1/oneback(4)_v1.xlsx,New rule: Press 'space' when you see 1-back (i.e. the same letter as the one that appeared 1 letter ago.),i,None,,,,,,,,,0,14,14,14,0,2,2,2,,,,,,,,,,,,,,,,,,,,,,,,,,,,,,,,,,,,,,,,,,,,,,,,,,,,,,,,,,,,,,,,,,,,,1.661,1127.5612492000218,None,None,1,1127.5612492000218,None,,P034,FENCOG,2,Pre,2022_Apr_07_1121,N-Back (New Version 2021),2021.1.4,120.33086179145563,
,,,,Conditions/Version_1/oneback(4)_v1.xlsx,New rule: Press 'space' when you see 1-back (i.e. the same letter as the one that appeared 1 letter ago.),t,None,,,,,,,,,0,14,14,14,0,3,3,3,,,,,,,,,,,,,,,,,,,,,,,,,,,,,,,,,,,,,,,,,,,,,,,,,,,,,,,,,,,,,,,,,,,,,1.5928,1131.1602389999898,None,None,1,1131.1602389999898,None,,P034,FENCOG,2,Pre,2022_Apr_07_1121,N-Back (New Version 2021),2021.1.4,120.33086179145563,
,,,,Conditions/Version_1/oneback(4)_v1.xlsx,New rule: Press 'space' when you see 1-back (i.e. the same letter as the one that appeared 1 letter ago.),v,None,,,,,,,,,0,14,14,14,0,4,4,4,,,,,,,,,,,,,,,,,,,,,,,,,,,,,,,,,,,,,,,,,,,,,,,,,,,,,,,,,,,,,,,,,,,,,1.165,1134.332277300011,None,None,1,1134.332277300011,None,,P034,FENCOG,2,Pre,2022_Apr_07_1121,N-Back (New Version 2021),2021.1.4,120.33086179145563,
,,,,Conditions/Version_1/oneback(4)_v1.xlsx,New rule: Press 'space' when you see 1-back (i.e. the same letter as the one that appeared 1 letter ago.),V,space,,,,,,,,,0,14,14,14,0,5,5,5,,,,,,,,,,,,,,,,,,,,,,,,,,,,,,,,,,,,,,,,,,,,,,,,,,,,,,,,,,,,,,,,,,,,,1.8656,1138.2045105000143,None,space,1,1138.2045105000143,None,0.6345644000102766,P034,FENCOG,2,Pre,2022_Apr_07_1121,N-Back (New Version 2021),2021.1.4,120.33086179145563,
,,,,Conditions/Version_1/oneback(4)_v1.xlsx,New rule: Press 'space' when you see 1-back (i.e. the same letter as the one that appeared 1 letter ago.),v,space,,,,,,,,,0,14,14,14,0,6,6,6,,,,,,,,,,,,,,,,,,,,,,,,,,,,,,,,,,,,,,,,,,,,,,,,,,,,,,,,,,,,,,,,,,,,,1.692,1141.9067713000113,None,space,1,1141.9067713000113,None,0.6286842999979854,P034,FENCOG,2,Pre,2022_Apr_07_1121,N-Back (New Version 2021),2021.1.4,120.33086179145563,
,,,,Conditions/Version_1/oneback(4)_v1.xlsx,New rule: Press 'space' when you see 1-back (i.e. the same letter as the one that appeared 1 letter ago.),p,None,,,,,,,,,0,14,14,14,0,7,7,7,,,,,,,,,,,,,,,,,,,,,,,,,,,,,,,,,,,,,,,,,,,,,,,,,,,,,,,,,,,,,,,,,,,,,1.072,1144.983058599988,None,None,1,1144.983058599988,None,,P034,FENCOG,2,Pre,2022_Apr_07_1121,N-Back (New Version 2021),2021.1.4,120.33086179145563,
,,,,Conditions/Version_1/oneback(4)_v1.xlsx,New rule: Press 'space' when you see 1-back (i.e. the same letter as the one that appeared 1 letter ago.),w,None,,,,,,,,,0,14,14,14,0,8,8,8,,,,,,,,,,,,,,,,,,,,,,,,,,,,,,,,,,,,,,,,,,,,,,,,,,,,,,,,,,,,,,,,,,,,,1.7602,1148.7549209999852,None,None,1,1148.7549209999852,None,,P034,FENCOG,2,Pre,2022_Apr_07_1121,N-Back (New Version 2021),2021.1.4,120.33086179145563,
,,,,Conditions/Version_1/oneback(4)_v1.xlsx,New rule: Press 'space' when you see 1-back (i.e. the same letter as the one that appeared 1 letter ago.),W,space,,,,,,,,,0,14,14,14,0,9,9,9,,,,,,,,,,,,,,,,,,,,,,,,,,,,,,,,,,,,,,,,,,,,,,,,,,,,,,,,,,,,,,,,,,,,,1.1092,1151.8708483999944,None,space,1,1151.8708483999944,None,0.7842299999902025,P034,FENCOG,2,Pre,2022_Apr_07_1121,N-Back (New Version 2021),2021.1.4,120.33086179145563,
,,,,Conditions/Version_1/oneback(4)_v1.xlsx,New rule: Press 'space' when you see 1-back (i.e. the same letter as the one that appeared 1 letter ago.),,,,,,,,,,,0,14,14,14,,,,,,,,,,,,,,,,,,,,,,,,,,,,,,,,,,,,,,,,,,,,,,,,,,,,,,,,,,,,,,,,,,,,,,,,,,,,,,,,,P034,FENCOG,2,Pre,2022_Apr_07_1121,N-Back (New Version 2021),2021.1.4,120.33086179145563,
,,,,Conditions/Version_1/threeback(4)_v1.xlsx,New rule: Press 'space' when you see 3-back (i.e. the same letter as the one that appeared 3 letters ago.),A,None,,,,,,,,,0,15,15,15,0,0,0,0,,,,,,,,,,,,,,,,,,,,,,,,,,,,,,,,,,,,,,,,,,,,,,,,,,,,,,,,,,,1153.8925283999997,None,1156.8802963999915,None,space,0.9347593999700621,1156.8802963999915,None,1153.8925283999997,None,1.4068,1159.2533727000118,None,None,1,1159.2533727000118,None,,P034,FENCOG,2,Pre,2022_Apr_07_1121,N-Back (New Version 2021),2021.1.4,120.33086179145563,
,,,,Conditions/Version_1/threeback(4)_v1.xlsx,New rule: Press 'space' when you see 3-back (i.e. the same letter as the one that appeared 3 letters ago.),n,None,,,,,,,,,0,15,15,15,0,1,1,1,,,,,,,,,,,,,,,,,,,,,,,,,,,,,,,,,,,,,,,,,,,,,,,,,,,,,,,,,,,,,,,,,,,,,1.6052,1162.8674454999855,None,None,1,1162.8674454999855,None,,P034,FENCOG,2,Pre,2022_Apr_07_1121,N-Back (New Version 2021),2021.1.4,120.33086179145563,
,,,,Conditions/Version_1/threeback(4)_v1.xlsx,New rule: Press 'space' when you see 3-back (i.e. the same letter as the one that appeared 3 letters ago.),g,None,,,,,,,,,0,15,15,15,0,2,2,2,,,,,,,,,,,,,,,,,,,,,,,,,,,,,,,,,,,,,,,,,,,,,,,,,,,,,,,,,,,,,,,,,,,,,1.9772,1166.8534370000125,None,None,1,1166.8534370000125,None,,P034,FENCOG,2,Pre,2022_Apr_07_1121,N-Back (New Version 2021),2021.1.4,120.33086179145563,
,,,,Conditions/Version_1/threeback(4)_v1.xlsx,New rule: Press 'space' when you see 3-back (i.e. the same letter as the one that appeared 3 letters ago.),A,space,,,,,,,,,0,15,15,15,0,3,3,3,,,,,,,,,,,,,,,,,,,,,,,,,,,,,,,,,,,,,,,,,,,,,,,,,,,,,,,,,,,,,,,,,,,,,1.9896,1170.848533899989,None,space,1,1170.848533899989,None,0.6863163000089116,P034,FENCOG,2,Pre,2022_Apr_07_1121,N-Back (New Version 2021),2021.1.4,120.33086179145563,
,,,,Conditions/Version_1/threeback(4)_v1.xlsx,New rule: Press 'space' when you see 3-back (i.e. the same letter as the one that appeared 3 letters ago.),p,None,,,,,,,,,0,15,15,15,0,4,4,4,,,,,,,,,,,,,,,,,,,,,,,,,,,,,,,,,,,,,,,,,,,,,,,,,,,,,,,,,,,,,,,,,,,,,1.8842,1174.7395315000322,None,None,1,1174.7395315000322,None,,P034,FENCOG,2,Pre,2022_Apr_07_1121,N-Back (New Version 2021),2021.1.4,120.33086179145563,
,,,,Conditions/Version_1/threeback(4)_v1.xlsx,New rule: Press 'space' when you see 3-back (i.e. the same letter as the one that appeared 3 letters ago.),O,None,,,,,,,,,0,15,15,15,0,5,5,5,,,,,,,,,,,,,,,,,,,,,,,,,,,,,,,,,,,,,,,,,,,,,,,,,,,,,,,,,,,,,,,,,,,,,1.8098,1178.564196899999,None,None,1,1178.564196899999,None,,P034,FENCOG,2,Pre,2022_Apr_07_1121,N-Back (New Version 2021),2021.1.4,120.33086179145563,
,,,,Conditions/Version_1/threeback(4)_v1.xlsx,New rule: Press 'space' when you see 3-back (i.e. the same letter as the one that appeared 3 letters ago.),a,space,,,,,,,,,0,15,15,15,0,6,6,6,,,,,,,,,,,,,,,,,,,,,,,,,,,,,,,,,,,,,,,,,,,,,,,,,,,,,,,,,,,,,,,,,,,,,1.1092,1181.6795793999918,None,space,1,1181.6795793999918,None,1.2553178999805823,P034,FENCOG,2,Pre,2022_Apr_07_1121,N-Back (New Version 2021),2021.1.4,120.33086179145563,
,,,,Conditions/Version_1/threeback(4)_v1.xlsx,New rule: Press 'space' when you see 3-back (i.e. the same letter as the one that appeared 3 letters ago.),p,space,,,,,,,,,0,15,15,15,0,7,7,7,,,,,,,,,,,,,,,,,,,,,,,,,,,,,,,,,,,,,,,,,,,,,,,,,,,,,,,,,,,,,,,,,,,,,1.63,1185.3259680999909,None,None,0,1185.3259680999909,None,,P034,FENCOG,2,Pre,2022_Apr_07_1121,N-Back (New Version 2021),2021.1.4,120.33086179145563,
,,,,Conditions/Version_1/threeback(4)_v1.xlsx,New rule: Press 'space' when you see 3-back (i.e. the same letter as the one that appeared 3 letters ago.),x,None,,,,,,,,,0,15,15,15,0,8,8,8,,,,,,,,,,,,,,,,,,,,,,,,,,,,,,,,,,,,,,,,,,,,,,,,,,,,,,,,,,,,,,,,,,,,,1.2394,1188.5703448000131,None,space,0,1188.5703448000131,None,0.012668800016399473,P034,FENCOG,2,Pre,2022_Apr_07_1121,N-Back (New Version 2021),2021.1.4,120.33086179145563,
,,,,Conditions/Version_1/threeback(4)_v1.xlsx,New rule: Press 'space' when you see 3-back (i.e. the same letter as the one that appeared 3 letters ago.),X,None,,,,,,,,,0,15,15,15,0,9,9,9,,,,,,,,,,,,,,,,,,,,,,,,,,,,,,,,,,,,,,,,,,,,,,,,,,,,,,,,,,,,,,,,,,,,,1.7168,1192.2921661,None,None,1,1192.2921661,None,,P034,FENCOG,2,Pre,2022_Apr_07_1121,N-Back (New Version 2021),2021.1.4,120.33086179145563,
,,,,Conditions/Version_1/threeback(4)_v1.xlsx,New rule: Press 'space' when you see 3-back (i.e. the same letter as the one that appeared 3 letters ago.),,,,,,,,,,,0,15,15,15,,,,,,,,,,,,,,,,,,,,,,,,,,,,,,,,,,,,,,,,,,,,,,,,,,,,,,,,,,,,,,,,,,,,,,,,,,,,,,,,,P034,FENCOG,2,Pre,2022_Apr_07_1121,N-Back (New Version 2021),2021.1.4,120.33086179145563,
