CondFileP,InstructionsP,LettersDisplayedP,CorrectnessP,CondFile,Instructions,LettersDisplayed,Correctness,practicetrials.thisRepN,practicetrials.thisTrialN,practicetrials.thisN,practicetrials.thisIndex,InnerLoopPractice.thisRepN,InnerLoopPractice.thisTrialN,InnerLoopPractice.thisN,InnerLoopPractice.thisIndex,trials.thisRepN,trials.thisTrialN,trials.thisN,trials.thisIndex,InnerLoop.thisRepN,InnerLoop.thisTrialN,InnerLoop.thisN,InnerLoop.thisIndex,TaskVersionText.started,TaskVersionText.stopped,InstrKey1.keys,InstrKey1.rt,InstrKey1.started,InstrKey1.stopped,text.started,text.stopped,key_resp_4.keys,key_resp_4.rt,key_resp_4.started,key_resp_4.stopped,text_2.started,text_2.stopped,key_resp_3.keys,key_resp_3.rt,key_resp_3.started,key_resp_3.stopped,text_3.started,text_3.stopped,key_resp_2.keys,key_resp_2.rt,key_resp_2.started,key_resp_2.stopped,PractIn1.started,PractIn1.stopped,PractIn2.started,PractIn2.stopped,PractInstructionPass.keys,PractInstructionPass.rt,PractInstructionPass.started,PractInstructionPass.stopped,PractBlock1.started,PractBlock1.stopped,ISIjitterPractice,ISI_Pract_Fixation.started,ISI_Pract_Fixation.stopped,N_backP.started,N_backP.stopped,KeyPractice.keys,KeyPractice.corr,KeyPractice.started,KeyPractice.stopped,text_4.started,text_4.stopped,KeyPractice.rt,TransitionText.started,TransitionText.stopped,key_resp_6.keys,key_resp_6.rt,key_resp_6.started,key_resp_6.stopped,text_5.started,text_5.stopped,key_resp_5.keys,key_resp_5.rt,key_resp_5.started,key_resp_5.stopped,MainInt1.started,MainInt1.stopped,MainInt2.started,MainInt2.stopped,InstructionPass.keys,InstructionPass.rt,InstructionPass.started,InstructionPass.stopped,Blocks1.started,Blocks1.stopped,ISIjitter,N_backD.started,N_backD.stopped,key_resp.keys,key_resp.corr,key_resp.started,key_resp.stopped,key_resp.rt,participant,Study Name,Task Version (required to run),PRE/POST,date,expName,psychopyVersion,frameRate
,,,,,,,,,,,,,,,,,,,,,,,,18.9320923,None,space,82.7334724,19.4278789,None,,,,,,,,,,,,,,,,,,,,,,,,,,,,,,,,,,,,,,,,,,,,,,,,,,,,,,,,,,,,,,,,,,,,,,,P034,fencog,1,Post,2022_Apr_14_1158,N-Back (New Version 2021),2021.1.4,119.9439142
,,,,,,,,,,,,,,,,,,,,,,,,,,,,,,102.1930256,None,space,4.8505864,102.6868019,None,,,,,,,,,,,,,,,,,,,,,,,,,,,,,,,,,,,,,,,,,,,,,,,,,,,,,,,,,,,,,,,,,P034,fencog,1,Post,2022_Apr_14_1158,N-Back (New Version 2021),2021.1.4,119.9439142
,,,,,,,,,,,,,,,,,,,,,,,,,,,,,,,,,,,,107.5771455,None,space,7.7001283,108.0690318,None,,,,,,,,,,,,,,,,,,,,,,,,,,,,,,,,,,,,,,,,,,,,,,,,,,,,,,,,,,,P034,fencog,1,Post,2022_Apr_14_1158,N-Back (New Version 2021),2021.1.4,119.9439142
,,,,,,,,,,,,,,,,,,,,,,,,,,,,,,,,,,,,,,,,,,115.8007429,None,space,5.7977891,116.2915254,None,,,,,,,,,,,,,,,,,,,,,,,,,,,,,,,,,,,,,,,,,,,,,,,,,,,,,P034,fencog,1,Post,2022_Apr_14_1158,N-Back (New Version 2021),2021.1.4,119.9439142
Conditions/Version_1Pr/zeroback(1)_v1.xlsx,Rule: Press 'space' when you see the letter 'x' or 'X'.,Z,None,,,,,0,0,0,0,0,0,0,0,,,,,,,,,,,,,,,,,,,,,,,,,,,,,,,,,123.4664721,None,126.4492348,None,space,0.1039609,126.4492348,None,123.4664721,None,1.84,126.5954966,None,128.442491,None,None,1,128.442491,None,130.4463764,None,,,,,,,,,,,,,,,,,,,,,,,,,,,,,,,,P034,fencog,1,Post,2022_Apr_14_1158,N-Back (New Version 2021),2021.1.4,119.9439142
Conditions/Version_1Pr/zeroback(1)_v1.xlsx,Rule: Press 'space' when you see the letter 'x' or 'X'.,r,None,,,,,0,0,0,0,0,1,1,1,,,,,,,,,,,,,,,,,,,,,,,,,,,,,,,,,,,,,,,,,,,1.915,131.9443421,None,133.8684584,None,None,1,133.8684584,None,135.8681428,None,,,,,,,,,,,,,,,,,,,,,,,,,,,,,,,,P034,fencog,1,Post,2022_Apr_14_1158,N-Back (New Version 2021),2021.1.4,119.9439142
Conditions/Version_1Pr/zeroback(1)_v1.xlsx,Rule: Press 'space' when you see the letter 'x' or 'X'.,X,space,,,,,0,0,0,0,0,2,2,2,,,,,,,,,,,,,,,,,,,,,,,,,,,,,,,,,,,,,,,,,,,1.09,137.3677482,None,138.4618073,None,space,1,138.4618073,None,138.9363024,None,0.4593609,,,,,,,,,,,,,,,,,,,,,,,,,,,,,,,P034,fencog,1,Post,2022_Apr_14_1158,N-Back (New Version 2021),2021.1.4,119.9439142
Conditions/Version_1Pr/zeroback(1)_v1.xlsx,Rule: Press 'space' when you see the letter 'x' or 'X'.,p,None,,,,,0,0,0,0,0,3,3,3,,,,,,,,,,,,,,,,,,,,,,,,,,,,,,,,,,,,,,,,,,,1.715,140.4418161,None,142.1596412,None,None,1,142.1596412,None,144.1657009,None,,,,,,,,,,,,,,,,,,,,,,,,,,,,,,,,P034,fencog,1,Post,2022_Apr_14_1158,N-Back (New Version 2021),2021.1.4,119.9439142
Conditions/Version_1Pr/zeroback(1)_v1.xlsx,Rule: Press 'space' when you see the letter 'x' or 'X'.,w,None,,,,,0,0,0,0,0,4,4,4,,,,,,,,,,,,,,,,,,,,,,,,,,,,,,,,,,,,,,,,,,,1.14,145.6653178,None,146.8064467,None,None,1,146.8064467,None,148.8060511,None,,,,,,,,,,,,,,,,,,,,,,,,,,,,,,,,P034,fencog,1,Post,2022_Apr_14_1158,N-Back (New Version 2021),2021.1.4,119.9439142
Conditions/Version_1Pr/zeroback(1)_v1.xlsx,Rule: Press 'space' when you see the letter 'x' or 'X'.,e,None,,,,,0,0,0,0,0,5,5,5,,,,,,,,,,,,,,,,,,,,,,,,,,,,,,,,,,,,,,,,,,,1.765,150.3092868,None,152.0815491,None,None,1,152.0815491,None,154.0840616,None,,,,,,,,,,,,,,,,,,,,,,,,,,,,,,,,P034,fencog,1,Post,2022_Apr_14_1158,N-Back (New Version 2021),2021.1.4,119.9439142
Conditions/Version_1Pr/zeroback(1)_v1.xlsx,Rule: Press 'space' when you see the letter 'x' or 'X'.,X,space,,,,,0,0,0,0,0,6,6,6,,,,,,,,,,,,,,,,,,,,,,,,,,,,,,,,,,,,,,,,,,,1.515,155.5873725,None,157.1043625,None,space,1,157.1043625,None,157.7204796,None,0.6009719,,,,,,,,,,,,,,,,,,,,,,,,,,,,,,,P034,fencog,1,Post,2022_Apr_14_1158,N-Back (New Version 2021),2021.1.4,119.9439142
Conditions/Version_1Pr/zeroback(1)_v1.xlsx,Rule: Press 'space' when you see the letter 'x' or 'X'.,x,space,,,,,0,0,0,0,0,7,7,7,,,,,,,,,,,,,,,,,,,,,,,,,,,,,,,,,,,,,,,,,,,1.565,159.2223596,None,160.8015503,None,space,1,160.8015503,None,161.6528021,None,0.8398759,,,,,,,,,,,,,,,,,,,,,,,,,,,,,,,P034,fencog,1,Post,2022_Apr_14_1158,N-Back (New Version 2021),2021.1.4,119.9439142
Conditions/Version_1Pr/zeroback(1)_v1.xlsx,Rule: Press 'space' when you see the letter 'x' or 'X'.,p,None,,,,,0,0,0,0,0,8,8,8,,,,,,,,,,,,,,,,,,,,,,,,,,,,,,,,,,,,,,,,,,,1.89,163.1518449,None,165.0435892,None,space,0,165.0435892,None,165.4981227,None,0.437679,,,,,,,,,,,,,,,,,,,,,,,,,,,,,,,P034,fencog,1,Post,2022_Apr_14_1158,N-Back (New Version 2021),2021.1.4,119.9439142
Conditions/Version_1Pr/zeroback(1)_v1.xlsx,Rule: Press 'space' when you see the letter 'x' or 'X'.,r,None,,,,,0,0,0,0,0,9,9,9,,,,,,,,,,,,,,,,,,,,,,,,,,,,,,,,,,,,,,,,,,,1.065,167.0006866,None,168.0668165,None,None,1,168.0668165,None,170.06792,None,,,,,,,,,,,,,,,,,,,,,,,,,,,,,,,,P034,fencog,1,Post,2022_Apr_14_1158,N-Back (New Version 2021),2021.1.4,119.9439142
Conditions/Version_1Pr/zeroback(1)_v1.xlsx,Rule: Press 'space' when you see the letter 'x' or 'X'.,,,,,,,0,0,0,0,,,,,,,,,,,,,,,,,,,,,,,,,,,,,,,,,,,,,,,,,,,,,,,,,,,,,,,,,,,,,,,,,,,,,,,,,,,,,,,,,,,,,,,,,P034,fencog,1,Post,2022_Apr_14_1158,N-Back (New Version 2021),2021.1.4,119.9439142
Conditions/Version_1Pr/oneback(1)_v1.xlsx,New rule: Press 'space' when you see 1-back (i.e. the same letter as the one that appeared 1 letter ago.),a,None,,,,,0,1,1,1,0,0,0,0,,,,,,,,,,,,,,,,,,,,,,,,,,,,,,,,,171.6068138,None,174.5921787,None,space,3.1609071,174.5921787,None,171.6068138,None,1.215,177.7835615,None,179.0081085,None,None,1,179.0081085,None,181.0131603,None,,,,,,,,,,,,,,,,,,,,,,,,,,,,,,,,P034,fencog,1,Post,2022_Apr_14_1158,N-Back (New Version 2021),2021.1.4,119.9439142
Conditions/Version_1Pr/oneback(1)_v1.xlsx,New rule: Press 'space' when you see 1-back (i.e. the same letter as the one that appeared 1 letter ago.),x,None,,,,,0,1,1,1,0,1,1,1,,,,,,,,,,,,,,,,,,,,,,,,,,,,,,,,,,,,,,,,,,,1.79,182.5126516,None,184.3074583,None,None,1,184.3074583,None,186.3116288,None,,,,,,,,,,,,,,,,,,,,,,,,,,,,,,,,P034,fencog,1,Post,2022_Apr_14_1158,N-Back (New Version 2021),2021.1.4,119.9439142
Conditions/Version_1Pr/oneback(1)_v1.xlsx,New rule: Press 'space' when you see 1-back (i.e. the same letter as the one that appeared 1 letter ago.),g,None,,,,,0,1,1,1,0,2,2,2,,,,,,,,,,,,,,,,,,,,,,,,,,,,,,,,,,,,,,,,,,,1.74,187.8112151,None,189.5528362,None,None,1,189.5528362,None,191.5564305,None,,,,,,,,,,,,,,,,,,,,,,,,,,,,,,,,P034,fencog,1,Post,2022_Apr_14_1158,N-Back (New Version 2021),2021.1.4,119.9439142
Conditions/Version_1Pr/oneback(1)_v1.xlsx,New rule: Press 'space' when you see 1-back (i.e. the same letter as the one that appeared 1 letter ago.),G,space,,,,,0,1,1,1,0,3,3,3,,,,,,,,,,,,,,,,,,,,,,,,,,,,,,,,,,,,,,,,,,,1.915,193.059592,None,194.9773128,None,space,1,194.9773128,None,195.359356,None,0.3678442,,,,,,,,,,,,,,,,,,,,,,,,,,,,,,,P034,fencog,1,Post,2022_Apr_14_1158,N-Back (New Version 2021),2021.1.4,119.9439142
Conditions/Version_1Pr/oneback(1)_v1.xlsx,New rule: Press 'space' when you see 1-back (i.e. the same letter as the one that appeared 1 letter ago.),u,None,,,,,0,1,1,1,0,4,4,4,,,,,,,,,,,,,,,,,,,,,,,,,,,,,,,,,,,,,,,,,,,1.04,196.8583877,None,197.9013702,None,None,1,197.9013702,None,199.907238,None,,,,,,,,,,,,,,,,,,,,,,,,,,,,,,,,P034,fencog,1,Post,2022_Apr_14_1158,N-Back (New Version 2021),2021.1.4,119.9439142
Conditions/Version_1Pr/oneback(1)_v1.xlsx,New rule: Press 'space' when you see 1-back (i.e. the same letter as the one that appeared 1 letter ago.),y,None,,,,,0,1,1,1,0,5,5,5,,,,,,,,,,,,,,,,,,,,,,,,,,,,,,,,,,,,,,,,,,,1.24,201.4072405,None,202.6535286,None,None,1,202.6535286,None,204.6558775,None,,,,,,,,,,,,,,,,,,,,,,,,,,,,,,,,P034,fencog,1,Post,2022_Apr_14_1158,N-Back (New Version 2021),2021.1.4,119.9439142
Conditions/Version_1Pr/oneback(1)_v1.xlsx,New rule: Press 'space' when you see 1-back (i.e. the same letter as the one that appeared 1 letter ago.),y,space,,,,,0,1,1,1,0,6,6,6,,,,,,,,,,,,,,,,,,,,,,,,,,,,,,,,,,,,,,,,,,,1.64,206.1557881,None,207.7976071,None,space,1,207.7976071,None,208.4716763,None,0.6597081,,,,,,,,,,,,,,,,,,,,,,,,,,,,,,,P034,fencog,1,Post,2022_Apr_14_1158,N-Back (New Version 2021),2021.1.4,119.9439142
Conditions/Version_1Pr/oneback(1)_v1.xlsx,New rule: Press 'space' when you see 1-back (i.e. the same letter as the one that appeared 1 letter ago.),k,None,,,,,0,1,1,1,0,7,7,7,,,,,,,,,,,,,,,,,,,,,,,,,,,,,,,,,,,,,,,,,,,1.115,209.9712789,None,211.0893135,None,None,1,211.0893135,None,213.0953172,None,,,,,,,,,,,,,,,,,,,,,,,,,,,,,,,,P034,fencog,1,Post,2022_Apr_14_1158,N-Back (New Version 2021),2021.1.4,119.9439142
Conditions/Version_1Pr/oneback(1)_v1.xlsx,New rule: Press 'space' when you see 1-back (i.e. the same letter as the one that appeared 1 letter ago.),c,None,,,,,0,1,1,1,0,8,8,8,,,,,,,,,,,,,,,,,,,,,,,,,,,,,,,,,,,,,,,,,,,1.465,214.5948622,None,216.0626489,None,space,0,216.0626489,None,216.4243983,None,0.3463668,,,,,,,,,,,,,,,,,,,,,,,,,,,,,,,P034,fencog,1,Post,2022_Apr_14_1158,N-Back (New Version 2021),2021.1.4,119.9439142
Conditions/Version_1Pr/oneback(1)_v1.xlsx,New rule: Press 'space' when you see 1-back (i.e. the same letter as the one that appeared 1 letter ago.),r,None,,,,,0,1,1,1,0,9,9,9,,,,,,,,,,,,,,,,,,,,,,,,,,,,,,,,,,,,,,,,,,,1.615,217.9272875,None,219.5451647,None,None,1,219.5451647,None,221.551063,None,,,,,,,,,,,,,,,,,,,,,,,,,,,,,,,,P034,fencog,1,Post,2022_Apr_14_1158,N-Back (New Version 2021),2021.1.4,119.9439142
Conditions/Version_1Pr/oneback(1)_v1.xlsx,New rule: Press 'space' when you see 1-back (i.e. the same letter as the one that appeared 1 letter ago.),,,,,,,0,1,1,1,,,,,,,,,,,,,,,,,,,,,,,,,,,,,,,,,,,,,,,,,,,,,,,,,,,,,,,,,,,,,,,,,,,,,,,,,,,,,,,,,,,,,,,,,P034,fencog,1,Post,2022_Apr_14_1158,N-Back (New Version 2021),2021.1.4,119.9439142
Conditions/Version_1Pr/twoback(1)_v1.xlsx,New rule: Press 'space' when you see 2-back (i.e. the same letter as the one that appeared 2 letters ago.),E,None,,,,,0,2,2,2,0,0,0,0,,,,,,,,,,,,,,,,,,,,,,,,,,,,,,,,,223.0735509,None,226.0621065,None,space,0.6909349,226.0621065,None,223.0735509,None,1.14,226.77969,None,227.9279842,None,None,1,227.9279842,None,229.9327523,None,,,,,,,,,,,,,,,,,,,,,,,,,,,,,,,,P034,fencog,1,Post,2022_Apr_14_1158,N-Back (New Version 2021),2021.1.4,119.9439142
Conditions/Version_1Pr/twoback(1)_v1.xlsx,New rule: Press 'space' when you see 2-back (i.e. the same letter as the one that appeared 2 letters ago.),p,None,,,,,0,2,2,2,0,1,1,1,,,,,,,,,,,,,,,,,,,,,,,,,,,,,,,,,,,,,,,,,,,1.665,231.4316044,None,233.0975347,None,None,1,233.0975347,None,235.0972193,None,,,,,,,,,,,,,,,,,,,,,,,,,,,,,,,,P034,fencog,1,Post,2022_Apr_14_1158,N-Back (New Version 2021),2021.1.4,119.9439142
Conditions/Version_1Pr/twoback(1)_v1.xlsx,New rule: Press 'space' when you see 2-back (i.e. the same letter as the one that appeared 2 letters ago.),e,space,,,,,0,2,2,2,0,2,2,2,,,,,,,,,,,,,,,,,,,,,,,,,,,,,,,,,,,,,,,,,,,1.915,236.5967215,None,238.5149462,None,space,1,238.5149462,None,238.9473936,None,0.4221779,,,,,,,,,,,,,,,,,,,,,,,,,,,,,,,P034,fencog,1,Post,2022_Apr_14_1158,N-Back (New Version 2021),2021.1.4,119.9439142
Conditions/Version_1Pr/twoback(1)_v1.xlsx,New rule: Press 'space' when you see 2-back (i.e. the same letter as the one that appeared 2 letters ago.),s,None,,,,,0,2,2,2,0,3,3,3,,,,,,,,,,,,,,,,,,,,,,,,,,,,,,,,,,,,,,,,,,,1.965,240.4536467,None,242.4202693,None,None,1,242.4202693,None,244.4192191,None,,,,,,,,,,,,,,,,,,,,,,,,,,,,,,,,P034,fencog,1,Post,2022_Apr_14_1158,N-Back (New Version 2021),2021.1.4,119.9439142
Conditions/Version_1Pr/twoback(1)_v1.xlsx,New rule: Press 'space' when you see 2-back (i.e. the same letter as the one that appeared 2 letters ago.),S,None,,,,,0,2,2,2,0,4,4,4,,,,,,,,,,,,,,,,,,,,,,,,,,,,,,,,,,,,,,,,,,,1.04,245.9216667,None,246.9714504,None,None,1,246.9714504,None,248.9764499,None,,,,,,,,,,,,,,,,,,,,,,,,,,,,,,,,P034,fencog,1,Post,2022_Apr_14_1158,N-Back (New Version 2021),2021.1.4,119.9439142
Conditions/Version_1Pr/twoback(1)_v1.xlsx,New rule: Press 'space' when you see 2-back (i.e. the same letter as the one that appeared 2 letters ago.),s,space,,,,,0,2,2,2,0,5,5,5,,,,,,,,,,,,,,,,,,,,,,,,,,,,,,,,,,,,,,,,,,,1.39,250.4760231,None,251.8669963,None,space,1,251.8669963,None,252.2520259,None,0.3741368,,,,,,,,,,,,,,,,,,,,,,,,,,,,,,,P034,fencog,1,Post,2022_Apr_14_1158,N-Back (New Version 2021),2021.1.4,119.9439142
Conditions/Version_1Pr/twoback(1)_v1.xlsx,New rule: Press 'space' when you see 2-back (i.e. the same letter as the one that appeared 2 letters ago.),P,None,,,,,0,2,2,2,0,6,6,6,,,,,,,,,,,,,,,,,,,,,,,,,,,,,,,,,,,,,,,,,,,1.89,253.7583055,None,255.6511114,None,None,1,255.6511114,None,257.6570999,None,,,,,,,,,,,,,,,,,,,,,,,,,,,,,,,,P034,fencog,1,Post,2022_Apr_14_1158,N-Back (New Version 2021),2021.1.4,119.9439142
Conditions/Version_1Pr/twoback(1)_v1.xlsx,New rule: Press 'space' when you see 2-back (i.e. the same letter as the one that appeared 2 letters ago.),C,None,,,,,0,2,2,2,0,7,7,7,,,,,,,,,,,,,,,,,,,,,,,,,,,,,,,,,,,,,,,,,,,1.165,259.1563532,None,260.3236217,None,None,1,260.3236217,None,262.3319967,None,,,,,,,,,,,,,,,,,,,,,,,,,,,,,,,,P034,fencog,1,Post,2022_Apr_14_1158,N-Back (New Version 2021),2021.1.4,119.9439142
Conditions/Version_1Pr/twoback(1)_v1.xlsx,New rule: Press 'space' when you see 2-back (i.e. the same letter as the one that appeared 2 letters ago.),x,None,,,,,0,2,2,2,0,8,8,8,,,,,,,,,,,,,,,,,,,,,,,,,,,,,,,,,,,,,,,,,,,1.09,263.8303184,None,264.9214913,None,None,1,264.9214913,None,266.9211126,None,,,,,,,,,,,,,,,,,,,,,,,,,,,,,,,,P034,fencog,1,Post,2022_Apr_14_1158,N-Back (New Version 2021),2021.1.4,119.9439142
Conditions/Version_1Pr/twoback(1)_v1.xlsx,New rule: Press 'space' when you see 2-back (i.e. the same letter as the one that appeared 2 letters ago.),Z,None,,,,,0,2,2,2,0,9,9,9,,,,,,,,,,,,,,,,,,,,,,,,,,,,,,,,,,,,,,,,,,,1.565,268.4206446,None,269.9877896,None,None,1,269.9877896,None,271.994605,None,,,,,,,,,,,,,,,,,,,,,,,,,,,,,,,,P034,fencog,1,Post,2022_Apr_14_1158,N-Back (New Version 2021),2021.1.4,119.9439142
Conditions/Version_1Pr/twoback(1)_v1.xlsx,New rule: Press 'space' when you see 2-back (i.e. the same letter as the one that appeared 2 letters ago.),,,,,,,0,2,2,2,,,,,,,,,,,,,,,,,,,,,,,,,,,,,,,,,,,,,,,,,,,,,,,,,,,,,,,,,,,,,,,,,,,,,,,,,,,,,,,,,,,,,,,,,P034,fencog,1,Post,2022_Apr_14_1158,N-Back (New Version 2021),2021.1.4,119.9439142
Conditions/Version_1Pr/threeback(1)_v1.xlsx,New rule: Press 'space' when you see 3-back (i.e. the same letter as the one that appeared 3 letters ago.),r,None,,,,,0,3,3,3,0,0,0,0,,,,,,,,,,,,,,,,,,,,,,,,,,,,,,,,,273.5127516,None,276.5043619,None,space,0.1528518,276.5043619,None,273.5127516,None,1.115,276.6891636,None,277.8131035,None,None,1,277.8131035,None,279.8173605,None,,,,,,,,,,,,,,,,,,,,,,,,,,,,,,,,P034,fencog,1,Post,2022_Apr_14_1158,N-Back (New Version 2021),2021.1.4,119.9439142
Conditions/Version_1Pr/threeback(1)_v1.xlsx,New rule: Press 'space' when you see 3-back (i.e. the same letter as the one that appeared 3 letters ago.),a,None,,,,,0,3,3,3,0,1,1,1,,,,,,,,,,,,,,,,,,,,,,,,,,,,,,,,,,,,,,,,,,,1.765,281.316869,None,283.0845764,None,None,1,283.0845764,None,285.0907583,None,,,,,,,,,,,,,,,,,,,,,,,,,,,,,,,,P034,fencog,1,Post,2022_Apr_14_1158,N-Back (New Version 2021),2021.1.4,119.9439142
Conditions/Version_1Pr/threeback(1)_v1.xlsx,New rule: Press 'space' when you see 3-back (i.e. the same letter as the one that appeared 3 letters ago.),t,None,,,,,0,3,3,3,0,2,2,2,,,,,,,,,,,,,,,,,,,,,,,,,,,,,,,,,,,,,,,,,,,1.29,286.5902054,None,287.8833044,None,None,1,287.8833044,None,289.8892358,None,,,,,,,,,,,,,,,,,,,,,,,,,,,,,,,,P034,fencog,1,Post,2022_Apr_14_1158,N-Back (New Version 2021),2021.1.4,119.9439142
Conditions/Version_1Pr/threeback(1)_v1.xlsx,New rule: Press 'space' when you see 3-back (i.e. the same letter as the one that appeared 3 letters ago.),r,space,,,,,0,3,3,3,0,3,3,3,,,,,,,,,,,,,,,,,,,,,,,,,,,,,,,,,,,,,,,,,,,1.69,291.3888692,None,293.0821418,None,space,1,293.0821418,None,293.423448,None,0.3274441,,,,,,,,,,,,,,,,,,,,,,,,,,,,,,,P034,fencog,1,Post,2022_Apr_14_1158,N-Back (New Version 2021),2021.1.4,119.9439142
Conditions/Version_1Pr/threeback(1)_v1.xlsx,New rule: Press 'space' when you see 3-back (i.e. the same letter as the one that appeared 3 letters ago.),a,None,,,,,0,3,3,3,0,4,4,4,,,,,,,,,,,,,,,,,,,,,,,,,,,,,,,,,,,,,,,,,,,1.865,294.9306831,None,296.7987519,None,space,0,296.7987519,None,297.3901946,None,0.5781411,,,,,,,,,,,,,,,,,,,,,,,,,,,,,,,P034,fencog,1,Post,2022_Apr_14_1158,N-Back (New Version 2021),2021.1.4,119.9439142
Conditions/Version_1Pr/threeback(1)_v1.xlsx,New rule: Press 'space' when you see 3-back (i.e. the same letter as the one that appeared 3 letters ago.),Y,None,,,,,0,3,3,3,0,5,5,5,,,,,,,,,,,,,,,,,,,,,,,,,,,,,,,,,,,,,,,,,,,1.715,298.8949826,None,300.6150656,None,None,1,300.6150656,None,302.618823,None,,,,,,,,,,,,,,,,,,,,,,,,,,,,,,,,P034,fencog,1,Post,2022_Apr_14_1158,N-Back (New Version 2021),2021.1.4,119.9439142
Conditions/Version_1Pr/threeback(1)_v1.xlsx,New rule: Press 'space' when you see 3-back (i.e. the same letter as the one that appeared 3 letters ago.),q,None,,,,,0,3,3,3,0,6,6,6,,,,,,,,,,,,,,,,,,,,,,,,,,,,,,,,,,,,,,,,,,,1.965,304.1184369,None,306.0937997,None,None,1,306.0937997,None,308.0905766,None,,,,,,,,,,,,,,,,,,,,,,,,,,,,,,,,P034,fencog,1,Post,2022_Apr_14_1158,N-Back (New Version 2021),2021.1.4,119.9439142
Conditions/Version_1Pr/threeback(1)_v1.xlsx,New rule: Press 'space' when you see 3-back (i.e. the same letter as the one that appeared 3 letters ago.),A,space,,,,,0,3,3,3,0,7,7,7,,,,,,,,,,,,,,,,,,,,,,,,,,,,,,,,,,,,,,,,,,,1.365,309.5929049,None,310.9592098,None,None,0,310.9592098,None,312.9696372,None,,,,,,,,,,,,,,,,,,,,,,,,,,,,,,,,P034,fencog,1,Post,2022_Apr_14_1158,N-Back (New Version 2021),2021.1.4,119.9439142
Conditions/Version_1Pr/threeback(1)_v1.xlsx,New rule: Press 'space' when you see 3-back (i.e. the same letter as the one that appeared 3 letters ago.),y,None,,,,,0,3,3,3,0,8,8,8,,,,,,,,,,,,,,,,,,,,,,,,,,,,,,,,,,,,,,,,,,,1.99,314.4659974,None,316.4573605,None,None,1,316.4573605,None,318.4653985,None,,,,,,,,,,,,,,,,,,,,,,,,,,,,,,,,P034,fencog,1,Post,2022_Apr_14_1158,N-Back (New Version 2021),2021.1.4,119.9439142
Conditions/Version_1Pr/threeback(1)_v1.xlsx,New rule: Press 'space' when you see 3-back (i.e. the same letter as the one that appeared 3 letters ago.),r,None,,,,,0,3,3,3,0,9,9,9,,,,,,,,,,,,,,,,,,,,,,,,,,,,,,,,,,,,,,,,,,,1.39,319.9651448,None,321.3549383,None,None,1,321.3549383,None,323.3536141,None,,,,,,,,,,,,,,,,,,,,,,,,,,,,,,,,P034,fencog,1,Post,2022_Apr_14_1158,N-Back (New Version 2021),2021.1.4,119.9439142
Conditions/Version_1Pr/threeback(1)_v1.xlsx,New rule: Press 'space' when you see 3-back (i.e. the same letter as the one that appeared 3 letters ago.),,,,,,,0,3,3,3,,,,,,,,,,,,,,,,,,,,,,,,,,,,,,,,,,,,,,,,,,,,,,,,,,,,,,,,,,,,,,,,,,,,,,,,,,,,,,,,,,,,,,,,,P034,fencog,1,Post,2022_Apr_14_1158,N-Back (New Version 2021),2021.1.4,119.9439142
,,,,,,,,,,,,,,,,,,,,,,,,,,,,,,,,,,,,,,,,,,,,,,,,,,,,,,,,,,,,,,,,,,,,,,324.8634497,None,space,0.7510789,325.3540193,None,,,,,,,,,,,,,,,,,,,,,,,,,P034,fencog,1,Post,2022_Apr_14_1158,N-Back (New Version 2021),2021.1.4,119.9439142
,,,,,,,,,,,,,,,,,,,,,,,,,,,,,,,,,,,,,,,,,,,,,,,,,,,,,,,,,,,,,,,,,,,,,,,,,,,,326.1268191,None,space,2.0922534,326.620723,None,,,,,,,,,,,,,,,,,,,P034,fencog,1,Post,2022_Apr_14_1158,N-Back (New Version 2021),2021.1.4,119.9439142
,,,,Conditions/Version_1/zeroback(1)_v1.xlsx,Rule: Press 'space' when you see the letter 'x' or 'X'.,b,None,,,,,,,,,0,0,0,0,0,0,0,0,,,,,,,,,,,,,,,,,,,,,,,,,,,,,,,,,,,,,,,,,,,,,,,,,,,,,,,,,,,328.8287873,None,331.8202812,None,space,0.5089763,331.8202812,None,328.8287873,None,1.134,333.5072593,None,None,1,333.5072593,None,,P034,fencog,1,Post,2022_Apr_14_1158,N-Back (New Version 2021),2021.1.4,119.9439142
,,,,Conditions/Version_1/zeroback(1)_v1.xlsx,Rule: Press 'space' when you see the letter 'x' or 'X'.,T,None,,,,,,,,,0,0,0,0,0,1,1,1,,,,,,,,,,,,,,,,,,,,,,,,,,,,,,,,,,,,,,,,,,,,,,,,,,,,,,,,,,,,,,,,,,,,,1.4936,337.0005456,None,None,1,337.0005456,None,,P034,fencog,1,Post,2022_Apr_14_1158,N-Back (New Version 2021),2021.1.4,119.9439142
,,,,Conditions/Version_1/zeroback(1)_v1.xlsx,Rule: Press 'space' when you see the letter 'x' or 'X'.,L,None,,,,,,,,,0,0,0,0,0,2,2,2,,,,,,,,,,,,,,,,,,,,,,,,,,,,,,,,,,,,,,,,,,,,,,,,,,,,,,,,,,,,,,,,,,,,,1.103,340.1126291,None,None,1,340.1126291,None,,P034,fencog,1,Post,2022_Apr_14_1158,N-Back (New Version 2021),2021.1.4,119.9439142
,,,,Conditions/Version_1/zeroback(1)_v1.xlsx,Rule: Press 'space' when you see the letter 'x' or 'X'.,x,space,,,,,,,,,0,0,0,0,0,3,3,3,,,,,,,,,,,,,,,,,,,,,,,,,,,,,,,,,,,,,,,,,,,,,,,,,,,,,,,,,,,,,,,,,,,,,1.5804,343.7019305,None,space,1,343.7019305,None,1.0749129,P034,fencog,1,Post,2022_Apr_14_1158,N-Back (New Version 2021),2021.1.4,119.9439142
,,,,Conditions/Version_1/zeroback(1)_v1.xlsx,Rule: Press 'space' when you see the letter 'x' or 'X'.,o,None,,,,,,,,,0,0,0,0,0,4,4,4,,,,,,,,,,,,,,,,,,,,,,,,,,,,,,,,,,,,,,,,,,,,,,,,,,,,,,,,,,,,,,,,,,,,,1.568,347.2813134,None,None,1,347.2813134,None,,P034,fencog,1,Post,2022_Apr_14_1158,N-Back (New Version 2021),2021.1.4,119.9439142
,,,,Conditions/Version_1/zeroback(1)_v1.xlsx,Rule: Press 'space' when you see the letter 'x' or 'X'.,P,None,,,,,,,,,0,0,0,0,0,5,5,5,,,,,,,,,,,,,,,,,,,,,,,,,,,,,,,,,,,,,,,,,,,,,,,,,,,,,,,,,,,,,,,,,,,,,1.9028,351.1971893,None,None,1,351.1971893,None,,P034,fencog,1,Post,2022_Apr_14_1158,N-Back (New Version 2021),2021.1.4,119.9439142
,,,,Conditions/Version_1/zeroback(1)_v1.xlsx,Rule: Press 'space' when you see the letter 'x' or 'X'.,X,space,,,,,,,,,0,0,0,0,0,6,6,6,,,,,,,,,,,,,,,,,,,,,,,,,,,,,,,,,,,,,,,,,,,,,,,,,,,,,,,,,,,,,,,,,,,,,1.0844,354.3029028,None,space,1,354.3029028,None,0.4341825,P034,fencog,1,Post,2022_Apr_14_1158,N-Back (New Version 2021),2021.1.4,119.9439142
,,,,Conditions/Version_1/zeroback(1)_v1.xlsx,Rule: Press 'space' when you see the letter 'x' or 'X'.,n,None,,,,,,,,,0,0,0,0,0,7,7,7,,,,,,,,,,,,,,,,,,,,,,,,,,,,,,,,,,,,,,,,,,,,,,,,,,,,,,,,,,,,,,,,,,,,,1.0534,357.3691098,None,None,1,357.3691098,None,,P034,fencog,1,Post,2022_Apr_14_1158,N-Back (New Version 2021),2021.1.4,119.9439142
,,,,Conditions/Version_1/zeroback(1)_v1.xlsx,Rule: Press 'space' when you see the letter 'x' or 'X'.,M,None,,,,,,,,,0,0,0,0,0,8,8,8,,,,,,,,,,,,,,,,,,,,,,,,,,,,,,,,,,,,,,,,,,,,,,,,,,,,,,,,,,,,,,,,,,,,,1.9896,361.3613358,None,None,1,361.3613358,None,,P034,fencog,1,Post,2022_Apr_14_1158,N-Back (New Version 2021),2021.1.4,119.9439142
,,,,Conditions/Version_1/zeroback(1)_v1.xlsx,Rule: Press 'space' when you see the letter 'x' or 'X'.,a,None,,,,,,,,,0,0,0,0,0,9,9,9,,,,,,,,,,,,,,,,,,,,,,,,,,,,,,,,,,,,,,,,,,,,,,,,,,,,,,,,,,,,,,,,,,,,,1.413,364.7835856,None,None,1,364.7835856,None,,P034,fencog,1,Post,2022_Apr_14_1158,N-Back (New Version 2021),2021.1.4,119.9439142
,,,,Conditions/Version_1/zeroback(1)_v1.xlsx,Rule: Press 'space' when you see the letter 'x' or 'X'.,,,,,,,,,,,0,0,0,0,,,,,,,,,,,,,,,,,,,,,,,,,,,,,,,,,,,,,,,,,,,,,,,,,,,,,,,,,,,,,,,,,,,,,,,,,,,,,,,,,P034,fencog,1,Post,2022_Apr_14_1158,N-Back (New Version 2021),2021.1.4,119.9439142
,,,,Conditions/Version_1/oneback(1)_v1.xlsx,New rule: Press 'space' when you see 1-back (i.e. the same letter as the one that appeared 1 letter ago.),b,None,,,,,,,,,0,1,1,1,0,0,0,0,,,,,,,,,,,,,,,,,,,,,,,,,,,,,,,,,,,,,,,,,,,,,,,,,,,,,,,,,,,366.8163506,None,369.7928525,None,space,0.7682634,369.7928525,None,366.8163506,None,1.537,372.1242229,None,None,1,372.1242229,None,,P034,fencog,1,Post,2022_Apr_14_1158,N-Back (New Version 2021),2021.1.4,119.9439142
,,,,Conditions/Version_1/oneback(1)_v1.xlsx,New rule: Press 'space' when you see 1-back (i.e. the same letter as the one that appeared 1 letter ago.),p,None,,,,,,,,,0,1,1,1,0,1,1,1,,,,,,,,,,,,,,,,,,,,,,,,,,,,,,,,,,,,,,,,,,,,,,,,,,,,,,,,,,,,,,,,,,,,,1.072,375.2059286,None,None,1,375.2059286,None,,P034,fencog,1,Post,2022_Apr_14_1158,N-Back (New Version 2021),2021.1.4,119.9439142
,,,,Conditions/Version_1/oneback(1)_v1.xlsx,New rule: Press 'space' when you see 1-back (i.e. the same letter as the one that appeared 1 letter ago.),M,None,,,,,,,,,0,1,1,1,0,2,2,2,,,,,,,,,,,,,,,,,,,,,,,,,,,,,,,,,,,,,,,,,,,,,,,,,,,,,,,,,,,,,,,,,,,,,1.4068,378.6136406,None,None,1,378.6136406,None,,P034,fencog,1,Post,2022_Apr_14_1158,N-Back (New Version 2021),2021.1.4,119.9439142
,,,,Conditions/Version_1/oneback(1)_v1.xlsx,New rule: Press 'space' when you see 1-back (i.e. the same letter as the one that appeared 1 letter ago.),M,space,,,,,,,,,0,1,1,1,0,3,3,3,,,,,,,,,,,,,,,,,,,,,,,,,,,,,,,,,,,,,,,,,,,,,,,,,,,,,,,,,,,,,,,,,,,,,1.847,382.4703243,None,space,1,382.4703243,None,0.562816,P034,fencog,1,Post,2022_Apr_14_1158,N-Back (New Version 2021),2021.1.4,119.9439142
,,,,Conditions/Version_1/oneback(1)_v1.xlsx,New rule: Press 'space' when you see 1-back (i.e. the same letter as the one that appeared 1 letter ago.),n,None,,,,,,,,,0,1,1,1,0,4,4,4,,,,,,,,,,,,,,,,,,,,,,,,,,,,,,,,,,,,,,,,,,,,,,,,,,,,,,,,,,,,,,,,,,,,,1.1402,385.6118583,None,None,1,385.6118583,None,,P034,fencog,1,Post,2022_Apr_14_1158,N-Back (New Version 2021),2021.1.4,119.9439142
,,,,Conditions/Version_1/oneback(1)_v1.xlsx,New rule: Press 'space' when you see 1-back (i.e. the same letter as the one that appeared 1 letter ago.),g,None,,,,,,,,,0,1,1,1,0,5,5,5,,,,,,,,,,,,,,,,,,,,,,,,,,,,,,,,,,,,,,,,,,,,,,,,,,,,,,,,,,,,,,,,,,,,,1.9462,389.569136,None,None,1,389.569136,None,,P034,fencog,1,Post,2022_Apr_14_1158,N-Back (New Version 2021),2021.1.4,119.9439142
,,,,Conditions/Version_1/oneback(1)_v1.xlsx,New rule: Press 'space' when you see 1-back (i.e. the same letter as the one that appeared 1 letter ago.),P,None,,,,,,,,,0,1,1,1,0,6,6,6,,,,,,,,,,,,,,,,,,,,,,,,,,,,,,,,,,,,,,,,,,,,,,,,,,,,,,,,,,,,,,,,,,,,,1.6672,393.2502709,None,None,1,393.2502709,None,,P034,fencog,1,Post,2022_Apr_14_1158,N-Back (New Version 2021),2021.1.4,119.9439142
,,,,Conditions/Version_1/oneback(1)_v1.xlsx,New rule: Press 'space' when you see 1-back (i.e. the same letter as the one that appeared 1 letter ago.),o,None,,,,,,,,,0,1,1,1,0,7,7,7,,,,,,,,,,,,,,,,,,,,,,,,,,,,,,,,,,,,,,,,,,,,,,,,,,,,,,,,,,,,,,,,,,,,,1.8284,397.0823884,None,None,1,397.0823884,None,,P034,fencog,1,Post,2022_Apr_14_1158,N-Back (New Version 2021),2021.1.4,119.9439142
,,,,Conditions/Version_1/oneback(1)_v1.xlsx,New rule: Press 'space' when you see 1-back (i.e. the same letter as the one that appeared 1 letter ago.),f,None,,,,,,,,,0,1,1,1,0,8,8,8,,,,,,,,,,,,,,,,,,,,,,,,,,,,,,,,,,,,,,,,,,,,,,,,,,,,,,,,,,,,,,,,,,,,,1.0968,400.1846179,None,None,1,400.1846179,None,,P034,fencog,1,Post,2022_Apr_14_1158,N-Back (New Version 2021),2021.1.4,119.9439142
,,,,Conditions/Version_1/oneback(1)_v1.xlsx,New rule: Press 'space' when you see 1-back (i.e. the same letter as the one that appeared 1 letter ago.),F,space,,,,,,,,,0,1,1,1,0,9,9,9,,,,,,,,,,,,,,,,,,,,,,,,,,,,,,,,,,,,,,,,,,,,,,,,,,,,,,,,,,,,,,,,,,,,,1.382,403.573414,None,space,1,403.573414,None,0.4516574,P034,fencog,1,Post,2022_Apr_14_1158,N-Back (New Version 2021),2021.1.4,119.9439142
,,,,Conditions/Version_1/oneback(1)_v1.xlsx,New rule: Press 'space' when you see 1-back (i.e. the same letter as the one that appeared 1 letter ago.),,,,,,,,,,,0,1,1,1,,,,,,,,,,,,,,,,,,,,,,,,,,,,,,,,,,,,,,,,,,,,,,,,,,,,,,,,,,,,,,,,,,,,,,,,,,,,,,,,,P034,fencog,1,Post,2022_Apr_14_1158,N-Back (New Version 2021),2021.1.4,119.9439142
,,,,Conditions/Version_1/twoback(1)_v1.xlsx,New rule: Press 'space' when you see 2-back (i.e. the same letter as the one that appeared 2 letters ago.),b,None,,,,,,,,,0,2,2,2,0,0,0,0,,,,,,,,,,,,,,,,,,,,,,,,,,,,,,,,,,,,,,,,,,,,,,,,,,,,,,,,,,,405.6007416,None,408.5916947,None,space,3.7614825,408.5916947,None,405.6007416,None,1.5742,413.9524268,None,None,1,413.9524268,None,,P034,fencog,1,Post,2022_Apr_14_1158,N-Back (New Version 2021),2021.1.4,119.9439142
,,,,Conditions/Version_1/twoback(1)_v1.xlsx,New rule: Press 'space' when you see 2-back (i.e. the same letter as the one that appeared 2 letters ago.),h,None,,,,,,,,,0,2,2,2,0,1,1,1,,,,,,,,,,,,,,,,,,,,,,,,,,,,,,,,,,,,,,,,,,,,,,,,,,,,,,,,,,,,,,,,,,,,,1.1154,417.0725646,None,None,1,417.0725646,None,,P034,fencog,1,Post,2022_Apr_14_1158,N-Back (New Version 2021),2021.1.4,119.9439142
,,,,Conditions/Version_1/twoback(1)_v1.xlsx,New rule: Press 'space' when you see 2-back (i.e. the same letter as the one that appeared 2 letters ago.),j,None,,,,,,,,,0,2,2,2,0,2,2,2,,,,,,,,,,,,,,,,,,,,,,,,,,,,,,,,,,,,,,,,,,,,,,,,,,,,,,,,,,,,,,,,,,,,,1.7044,420.7876785,None,None,1,420.7876785,None,,P034,fencog,1,Post,2022_Apr_14_1158,N-Back (New Version 2021),2021.1.4,119.9439142
,,,,Conditions/Version_1/twoback(1)_v1.xlsx,New rule: Press 'space' when you see 2-back (i.e. the same letter as the one that appeared 2 letters ago.),H,space,,,,,,,,,0,2,2,2,0,3,3,3,,,,,,,,,,,,,,,,,,,,,,,,,,,,,,,,,,,,,,,,,,,,,,,,,,,,,,,,,,,,,,,,,,,,,1.816,424.6087395,None,space,1,424.6087395,None,0.5842763,P034,fencog,1,Post,2022_Apr_14_1158,N-Back (New Version 2021),2021.1.4,119.9439142
,,,,Conditions/Version_1/twoback(1)_v1.xlsx,New rule: Press 'space' when you see 2-back (i.e. the same letter as the one that appeared 2 letters ago.),p,None,,,,,,,,,0,2,2,2,0,4,4,4,,,,,,,,,,,,,,,,,,,,,,,,,,,,,,,,,,,,,,,,,,,,,,,,,,,,,,,,,,,,,,,,,,,,,1.878,428.4981968,None,None,1,428.4981968,None,,P034,fencog,1,Post,2022_Apr_14_1158,N-Back (New Version 2021),2021.1.4,119.9439142
,,,,Conditions/Version_1/twoback(1)_v1.xlsx,New rule: Press 'space' when you see 2-back (i.e. the same letter as the one that appeared 2 letters ago.),p,None,,,,,,,,,0,2,2,2,0,5,5,5,,,,,,,,,,,,,,,,,,,,,,,,,,,,,,,,,,,,,,,,,,,,,,,,,,,,,,,,,,,,,,,,,,,,,1.2704,431.7724327,None,None,1,431.7724327,None,,P034,fencog,1,Post,2022_Apr_14_1158,N-Back (New Version 2021),2021.1.4,119.9439142
,,,,Conditions/Version_1/twoback(1)_v1.xlsx,New rule: Press 'space' when you see 2-back (i.e. the same letter as the one that appeared 2 letters ago.),w,None,,,,,,,,,0,2,2,2,0,6,6,6,,,,,,,,,,,,,,,,,,,,,,,,,,,,,,,,,,,,,,,,,,,,,,,,,,,,,,,,,,,,,,,,,,,,,1.2828,435.0627463,None,None,1,435.0627463,None,,P034,fencog,1,Post,2022_Apr_14_1158,N-Back (New Version 2021),2021.1.4,119.9439142
,,,,Conditions/Version_1/twoback(1)_v1.xlsx,New rule: Press 'space' when you see 2-back (i.e. the same letter as the one that appeared 2 letters ago.),R,None,,,,,,,,,0,2,2,2,0,7,7,7,,,,,,,,,,,,,,,,,,,,,,,,,,,,,,,,,,,,,,,,,,,,,,,,,,,,,,,,,,,,,,,,,,,,,1.4688,438.5384315,None,None,1,438.5384315,None,,P034,fencog,1,Post,2022_Apr_14_1158,N-Back (New Version 2021),2021.1.4,119.9439142
,,,,Conditions/Version_1/twoback(1)_v1.xlsx,New rule: Press 'space' when you see 2-back (i.e. the same letter as the one that appeared 2 letters ago.),a,None,,,,,,,,,0,2,2,2,0,8,8,8,,,,,,,,,,,,,,,,,,,,,,,,,,,,,,,,,,,,,,,,,,,,,,,,,,,,,,,,,,,,,,,,,,,,,1.785,442.3362147,None,None,1,442.3362147,None,,P034,fencog,1,Post,2022_Apr_14_1158,N-Back (New Version 2021),2021.1.4,119.9439142
,,,,Conditions/Version_1/twoback(1)_v1.xlsx,New rule: Press 'space' when you see 2-back (i.e. the same letter as the one that appeared 2 letters ago.),r,space,,,,,,,,,0,2,2,2,0,9,9,9,,,,,,,,,,,,,,,,,,,,,,,,,,,,,,,,,,,,,,,,,,,,,,,,,,,,,,,,,,,,,,,,,,,,,1.9648,446.3008935,None,space,1,446.3008935,None,1.0999969,P034,fencog,1,Post,2022_Apr_14_1158,N-Back (New Version 2021),2021.1.4,119.9439142
,,,,Conditions/Version_1/twoback(1)_v1.xlsx,New rule: Press 'space' when you see 2-back (i.e. the same letter as the one that appeared 2 letters ago.),,,,,,,,,,,0,2,2,2,,,,,,,,,,,,,,,,,,,,,,,,,,,,,,,,,,,,,,,,,,,,,,,,,,,,,,,,,,,,,,,,,,,,,,,,,,,,,,,,,P034,fencog,1,Post,2022_Apr_14_1158,N-Back (New Version 2021),2021.1.4,119.9439142
,,,,Conditions/Version_1/threeback(1)_v1.xlsx,New rule: Press 'space' when you see 3-back (i.e. the same letter as the one that appeared 3 letters ago.),r,None,,,,,,,,,0,3,3,3,0,0,0,0,,,,,,,,,,,,,,,,,,,,,,,,,,,,,,,,,,,,,,,,,,,,,,,,,,,,,,,,,,,448.3235275,None,451.3101298,None,space,0.5867802,451.3101298,None,448.3235275,None,1.7106,453.6414092,None,None,1,453.6414092,None,,P034,fencog,1,Post,2022_Apr_14_1158,N-Back (New Version 2021),2021.1.4,119.9439142
,,,,Conditions/Version_1/threeback(1)_v1.xlsx,New rule: Press 'space' when you see 3-back (i.e. the same letter as the one that appeared 3 letters ago.),o,None,,,,,,,,,0,3,3,3,0,1,1,1,,,,,,,,,,,,,,,,,,,,,,,,,,,,,,,,,,,,,,,,,,,,,,,,,,,,,,,,,,,,,,,,,,,,,1.6982,457.3515758,None,None,1,457.3515758,None,,P034,fencog,1,Post,2022_Apr_14_1158,N-Back (New Version 2021),2021.1.4,119.9439142
,,,,Conditions/Version_1/threeback(1)_v1.xlsx,New rule: Press 'space' when you see 3-back (i.e. the same letter as the one that appeared 3 letters ago.),P,None,,,,,,,,,0,3,3,3,0,2,2,2,,,,,,,,,,,,,,,,,,,,,,,,,,,,,,,,,,,,,,,,,,,,,,,,,,,,,,,,,,,,,,,,,,,,,1.909,461.2635724,None,None,1,461.2635724,None,,P034,fencog,1,Post,2022_Apr_14_1158,N-Back (New Version 2021),2021.1.4,119.9439142
,,,,Conditions/Version_1/threeback(1)_v1.xlsx,New rule: Press 'space' when you see 3-back (i.e. the same letter as the one that appeared 3 letters ago.),R,space,,,,,,,,,0,3,3,3,0,3,3,3,,,,,,,,,,,,,,,,,,,,,,,,,,,,,,,,,,,,,,,,,,,,,,,,,,,,,,,,,,,,,,,,,,,,,1.444,464.712454,None,space,1,464.712454,None,0.7285631,P034,fencog,1,Post,2022_Apr_14_1158,N-Back (New Version 2021),2021.1.4,119.9439142
,,,,Conditions/Version_1/threeback(1)_v1.xlsx,New rule: Press 'space' when you see 3-back (i.e. the same letter as the one that appeared 3 letters ago.),p,None,,,,,,,,,0,3,3,3,0,4,4,4,,,,,,,,,,,,,,,,,,,,,,,,,,,,,,,,,,,,,,,,,,,,,,,,,,,,,,,,,,,,,,,,,,,,,1.9586,468.6696269,None,space,0,468.6696269,None,1.0673447,P034,fencog,1,Post,2022_Apr_14_1158,N-Back (New Version 2021),2021.1.4,119.9439142
,,,,Conditions/Version_1/threeback(1)_v1.xlsx,New rule: Press 'space' when you see 3-back (i.e. the same letter as the one that appeared 3 letters ago.),E,None,,,,,,,,,0,3,3,3,0,5,5,5,,,,,,,,,,,,,,,,,,,,,,,,,,,,,,,,,,,,,,,,,,,,,,,,,,,,,,,,,,,,,,,,,,,,,1.3882,472.060255,None,None,1,472.060255,None,,P034,fencog,1,Post,2022_Apr_14_1158,N-Back (New Version 2021),2021.1.4,119.9439142
,,,,Conditions/Version_1/threeback(1)_v1.xlsx,New rule: Press 'space' when you see 3-back (i.e. the same letter as the one that appeared 3 letters ago.),e,None,,,,,,,,,0,3,3,3,0,6,6,6,,,,,,,,,,,,,,,,,,,,,,,,,,,,,,,,,,,,,,,,,,,,,,,,,,,,,,,,,,,,,,,,,,,,,1.2456,475.3196911,None,space,0,475.3196911,None,0.8251243,P034,fencog,1,Post,2022_Apr_14_1158,N-Back (New Version 2021),2021.1.4,119.9439142
,,,,Conditions/Version_1/threeback(1)_v1.xlsx,New rule: Press 'space' when you see 3-back (i.e. the same letter as the one that appeared 3 letters ago.),m,None,,,,,,,,,0,3,3,3,0,7,7,7,,,,,,,,,,,,,,,,,,,,,,,,,,,,,,,,,,,,,,,,,,,,,,,,,,,,,,,,,,,,,,,,,,,,,1.4192,478.7559228,None,None,1,478.7559228,None,,P034,fencog,1,Post,2022_Apr_14_1158,N-Back (New Version 2021),2021.1.4,119.9439142
,,,,Conditions/Version_1/threeback(1)_v1.xlsx,New rule: Press 'space' when you see 3-back (i.e. the same letter as the one that appeared 3 letters ago.),n,None,,,,,,,,,0,3,3,3,0,8,8,8,,,,,,,,,,,,,,,,,,,,,,,,,,,,,,,,,,,,,,,,,,,,,,,,,,,,,,,,,,,,,,,,,,,,,1.9152,482.6743625,None,None,1,482.6743625,None,,P034,fencog,1,Post,2022_Apr_14_1158,N-Back (New Version 2021),2021.1.4,119.9439142
,,,,Conditions/Version_1/threeback(1)_v1.xlsx,New rule: Press 'space' when you see 3-back (i.e. the same letter as the one that appeared 3 letters ago.),e,space,,,,,,,,,0,3,3,3,0,9,9,9,,,,,,,,,,,,,,,,,,,,,,,,,,,,,,,,,,,,,,,,,,,,,,,,,,,,,,,,,,,,,,,,,,,,,1.4316,486.1169233,None,None,0,486.1169233,None,,P034,fencog,1,Post,2022_Apr_14_1158,N-Back (New Version 2021),2021.1.4,119.9439142
,,,,Conditions/Version_1/threeback(1)_v1.xlsx,New rule: Press 'space' when you see 3-back (i.e. the same letter as the one that appeared 3 letters ago.),,,,,,,,,,,0,3,3,3,,,,,,,,,,,,,,,,,,,,,,,,,,,,,,,,,,,,,,,,,,,,,,,,,,,,,,,,,,,,,,,,,,,,,,,,,,,,,,,,,P034,fencog,1,Post,2022_Apr_14_1158,N-Back (New Version 2021),2021.1.4,119.9439142
,,,,Conditions/Version_1/oneback(2)_v1.xlsx,New rule: Press 'space' when you see 1-back (i.e. the same letter as the one that appeared 1 letter ago.),q,None,,,,,,,,,0,4,4,4,0,0,0,0,,,,,,,,,,,,,,,,,,,,,,,,,,,,,,,,,,,,,,,,,,,,,,,,,,,,,,,,,,,488.145731,None,491.1319694,None,space,0.1569948,491.1319694,None,488.145731,None,1.2518,492.5635368,None,None,1,492.5635368,None,,P034,fencog,1,Post,2022_Apr_14_1158,N-Back (New Version 2021),2021.1.4,119.9439142
,,,,Conditions/Version_1/oneback(2)_v1.xlsx,New rule: Press 'space' when you see 1-back (i.e. the same letter as the one that appeared 1 letter ago.),Q,space,,,,,,,,,0,4,4,4,0,1,1,1,,,,,,,,,,,,,,,,,,,,,,,,,,,,,,,,,,,,,,,,,,,,,,,,,,,,,,,,,,,,,,,,,,,,,1.1774,495.7567868,None,space,1,495.7567868,None,0.5161597,P034,fencog,1,Post,2022_Apr_14_1158,N-Back (New Version 2021),2021.1.4,119.9439142
,,,,Conditions/Version_1/oneback(2)_v1.xlsx,New rule: Press 'space' when you see 1-back (i.e. the same letter as the one that appeared 1 letter ago.),P,None,,,,,,,,,0,4,4,4,0,2,2,2,,,,,,,,,,,,,,,,,,,,,,,,,,,,,,,,,,,,,,,,,,,,,,,,,,,,,,,,,,,,,,,,,,,,,1.8594,499.6278062,None,None,1,499.6278062,None,,P034,fencog,1,Post,2022_Apr_14_1158,N-Back (New Version 2021),2021.1.4,119.9439142
,,,,Conditions/Version_1/oneback(2)_v1.xlsx,New rule: Press 'space' when you see 1-back (i.e. the same letter as the one that appeared 1 letter ago.),o,None,,,,,,,,,0,4,4,4,0,3,3,3,,,,,,,,,,,,,,,,,,,,,,,,,,,,,,,,,,,,,,,,,,,,,,,,,,,,,,,,,,,,,,,,,,,,,1.1092,502.7429594,None,None,1,502.7429594,None,,P034,fencog,1,Post,2022_Apr_14_1158,N-Back (New Version 2021),2021.1.4,119.9439142
,,,,Conditions/Version_1/oneback(2)_v1.xlsx,New rule: Press 'space' when you see 1-back (i.e. the same letter as the one that appeared 1 letter ago.),m,None,,,,,,,,,0,4,4,4,0,4,4,4,,,,,,,,,,,,,,,,,,,,,,,,,,,,,,,,,,,,,,,,,,,,,,,,,,,,,,,,,,,,,,,,,,,,,1.971,506.7179984,None,None,1,506.7179984,None,,P034,fencog,1,Post,2022_Apr_14_1158,N-Back (New Version 2021),2021.1.4,119.9439142
,,,,Conditions/Version_1/oneback(2)_v1.xlsx,New rule: Press 'space' when you see 1-back (i.e. the same letter as the one that appeared 1 letter ago.),Z,None,,,,,,,,,0,4,4,4,0,5,5,5,,,,,,,,,,,,,,,,,,,,,,,,,,,,,,,,,,,,,,,,,,,,,,,,,,,,,,,,,,,,,,,,,,,,,1.3262,510.0585148,None,None,1,510.0585148,None,,P034,fencog,1,Post,2022_Apr_14_1158,N-Back (New Version 2021),2021.1.4,119.9439142
,,,,Conditions/Version_1/oneback(2)_v1.xlsx,New rule: Press 'space' when you see 1-back (i.e. the same letter as the one that appeared 1 letter ago.),c,None,,,,,,,,,0,4,4,4,0,6,6,6,,,,,,,,,,,,,,,,,,,,,,,,,,,,,,,,,,,,,,,,,,,,,,,,,,,,,,,,,,,,,,,,,,,,,1.8408,513.9083218,None,None,1,513.9083218,None,,P034,fencog,1,Post,2022_Apr_14_1158,N-Back (New Version 2021),2021.1.4,119.9439142
,,,,Conditions/Version_1/oneback(2)_v1.xlsx,New rule: Press 'space' when you see 1-back (i.e. the same letter as the one that appeared 1 letter ago.),c,space,,,,,,,,,0,4,4,4,0,7,7,7,,,,,,,,,,,,,,,,,,,,,,,,,,,,,,,,,,,,,,,,,,,,,,,,,,,,,,,,,,,,,,,,,,,,,1.4998,517.4134356,None,space,1,517.4134356,None,0.6834364,P034,fencog,1,Post,2022_Apr_14_1158,N-Back (New Version 2021),2021.1.4,119.9439142
,,,,Conditions/Version_1/oneback(2)_v1.xlsx,New rule: Press 'space' when you see 1-back (i.e. the same letter as the one that appeared 1 letter ago.),P,None,,,,,,,,,0,4,4,4,0,8,8,8,,,,,,,,,,,,,,,,,,,,,,,,,,,,,,,,,,,,,,,,,,,,,,,,,,,,,,,,,,,,,,,,,,,,,1.1278,520.5458611,None,None,1,520.5458611,None,,P034,fencog,1,Post,2022_Apr_14_1158,N-Back (New Version 2021),2021.1.4,119.9439142
,,,,Conditions/Version_1/oneback(2)_v1.xlsx,New rule: Press 'space' when you see 1-back (i.e. the same letter as the one that appeared 1 letter ago.),p,space,,,,,,,,,0,4,4,4,0,9,9,9,,,,,,,,,,,,,,,,,,,,,,,,,,,,,,,,,,,,,,,,,,,,,,,,,,,,,,,,,,,,,,,,,,,,,1.2952,523.8447598,None,space,1,523.8447598,None,0.6922534,P034,fencog,1,Post,2022_Apr_14_1158,N-Back (New Version 2021),2021.1.4,119.9439142
,,,,Conditions/Version_1/oneback(2)_v1.xlsx,New rule: Press 'space' when you see 1-back (i.e. the same letter as the one that appeared 1 letter ago.),,,,,,,,,,,0,4,4,4,,,,,,,,,,,,,,,,,,,,,,,,,,,,,,,,,,,,,,,,,,,,,,,,,,,,,,,,,,,,,,,,,,,,,,,,,,,,,,,,,P034,fencog,1,Post,2022_Apr_14_1158,N-Back (New Version 2021),2021.1.4,119.9439142
,,,,Conditions/Version_1/zeroback(2)_v1.xlsx,New rule: Press 'space' when you see the letter 'x' or 'X'.,p,None,,,,,,,,,0,5,5,5,0,0,0,0,,,,,,,,,,,,,,,,,,,,,,,,,,,,,,,,,,,,,,,,,,,,,,,,,,,,,,,,,,,525.8762138,None,528.8621661,None,space,5.6104782,528.8621661,None,525.8762138,None,1.7974,536.2996581,None,None,1,536.2996581,None,,P034,fencog,1,Post,2022_Apr_14_1158,N-Back (New Version 2021),2021.1.4,119.9439142
,,,,Conditions/Version_1/zeroback(2)_v1.xlsx,New rule: Press 'space' when you see the letter 'x' or 'X'.,L,None,,,,,,,,,0,5,5,5,0,1,1,1,,,,,,,,,,,,,,,,,,,,,,,,,,,,,,,,,,,,,,,,,,,,,,,,,,,,,,,,,,,,,,,,,,,,,1.8656,540.1650526,None,None,1,540.1650526,None,,P034,fencog,1,Post,2022_Apr_14_1158,N-Back (New Version 2021),2021.1.4,119.9439142
,,,,Conditions/Version_1/zeroback(2)_v1.xlsx,New rule: Press 'space' when you see the letter 'x' or 'X'.,G,None,,,,,,,,,0,5,5,5,0,2,2,2,,,,,,,,,,,,,,,,,,,,,,,,,,,,,,,,,,,,,,,,,,,,,,,,,,,,,,,,,,,,,,,,,,,,,1.196,543.3669311,None,None,1,543.3669311,None,,P034,fencog,1,Post,2022_Apr_14_1158,N-Back (New Version 2021),2021.1.4,119.9439142
,,,,Conditions/Version_1/zeroback(2)_v1.xlsx,New rule: Press 'space' when you see the letter 'x' or 'X'.,y,None,,,,,,,,,0,5,5,5,0,3,3,3,,,,,,,,,,,,,,,,,,,,,,,,,,,,,,,,,,,,,,,,,,,,,,,,,,,,,,,,,,,,,,,,,,,,,1.1402,546.5134318,None,None,1,546.5134318,None,,P034,fencog,1,Post,2022_Apr_14_1158,N-Back (New Version 2021),2021.1.4,119.9439142
,,,,Conditions/Version_1/zeroback(2)_v1.xlsx,New rule: Press 'space' when you see the letter 'x' or 'X'.,Y,None,,,,,,,,,0,5,5,5,0,4,4,4,,,,,,,,,,,,,,,,,,,,,,,,,,,,,,,,,,,,,,,,,,,,,,,,,,,,,,,,,,,,,,,,,,,,,1.4502,549.973124,None,space,0,549.973124,None,1.7477353,P034,fencog,1,Post,2022_Apr_14_1158,N-Back (New Version 2021),2021.1.4,119.9439142
,,,,Conditions/Version_1/zeroback(2)_v1.xlsx,New rule: Press 'space' when you see the letter 'x' or 'X'.,W,None,,,,,,,,,0,5,5,5,0,5,5,5,,,,,,,,,,,,,,,,,,,,,,,,,,,,,,,,,,,,,,,,,,,,,,,,,,,,,,,,,,,,,,,,,,,,,1.971,553.9543189,None,None,1,553.9543189,None,,P034,fencog,1,Post,2022_Apr_14_1158,N-Back (New Version 2021),2021.1.4,119.9439142
,,,,Conditions/Version_1/zeroback(2)_v1.xlsx,New rule: Press 'space' when you see the letter 'x' or 'X'.,x,space,,,,,,,,,0,5,5,5,0,6,6,6,,,,,,,,,,,,,,,,,,,,,,,,,,,,,,,,,,,,,,,,,,,,,,,,,,,,,,,,,,,,,,,,,,,,,1.5246,557.4851289,None,None,0,557.4851289,None,,P034,fencog,1,Post,2022_Apr_14_1158,N-Back (New Version 2021),2021.1.4,119.9439142
,,,,Conditions/Version_1/zeroback(2)_v1.xlsx,New rule: Press 'space' when you see the letter 'x' or 'X'.,X,space,,,,,,,,,0,5,5,5,0,7,7,7,,,,,,,,,,,,,,,,,,,,,,,,,,,,,,,,,,,,,,,,,,,,,,,,,,,,,,,,,,,,,,,,,,,,,1.3696,560.8601205,None,space,1,560.8601205,None,0.9085148,P034,fencog,1,Post,2022_Apr_14_1158,N-Back (New Version 2021),2021.1.4,119.9439142
,,,,Conditions/Version_1/zeroback(2)_v1.xlsx,New rule: Press 'space' when you see the letter 'x' or 'X'.,p,None,,,,,,,,,0,5,5,5,0,8,8,8,,,,,,,,,,,,,,,,,,,,,,,,,,,,,,,,,,,,,,,,,,,,,,,,,,,,,,,,,,,,,,,,,,,,,1.9896,564.8577911,None,None,1,564.8577911,None,,P034,fencog,1,Post,2022_Apr_14_1158,N-Back (New Version 2021),2021.1.4,119.9439142
,,,,Conditions/Version_1/zeroback(2)_v1.xlsx,New rule: Press 'space' when you see the letter 'x' or 'X'.,h,None,,,,,,,,,0,5,5,5,0,9,9,9,,,,,,,,,,,,,,,,,,,,,,,,,,,,,,,,,,,,,,,,,,,,,,,,,,,,,,,,,,,,,,,,,,,,,1.94,568.7983801,None,None,1,568.7983801,None,,P034,fencog,1,Post,2022_Apr_14_1158,N-Back (New Version 2021),2021.1.4,119.9439142
,,,,Conditions/Version_1/zeroback(2)_v1.xlsx,New rule: Press 'space' when you see the letter 'x' or 'X'.,,,,,,,,,,,0,5,5,5,,,,,,,,,,,,,,,,,,,,,,,,,,,,,,,,,,,,,,,,,,,,,,,,,,,,,,,,,,,,,,,,,,,,,,,,,,,,,,,,,P034,fencog,1,Post,2022_Apr_14_1158,N-Back (New Version 2021),2021.1.4,119.9439142
,,,,Conditions/Version_1/threeback(2)_v1.xlsx,New rule: Press 'space' when you see 3-back (i.e. the same letter as the one that appeared 3 letters ago.),q,None,,,,,,,,,0,6,6,6,0,0,0,0,,,,,,,,,,,,,,,,,,,,,,,,,,,,,,,,,,,,,,,,,,,,,,,,,,,,,,,,,,,570.8224094,None,573.8066897,None,space,0.6421505,573.8066897,None,570.8224094,None,1.7478,576.2210755,None,None,1,576.2210755,None,,P034,fencog,1,Post,2022_Apr_14_1158,N-Back (New Version 2021),2021.1.4,119.9439142
,,,,Conditions/Version_1/threeback(2)_v1.xlsx,New rule: Press 'space' when you see 3-back (i.e. the same letter as the one that appeared 3 letters ago.),Y,None,,,,,,,,,0,6,6,6,0,1,1,1,,,,,,,,,,,,,,,,,,,,,,,,,,,,,,,,,,,,,,,,,,,,,,,,,,,,,,,,,,,,,,,,,,,,,1.723,579.9450171,None,None,1,579.9450171,None,,P034,fencog,1,Post,2022_Apr_14_1158,N-Back (New Version 2021),2021.1.4,119.9439142
,,,,Conditions/Version_1/threeback(2)_v1.xlsx,New rule: Press 'space' when you see 3-back (i.e. the same letter as the one that appeared 3 letters ago.),p,None,,,,,,,,,0,6,6,6,0,2,2,2,,,,,,,,,,,,,,,,,,,,,,,,,,,,,,,,,,,,,,,,,,,,,,,,,,,,,,,,,,,,,,,,,,,,,1.0596,583.011174,None,None,1,583.011174,None,,P034,fencog,1,Post,2022_Apr_14_1158,N-Back (New Version 2021),2021.1.4,119.9439142
,,,,Conditions/Version_1/threeback(2)_v1.xlsx,New rule: Press 'space' when you see 3-back (i.e. the same letter as the one that appeared 3 letters ago.),p,None,,,,,,,,,0,6,6,6,0,3,3,3,,,,,,,,,,,,,,,,,,,,,,,,,,,,,,,,,,,,,,,,,,,,,,,,,,,,,,,,,,,,,,,,,,,,,1.0286,586.0433801,None,None,1,586.0433801,None,,P034,fencog,1,Post,2022_Apr_14_1158,N-Back (New Version 2021),2021.1.4,119.9439142
,,,,Conditions/Version_1/threeback(2)_v1.xlsx,New rule: Press 'space' when you see 3-back (i.e. the same letter as the one that appeared 3 letters ago.),y,space,,,,,,,,,0,6,6,6,0,4,4,4,,,,,,,,,,,,,,,,,,,,,,,,,,,,,,,,,,,,,,,,,,,,,,,,,,,,,,,,,,,,,,,,,,,,,1.9276,589.97535,None,space,1,589.97535,None,1.0975222,P034,fencog,1,Post,2022_Apr_14_1158,N-Back (New Version 2021),2021.1.4,119.9439142
,,,,Conditions/Version_1/threeback(2)_v1.xlsx,New rule: Press 'space' when you see 3-back (i.e. the same letter as the one that appeared 3 letters ago.),u,None,,,,,,,,,0,6,6,6,0,5,5,5,,,,,,,,,,,,,,,,,,,,,,,,,,,,,,,,,,,,,,,,,,,,,,,,,,,,,,,,,,,,,,,,,,,,,1.63,593.6076616,None,None,1,593.6076616,None,,P034,fencog,1,Post,2022_Apr_14_1158,N-Back (New Version 2021),2021.1.4,119.9439142
,,,,Conditions/Version_1/threeback(2)_v1.xlsx,New rule: Press 'space' when you see 3-back (i.e. the same letter as the one that appeared 3 letters ago.),P,space,,,,,,,,,0,6,6,6,0,6,6,6,,,,,,,,,,,,,,,,,,,,,,,,,,,,,,,,,,,,,,,,,,,,,,,,,,,,,,,,,,,,,,,,,,,,,1.6734,597.2892665,None,space,1,597.2892665,None,0.5515148,P034,fencog,1,Post,2022_Apr_14_1158,N-Back (New Version 2021),2021.1.4,119.9439142
,,,,Conditions/Version_1/threeback(2)_v1.xlsx,New rule: Press 'space' when you see 3-back (i.e. the same letter as the one that appeared 3 letters ago.),a,None,,,,,,,,,0,6,6,6,0,7,7,7,,,,,,,,,,,,,,,,,,,,,,,,,,,,,,,,,,,,,,,,,,,,,,,,,,,,,,,,,,,,,,,,,,,,,1.165,600.4555366,None,None,1,600.4555366,None,,P034,fencog,1,Post,2022_Apr_14_1158,N-Back (New Version 2021),2021.1.4,119.9439142
,,,,Conditions/Version_1/threeback(2)_v1.xlsx,New rule: Press 'space' when you see 3-back (i.e. the same letter as the one that appeared 3 letters ago.),U,space,,,,,,,,,0,6,6,6,0,8,8,8,,,,,,,,,,,,,,,,,,,,,,,,,,,,,,,,,,,,,,,,,,,,,,,,,,,,,,,,,,,,,,,,,,,,,1.8346,604.298485,None,space,1,604.298485,None,0.9901376,P034,fencog,1,Post,2022_Apr_14_1158,N-Back (New Version 2021),2021.1.4,119.9439142
,,,,Conditions/Version_1/threeback(2)_v1.xlsx,New rule: Press 'space' when you see 3-back (i.e. the same letter as the one that appeared 3 letters ago.),q,None,,,,,,,,,0,6,6,6,0,9,9,9,,,,,,,,,,,,,,,,,,,,,,,,,,,,,,,,,,,,,,,,,,,,,,,,,,,,,,,,,,,,,,,,,,,,,1.9338,608.247257,None,None,1,608.247257,None,,P034,fencog,1,Post,2022_Apr_14_1158,N-Back (New Version 2021),2021.1.4,119.9439142
,,,,Conditions/Version_1/threeback(2)_v1.xlsx,New rule: Press 'space' when you see 3-back (i.e. the same letter as the one that appeared 3 letters ago.),,,,,,,,,,,0,6,6,6,,,,,,,,,,,,,,,,,,,,,,,,,,,,,,,,,,,,,,,,,,,,,,,,,,,,,,,,,,,,,,,,,,,,,,,,,,,,,,,,,P034,fencog,1,Post,2022_Apr_14_1158,N-Back (New Version 2021),2021.1.4,119.9439142
,,,,Conditions/Version_1/twoback(2)_v1.xlsx,New rule: Press 'space' when you see 2-back (i.e. the same letter as the one that appeared 2 letters ago.),q,None,,,,,,,,,0,7,7,7,0,0,0,0,,,,,,,,,,,,,,,,,,,,,,,,,,,,,,,,,,,,,,,,,,,,,,,,,,,,,,,,,,,610.2772241,None,613.2616856,None,space,0.4428957,613.2616856,None,610.2772241,None,1.6052,615.3427637,None,None,1,615.3427637,None,,P034,fencog,1,Post,2022_Apr_14_1158,N-Back (New Version 2021),2021.1.4,119.9439142
,,,,Conditions/Version_1/twoback(2)_v1.xlsx,New rule: Press 'space' when you see 2-back (i.e. the same letter as the one that appeared 2 letters ago.),r,None,,,,,,,,,0,7,7,7,0,1,1,1,,,,,,,,,,,,,,,,,,,,,,,,,,,,,,,,,,,,,,,,,,,,,,,,,,,,,,,,,,,,,,,,,,,,,1.2208,618.5751935,None,None,1,618.5751935,None,,P034,fencog,1,Post,2022_Apr_14_1158,N-Back (New Version 2021),2021.1.4,119.9439142
,,,,Conditions/Version_1/twoback(2)_v1.xlsx,New rule: Press 'space' when you see 2-back (i.e. the same letter as the one that appeared 2 letters ago.),q,space,,,,,,,,,0,7,7,7,0,2,2,2,,,,,,,,,,,,,,,,,,,,,,,,,,,,,,,,,,,,,,,,,,,,,,,,,,,,,,,,,,,,,,,,,,,,,1.8656,622.4492894,None,space,1,622.4492894,None,0.5032988,P034,fencog,1,Post,2022_Apr_14_1158,N-Back (New Version 2021),2021.1.4,119.9439142
,,,,Conditions/Version_1/twoback(2)_v1.xlsx,New rule: Press 'space' when you see 2-back (i.e. the same letter as the one that appeared 2 letters ago.),P,None,,,,,,,,,0,7,7,7,0,3,3,3,,,,,,,,,,,,,,,,,,,,,,,,,,,,,,,,,,,,,,,,,,,,,,,,,,,,,,,,,,,,,,,,,,,,,1.3758,625.8379676,None,None,1,625.8379676,None,,P034,fencog,1,Post,2022_Apr_14_1158,N-Back (New Version 2021),2021.1.4,119.9439142
,,,,Conditions/Version_1/twoback(2)_v1.xlsx,New rule: Press 'space' when you see 2-back (i.e. the same letter as the one that appeared 2 letters ago.),p,None,,,,,,,,,0,7,7,7,0,4,4,4,,,,,,,,,,,,,,,,,,,,,,,,,,,,,,,,,,,,,,,,,,,,,,,,,,,,,,,,,,,,,,,,,,,,,1.6238,629.4721246,None,None,1,629.4721246,None,,P034,fencog,1,Post,2022_Apr_14_1158,N-Back (New Version 2021),2021.1.4,119.9439142
,,,,Conditions/Version_1/twoback(2)_v1.xlsx,New rule: Press 'space' when you see 2-back (i.e. the same letter as the one that appeared 2 letters ago.),H,None,,,,,,,,,0,7,7,7,0,5,5,5,,,,,,,,,,,,,,,,,,,,,,,,,,,,,,,,,,,,,,,,,,,,,,,,,,,,,,,,,,,,,,,,,,,,,1.8346,633.3136811,None,None,1,633.3136811,None,,P034,fencog,1,Post,2022_Apr_14_1158,N-Back (New Version 2021),2021.1.4,119.9439142
,,,,Conditions/Version_1/twoback(2)_v1.xlsx,New rule: Press 'space' when you see 2-back (i.e. the same letter as the one that appeared 2 letters ago.),g,None,,,,,,,,,0,7,7,7,0,6,6,6,,,,,,,,,,,,,,,,,,,,,,,,,,,,,,,,,,,,,,,,,,,,,,,,,,,,,,,,,,,,,,,,,,,,,1.8966,637.2200411,None,None,1,637.2200411,None,,P034,fencog,1,Post,2022_Apr_14_1158,N-Back (New Version 2021),2021.1.4,119.9439142
,,,,Conditions/Version_1/twoback(2)_v1.xlsx,New rule: Press 'space' when you see 2-back (i.e. the same letter as the one that appeared 2 letters ago.),j,None,,,,,,,,,0,7,7,7,0,7,7,7,,,,,,,,,,,,,,,,,,,,,,,,,,,,,,,,,,,,,,,,,,,,,,,,,,,,,,,,,,,,,,,,,,,,,1.9586,641.1930024,None,None,1,641.1930024,None,,P034,fencog,1,Post,2022_Apr_14_1158,N-Back (New Version 2021),2021.1.4,119.9439142
,,,,Conditions/Version_1/twoback(2)_v1.xlsx,New rule: Press 'space' when you see 2-back (i.e. the same letter as the one that appeared 2 letters ago.),g,space,,,,,,,,,0,7,7,7,0,8,8,8,,,,,,,,,,,,,,,,,,,,,,,,,,,,,,,,,,,,,,,,,,,,,,,,,,,,,,,,,,,,,,,,,,,,,1.7478,644.9424127,None,space,1,644.9424127,None,1.3386178,P034,fencog,1,Post,2022_Apr_14_1158,N-Back (New Version 2021),2021.1.4,119.9439142
,,,,Conditions/Version_1/twoback(2)_v1.xlsx,New rule: Press 'space' when you see 2-back (i.e. the same letter as the one that appeared 2 letters ago.),G,None,,,,,,,,,0,7,7,7,0,9,9,9,,,,,,,,,,,,,,,,,,,,,,,,,,,,,,,,,,,,,,,,,,,,,,,,,,,,,,,,,,,,,,,,,,,,,1.289,648.2375403,None,None,1,648.2375403,None,,P034,fencog,1,Post,2022_Apr_14_1158,N-Back (New Version 2021),2021.1.4,119.9439142
,,,,Conditions/Version_1/twoback(2)_v1.xlsx,New rule: Press 'space' when you see 2-back (i.e. the same letter as the one that appeared 2 letters ago.),,,,,,,,,,,0,7,7,7,,,,,,,,,,,,,,,,,,,,,,,,,,,,,,,,,,,,,,,,,,,,,,,,,,,,,,,,,,,,,,,,,,,,,,,,,,,,,,,,,P034,fencog,1,Post,2022_Apr_14_1158,N-Back (New Version 2021),2021.1.4,119.9439142
,,,,Conditions/Version_1/threeback(3)_v1.xlsx,New rule: Press 'space' when you see 3-back (i.e. the same letter as the one that appeared 3 letters ago.),w,None,,,,,,,,,0,8,8,8,0,0,0,0,,,,,,,,,,,,,,,,,,,,,,,,,,,,,,,,,,,,,,,,,,,,,,,,,,,,,,,,,,,650.2649388,None,653.2416251,None,space,0.6149811,653.2416251,None,650.2649388,None,1.9028,655.7891909,None,None,1,655.7891909,None,,P034,fencog,1,Post,2022_Apr_14_1158,N-Back (New Version 2021),2021.1.4,119.9439142
,,,,Conditions/Version_1/threeback(3)_v1.xlsx,New rule: Press 'space' when you see 3-back (i.e. the same letter as the one that appeared 3 letters ago.),p,None,,,,,,,,,0,8,8,8,0,1,1,1,,,,,,,,,,,,,,,,,,,,,,,,,,,,,,,,,,,,,,,,,,,,,,,,,,,,,,,,,,,,,,,,,,,,,1.971,659.7630271,None,None,1,659.7630271,None,,P034,fencog,1,Post,2022_Apr_14_1158,N-Back (New Version 2021),2021.1.4,119.9439142
,,,,Conditions/Version_1/threeback(3)_v1.xlsx,New rule: Press 'space' when you see 3-back (i.e. the same letter as the one that appeared 3 letters ago.),P,None,,,,,,,,,0,8,8,8,0,2,2,2,,,,,,,,,,,,,,,,,,,,,,,,,,,,,,,,,,,,,,,,,,,,,,,,,,,,,,,,,,,,,,,,,,,,,1.5246,663.2963071,None,None,1,663.2963071,None,,P034,fencog,1,Post,2022_Apr_14_1158,N-Back (New Version 2021),2021.1.4,119.9439142
,,,,Conditions/Version_1/threeback(3)_v1.xlsx,New rule: Press 'space' when you see 3-back (i.e. the same letter as the one that appeared 3 letters ago.),i,None,,,,,,,,,0,8,8,8,0,3,3,3,,,,,,,,,,,,,,,,,,,,,,,,,,,,,,,,,,,,,,,,,,,,,,,,,,,,,,,,,,,,,,,,,,,,,1.4998,666.8056091,None,None,1,666.8056091,None,,P034,fencog,1,Post,2022_Apr_14_1158,N-Back (New Version 2021),2021.1.4,119.9439142
,,,,Conditions/Version_1/threeback(3)_v1.xlsx,New rule: Press 'space' when you see 3-back (i.e. the same letter as the one that appeared 3 letters ago.),f,None,,,,,,,,,0,8,8,8,0,4,4,4,,,,,,,,,,,,,,,,,,,,,,,,,,,,,,,,,,,,,,,,,,,,,,,,,,,,,,,,,,,,,,,,,,,,,1.5494,670.3608081,None,None,1,670.3608081,None,,P034,fencog,1,Post,2022_Apr_14_1158,N-Back (New Version 2021),2021.1.4,119.9439142
,,,,Conditions/Version_1/threeback(3)_v1.xlsx,New rule: Press 'space' when you see 3-back (i.e. the same letter as the one that appeared 3 letters ago.),o,None,,,,,,,,,0,8,8,8,0,5,5,5,,,,,,,,,,,,,,,,,,,,,,,,,,,,,,,,,,,,,,,,,,,,,,,,,,,,,,,,,,,,,,,,,,,,,1.8594,674.2335113,None,None,1,674.2335113,None,,P034,fencog,1,Post,2022_Apr_14_1158,N-Back (New Version 2021),2021.1.4,119.9439142
,,,,Conditions/Version_1/threeback(3)_v1.xlsx,New rule: Press 'space' when you see 3-back (i.e. the same letter as the one that appeared 3 letters ago.),w,None,,,,,,,,,0,8,8,8,0,6,6,6,,,,,,,,,,,,,,,,,,,,,,,,,,,,,,,,,,,,,,,,,,,,,,,,,,,,,,,,,,,,,,,,,,,,,1.7478,677.9824157,None,None,1,677.9824157,None,,P034,fencog,1,Post,2022_Apr_14_1158,N-Back (New Version 2021),2021.1.4,119.9439142
,,,,Conditions/Version_1/threeback(3)_v1.xlsx,New rule: Press 'space' when you see 3-back (i.e. the same letter as the one that appeared 3 letters ago.),F,space,,,,,,,,,0,8,8,8,0,7,7,7,,,,,,,,,,,,,,,,,,,,,,,,,,,,,,,,,,,,,,,,,,,,,,,,,,,,,,,,,,,,,,,,,,,,,1.3386,681.3233318,None,None,0,681.3233318,None,,P034,fencog,1,Post,2022_Apr_14_1158,N-Back (New Version 2021),2021.1.4,119.9439142
,,,,Conditions/Version_1/threeback(3)_v1.xlsx,New rule: Press 'space' when you see 3-back (i.e. the same letter as the one that appeared 3 letters ago.),p,None,,,,,,,,,0,8,8,8,0,8,8,8,,,,,,,,,,,,,,,,,,,,,,,,,,,,,,,,,,,,,,,,,,,,,,,,,,,,,,,,,,,,,,,,,,,,,1.9586,685.2804836,None,None,1,685.2804836,None,,P034,fencog,1,Post,2022_Apr_14_1158,N-Back (New Version 2021),2021.1.4,119.9439142
,,,,Conditions/Version_1/threeback(3)_v1.xlsx,New rule: Press 'space' when you see 3-back (i.e. the same letter as the one that appeared 3 letters ago.),W,space,,,,,,,,,0,8,8,8,0,9,9,9,,,,,,,,,,,,,,,,,,,,,,,,,,,,,,,,,,,,,,,,,,,,,,,,,,,,,,,,,,,,,,,,,,,,,1.4688,688.7556168,None,space,1,688.7556168,None,1.0773877,P034,fencog,1,Post,2022_Apr_14_1158,N-Back (New Version 2021),2021.1.4,119.9439142
,,,,Conditions/Version_1/threeback(3)_v1.xlsx,New rule: Press 'space' when you see 3-back (i.e. the same letter as the one that appeared 3 letters ago.),,,,,,,,,,,0,8,8,8,,,,,,,,,,,,,,,,,,,,,,,,,,,,,,,,,,,,,,,,,,,,,,,,,,,,,,,,,,,,,,,,,,,,,,,,,,,,,,,,,P034,fencog,1,Post,2022_Apr_14_1158,N-Back (New Version 2021),2021.1.4,119.9439142
,,,,Conditions/Version_1/zeroback(3)_v1.xlsx,New rule: Press 'space' when you see the letter 'x' or 'X'.,X,space,,,,,,,,,0,9,9,9,0,0,0,0,,,,,,,,,,,,,,,,,,,,,,,,,,,,,,,,,,,,,,,,,,,,,,,,,,,,,,,,,,,690.7874386,None,693.7717825,None,space,0.8287576,693.7717825,None,690.7874386,None,1.537,696.1701227,None,space,1,696.1701227,None,0.8064569,P034,fencog,1,Post,2022_Apr_14_1158,N-Back (New Version 2021),2021.1.4,119.9439142
,,,,Conditions/Version_1/zeroback(3)_v1.xlsx,New rule: Press 'space' when you see the letter 'x' or 'X'.,B,None,,,,,,,,,0,9,9,9,0,1,1,1,,,,,,,,,,,,,,,,,,,,,,,,,,,,,,,,,,,,,,,,,,,,,,,,,,,,,,,,,,,,,,,,,,,,,1.7168,699.8947384,None,None,1,699.8947384,None,,P034,fencog,1,Post,2022_Apr_14_1158,N-Back (New Version 2021),2021.1.4,119.9439142
,,,,Conditions/Version_1/zeroback(3)_v1.xlsx,New rule: Press 'space' when you see the letter 'x' or 'X'.,m,None,,,,,,,,,0,9,9,9,0,2,2,2,,,,,,,,,,,,,,,,,,,,,,,,,,,,,,,,,,,,,,,,,,,,,,,,,,,,,,,,,,,,,,,,,,,,,1.5742,703.4753137,None,None,1,703.4753137,None,,P034,fencog,1,Post,2022_Apr_14_1158,N-Back (New Version 2021),2021.1.4,119.9439142
,,,,Conditions/Version_1/zeroback(3)_v1.xlsx,New rule: Press 'space' when you see the letter 'x' or 'X'.,m,None,,,,,,,,,0,9,9,9,0,3,3,3,,,,,,,,,,,,,,,,,,,,,,,,,,,,,,,,,,,,,,,,,,,,,,,,,,,,,,,,,,,,,,,,,,,,,1.9462,707.4324892,None,None,1,707.4324892,None,,P034,fencog,1,Post,2022_Apr_14_1158,N-Back (New Version 2021),2021.1.4,119.9439142
,,,,Conditions/Version_1/zeroback(3)_v1.xlsx,New rule: Press 'space' when you see the letter 'x' or 'X'.,o,None,,,,,,,,,0,9,9,9,0,4,4,4,,,,,,,,,,,,,,,,,,,,,,,,,,,,,,,,,,,,,,,,,,,,,,,,,,,,,,,,,,,,,,,,,,,,,1.9152,711.3502767,None,None,1,711.3502767,None,,P034,fencog,1,Post,2022_Apr_14_1158,N-Back (New Version 2021),2021.1.4,119.9439142
,,,,Conditions/Version_1/zeroback(3)_v1.xlsx,New rule: Press 'space' when you see the letter 'x' or 'X'.,p,None,,,,,,,,,0,9,9,9,0,5,5,5,,,,,,,,,,,,,,,,,,,,,,,,,,,,,,,,,,,,,,,,,,,,,,,,,,,,,,,,,,,,,,,,,,,,,1.6796,715.0403075,None,None,1,715.0403075,None,,P034,fencog,1,Post,2022_Apr_14_1158,N-Back (New Version 2021),2021.1.4,119.9439142
,,,,Conditions/Version_1/zeroback(3)_v1.xlsx,New rule: Press 'space' when you see the letter 'x' or 'X'.,G,None,,,,,,,,,0,9,9,9,0,6,6,6,,,,,,,,,,,,,,,,,,,,,,,,,,,,,,,,,,,,,,,,,,,,,,,,,,,,,,,,,,,,,,,,,,,,,1.2084,718.254047,None,None,1,718.254047,None,,P034,fencog,1,Post,2022_Apr_14_1158,N-Back (New Version 2021),2021.1.4,119.9439142
,,,,Conditions/Version_1/zeroback(3)_v1.xlsx,New rule: Press 'space' when you see the letter 'x' or 'X'.,X,space,,,,,,,,,0,9,9,9,0,7,7,7,,,,,,,,,,,,,,,,,,,,,,,,,,,,,,,,,,,,,,,,,,,,,,,,,,,,,,,,,,,,,,,,,,,,,1.1278,721.4005186,None,space,1,721.4005186,None,0.4959121,P034,fencog,1,Post,2022_Apr_14_1158,N-Back (New Version 2021),2021.1.4,119.9439142
,,,,Conditions/Version_1/zeroback(3)_v1.xlsx,New rule: Press 'space' when you see the letter 'x' or 'X'.,p,None,,,,,,,,,0,9,9,9,0,8,8,8,,,,,,,,,,,,,,,,,,,,,,,,,,,,,,,,,,,,,,,,,,,,,,,,,,,,,,,,,,,,,,,,,,,,,1.94,725.348187,None,None,1,725.348187,None,,P034,fencog,1,Post,2022_Apr_14_1158,N-Back (New Version 2021),2021.1.4,119.9439142
,,,,Conditions/Version_1/zeroback(3)_v1.xlsx,New rule: Press 'space' when you see the letter 'x' or 'X'.,x,space,,,,,,,,,0,9,9,9,0,9,9,9,,,,,,,,,,,,,,,,,,,,,,,,,,,,,,,,,,,,,,,,,,,,,,,,,,,,,,,,,,,,,,,,,,,,,1.6238,728.9757122,None,space,1,728.9757122,None,0.4168946,P034,fencog,1,Post,2022_Apr_14_1158,N-Back (New Version 2021),2021.1.4,119.9439142
,,,,Conditions/Version_1/zeroback(3)_v1.xlsx,New rule: Press 'space' when you see the letter 'x' or 'X'.,,,,,,,,,,,0,9,9,9,,,,,,,,,,,,,,,,,,,,,,,,,,,,,,,,,,,,,,,,,,,,,,,,,,,,,,,,,,,,,,,,,,,,,,,,,,,,,,,,,P034,fencog,1,Post,2022_Apr_14_1158,N-Back (New Version 2021),2021.1.4,119.9439142
,,,,Conditions/Version_1/twoback(3)_v1.xlsx,New rule: Press 'space' when you see 2-back (i.e. the same letter as the one that appeared 2 letters ago.),e,None,,,,,,,,,0,10,10,10,0,0,0,0,,,,,,,,,,,,,,,,,,,,,,,,,,,,,,,,,,,,,,,,,,,,,,,,,,,,,,,,,,,730.9936199,None,733.9771126,None,space,0.5352884,733.9771126,None,730.9936199,None,1.4812,736.023637,None,None,1,736.023637,None,,P034,fencog,1,Post,2022_Apr_14_1158,N-Back (New Version 2021),2021.1.4,119.9439142
,,,,Conditions/Version_1/twoback(3)_v1.xlsx,New rule: Press 'space' when you see 2-back (i.e. the same letter as the one that appeared 2 letters ago.),o,None,,,,,,,,,0,10,10,10,0,1,1,1,,,,,,,,,,,,,,,,,,,,,,,,,,,,,,,,,,,,,,,,,,,,,,,,,,,,,,,,,,,,,,,,,,,,,1.6424,739.6725482,None,None,1,739.6725482,None,,P034,fencog,1,Post,2022_Apr_14_1158,N-Back (New Version 2021),2021.1.4,119.9439142
,,,,Conditions/Version_1/twoback(3)_v1.xlsx,New rule: Press 'space' when you see 2-back (i.e. the same letter as the one that appeared 2 letters ago.),P,None,,,,,,,,,0,10,10,10,0,2,2,2,,,,,,,,,,,,,,,,,,,,,,,,,,,,,,,,,,,,,,,,,,,,,,,,,,,,,,,,,,,,,,,,,,,,,1.0286,742.7051003,None,None,1,742.7051003,None,,P034,fencog,1,Post,2022_Apr_14_1158,N-Back (New Version 2021),2021.1.4,119.9439142
,,,,Conditions/Version_1/twoback(3)_v1.xlsx,New rule: Press 'space' when you see 2-back (i.e. the same letter as the one that appeared 2 letters ago.),z,None,,,,,,,,,0,10,10,10,0,3,3,3,,,,,,,,,,,,,,,,,,,,,,,,,,,,,,,,,,,,,,,,,,,,,,,,,,,,,,,,,,,,,,,,,,,,,1.568,746.2809872,None,None,1,746.2809872,None,,P034,fencog,1,Post,2022_Apr_14_1158,N-Back (New Version 2021),2021.1.4,119.9439142
,,,,Conditions/Version_1/twoback(3)_v1.xlsx,New rule: Press 'space' when you see 2-back (i.e. the same letter as the one that appeared 2 letters ago.),X,None,,,,,,,,,0,10,10,10,0,4,4,4,,,,,,,,,,,,,,,,,,,,,,,,,,,,,,,,,,,,,,,,,,,,,,,,,,,,,,,,,,,,,,,,,,,,,1.6672,749.9612498,None,None,1,749.9612498,None,,P034,fencog,1,Post,2022_Apr_14_1158,N-Back (New Version 2021),2021.1.4,119.9439142
,,,,Conditions/Version_1/twoback(3)_v1.xlsx,New rule: Press 'space' when you see 2-back (i.e. the same letter as the one that appeared 2 letters ago.),z,space,,,,,,,,,0,10,10,10,0,5,5,5,,,,,,,,,,,,,,,,,,,,,,,,,,,,,,,,,,,,,,,,,,,,,,,,,,,,,,,,,,,,,,,,,,,,,1.847,753.8101963,None,space,1,753.8101963,None,0.8220999,P034,fencog,1,Post,2022_Apr_14_1158,N-Back (New Version 2021),2021.1.4,119.9439142
,,,,Conditions/Version_1/twoback(3)_v1.xlsx,New rule: Press 'space' when you see 2-back (i.e. the same letter as the one that appeared 2 letters ago.),x,space,,,,,,,,,0,10,10,10,0,6,6,6,,,,,,,,,,,,,,,,,,,,,,,,,,,,,,,,,,,,,,,,,,,,,,,,,,,,,,,,,,,,,,,,,,,,,1.4688,757.2839743,None,space,1,757.2839743,None,1.6444032,P034,fencog,1,Post,2022_Apr_14_1158,N-Back (New Version 2021),2021.1.4,119.9439142
,,,,Conditions/Version_1/twoback(3)_v1.xlsx,New rule: Press 'space' when you see 2-back (i.e. the same letter as the one that appeared 2 letters ago.),c,None,,,,,,,,,0,10,10,10,0,7,7,7,,,,,,,,,,,,,,,,,,,,,,,,,,,,,,,,,,,,,,,,,,,,,,,,,,,,,,,,,,,,,,,,,,,,,1.63,760.9162685,None,None,1,760.9162685,None,,P034,fencog,1,Post,2022_Apr_14_1158,N-Back (New Version 2021),2021.1.4,119.9439142
,,,,Conditions/Version_1/twoback(3)_v1.xlsx,New rule: Press 'space' when you see 2-back (i.e. the same letter as the one that appeared 2 letters ago.),i,None,,,,,,,,,0,10,10,10,0,8,8,8,,,,,,,,,,,,,,,,,,,,,,,,,,,,,,,,,,,,,,,,,,,,,,,,,,,,,,,,,,,,,,,,,,,,,1.6114,764.5318777,None,None,1,764.5318777,None,,P034,fencog,1,Post,2022_Apr_14_1158,N-Back (New Version 2021),2021.1.4,119.9439142
,,,,Conditions/Version_1/twoback(3)_v1.xlsx,New rule: Press 'space' when you see 2-back (i.e. the same letter as the one that appeared 2 letters ago.),C,space,,,,,,,,,0,10,10,10,0,9,9,9,,,,,,,,,,,,,,,,,,,,,,,,,,,,,,,,,,,,,,,,,,,,,,,,,,,,,,,,,,,,,,,,,,,,,1.103,767.6392773,None,space,1,767.6392773,None,0.9691051,P034,fencog,1,Post,2022_Apr_14_1158,N-Back (New Version 2021),2021.1.4,119.9439142
,,,,Conditions/Version_1/twoback(3)_v1.xlsx,New rule: Press 'space' when you see 2-back (i.e. the same letter as the one that appeared 2 letters ago.),,,,,,,,,,,0,10,10,10,,,,,,,,,,,,,,,,,,,,,,,,,,,,,,,,,,,,,,,,,,,,,,,,,,,,,,,,,,,,,,,,,,,,,,,,,,,,,,,,,P034,fencog,1,Post,2022_Apr_14_1158,N-Back (New Version 2021),2021.1.4,119.9439142
,,,,Conditions/Version_1/oneback(3)_v1.xlsx,New rule: Press 'space' when you see 1-back (i.e. the same letter as the one that appeared 1 letter ago.),o,None,,,,,,,,,0,11,11,11,0,0,0,0,,,,,,,,,,,,,,,,,,,,,,,,,,,,,,,,,,,,,,,,,,,,,,,,,,,,,,,,,,,769.6567834,None,772.6398081,None,space,0.4888695,772.6398081,None,769.6567834,None,1.6982,774.8538746,None,None,1,774.8538746,None,,P034,fencog,1,Post,2022_Apr_14_1158,N-Back (New Version 2021),2021.1.4,119.9439142
,,,,Conditions/Version_1/oneback(3)_v1.xlsx,New rule: Press 'space' when you see 1-back (i.e. the same letter as the one that appeared 1 letter ago.),O,space,,,,,,,,,0,11,11,11,0,1,1,1,,,,,,,,,,,,,,,,,,,,,,,,,,,,,,,,,,,,,,,,,,,,,,,,,,,,,,,,,,,,,,,,,,,,,1.9586,778.8193786,None,space,1,778.8193786,None,0.4849394,P034,fencog,1,Post,2022_Apr_14_1158,N-Back (New Version 2021),2021.1.4,119.9439142
,,,,Conditions/Version_1/oneback(3)_v1.xlsx,New rule: Press 'space' when you see 1-back (i.e. the same letter as the one that appeared 1 letter ago.),h,None,,,,,,,,,0,11,11,11,0,2,2,2,,,,,,,,,,,,,,,,,,,,,,,,,,,,,,,,,,,,,,,,,,,,,,,,,,,,,,,,,,,,,,,,,,,,,1.7416,782.5598743,None,None,1,782.5598743,None,,P034,fencog,1,Post,2022_Apr_14_1158,N-Back (New Version 2021),2021.1.4,119.9439142
,,,,Conditions/Version_1/oneback(3)_v1.xlsx,New rule: Press 'space' when you see 1-back (i.e. the same letter as the one that appeared 1 letter ago.),g,None,,,,,,,,,0,11,11,11,0,3,3,3,,,,,,,,,,,,,,,,,,,,,,,,,,,,,,,,,,,,,,,,,,,,,,,,,,,,,,,,,,,,,,,,,,,,,1.6176,786.1837847,None,None,1,786.1837847,None,,P034,fencog,1,Post,2022_Apr_14_1158,N-Back (New Version 2021),2021.1.4,119.9439142
,,,,Conditions/Version_1/oneback(3)_v1.xlsx,New rule: Press 'space' when you see 1-back (i.e. the same letter as the one that appeared 1 letter ago.),n,None,,,,,,,,,0,11,11,11,0,4,4,4,,,,,,,,,,,,,,,,,,,,,,,,,,,,,,,,,,,,,,,,,,,,,,,,,,,,,,,,,,,,,,,,,,,,,1.909,790.0993263,None,None,1,790.0993263,None,,P034,fencog,1,Post,2022_Apr_14_1158,N-Back (New Version 2021),2021.1.4,119.9439142
,,,,Conditions/Version_1/oneback(3)_v1.xlsx,New rule: Press 'space' when you see 1-back (i.e. the same letter as the one that appeared 1 letter ago.),z,None,,,,,,,,,0,11,11,11,0,5,5,5,,,,,,,,,,,,,,,,,,,,,,,,,,,,,,,,,,,,,,,,,,,,,,,,,,,,,,,,,,,,,,,,,,,,,1.94,794.1218129,None,None,1,794.1218129,None,,P034,fencog,1,Post,2022_Apr_14_1158,N-Back (New Version 2021),2021.1.4,119.9439142
,,,,Conditions/Version_1/oneback(3)_v1.xlsx,New rule: Press 'space' when you see 1-back (i.e. the same letter as the one that appeared 1 letter ago.),X,None,,,,,,,,,0,11,11,11,0,6,6,6,,,,,,,,,,,,,,,,,,,,,,,,,,,,,,,,,,,,,,,,,,,,,,,,,,,,,,,,,,,,,,,,,,,,,1.9896,798.1137866,None,None,1,798.1137866,None,,P034,fencog,1,Post,2022_Apr_14_1158,N-Back (New Version 2021),2021.1.4,119.9439142
,,,,Conditions/Version_1/oneback(3)_v1.xlsx,New rule: Press 'space' when you see 1-back (i.e. the same letter as the one that appeared 1 letter ago.),r,None,,,,,,,,,0,11,11,11,0,7,7,7,,,,,,,,,,,,,,,,,,,,,,,,,,,,,,,,,,,,,,,,,,,,,,,,,,,,,,,,,,,,,,,,,,,,,1.5618,801.6791903,None,None,1,801.6791903,None,,P034,fencog,1,Post,2022_Apr_14_1158,N-Back (New Version 2021),2021.1.4,119.9439142
,,,,Conditions/Version_1/oneback(3)_v1.xlsx,New rule: Press 'space' when you see 1-back (i.e. the same letter as the one that appeared 1 letter ago.),r,space,,,,,,,,,0,11,11,11,0,8,8,8,,,,,,,,,,,,,,,,,,,,,,,,,,,,,,,,,,,,,,,,,,,,,,,,,,,,,,,,,,,,,,,,,,,,,1.723,805.4030649,None,space,1,805.4030649,None,0.9012257,P034,fencog,1,Post,2022_Apr_14_1158,N-Back (New Version 2021),2021.1.4,119.9439142
,,,,Conditions/Version_1/oneback(3)_v1.xlsx,New rule: Press 'space' when you see 1-back (i.e. the same letter as the one that appeared 1 letter ago.),P,None,,,,,,,,,0,11,11,11,0,9,9,9,,,,,,,,,,,,,,,,,,,,,,,,,,,,,,,,,,,,,,,,,,,,,,,,,,,,,,,,,,,,,,,,,,,,,1.754,809.1961894,None,None,1,809.1961894,None,,P034,fencog,1,Post,2022_Apr_14_1158,N-Back (New Version 2021),2021.1.4,119.9439142
,,,,Conditions/Version_1/oneback(3)_v1.xlsx,New rule: Press 'space' when you see 1-back (i.e. the same letter as the one that appeared 1 letter ago.),,,,,,,,,,,0,11,11,11,,,,,,,,,,,,,,,,,,,,,,,,,,,,,,,,,,,,,,,,,,,,,,,,,,,,,,,,,,,,,,,,,,,,,,,,,,,,,,,,,P034,fencog,1,Post,2022_Apr_14_1158,N-Back (New Version 2021),2021.1.4,119.9439142
,,,,Conditions/Version_1/twoback(4)_v1.xlsx,New rule: Press 'space' when you see 2-back (i.e. the same letter as the one that appeared 2 letters ago.),r,None,,,,,,,,,0,12,12,12,0,0,0,0,,,,,,,,,,,,,,,,,,,,,,,,,,,,,,,,,,,,,,,,,,,,,,,,,,,,,,,,,,,811.1865962,None,814.1691922,None,space,12.4471184,814.1691922,None,811.1865962,None,1.3014,827.9466065,None,None,1,827.9466065,None,,P034,fencog,1,Post,2022_Apr_14_1158,N-Back (New Version 2021),2021.1.4,119.9439142
,,,,Conditions/Version_1/twoback(4)_v1.xlsx,New rule: Press 'space' when you see 2-back (i.e. the same letter as the one that appeared 2 letters ago.),T,None,,,,,,,,,0,12,12,12,0,1,1,1,,,,,,,,,,,,,,,,,,,,,,,,,,,,,,,,,,,,,,,,,,,,,,,,,,,,,,,,,,,,,,,,,,,,,1.9338,831.8882188,None,None,1,831.8882188,None,,P034,fencog,1,Post,2022_Apr_14_1158,N-Back (New Version 2021),2021.1.4,119.9439142
,,,,Conditions/Version_1/twoback(4)_v1.xlsx,New rule: Press 'space' when you see 2-back (i.e. the same letter as the one that appeared 2 letters ago.),o,None,,,,,,,,,0,12,12,12,0,2,2,2,,,,,,,,,,,,,,,,,,,,,,,,,,,,,,,,,,,,,,,,,,,,,,,,,,,,,,,,,,,,,,,,,,,,,1.7912,835.6869211,None,None,1,835.6869211,None,,P034,fencog,1,Post,2022_Apr_14_1158,N-Back (New Version 2021),2021.1.4,119.9439142
,,,,Conditions/Version_1/twoback(4)_v1.xlsx,New rule: Press 'space' when you see 2-back (i.e. the same letter as the one that appeared 2 letters ago.),p,None,,,,,,,,,0,12,12,12,0,3,3,3,,,,,,,,,,,,,,,,,,,,,,,,,,,,,,,,,,,,,,,,,,,,,,,,,,,,,,,,,,,,,,,,,,,,,1.692,839.3932235,None,None,1,839.3932235,None,,P034,fencog,1,Post,2022_Apr_14_1158,N-Back (New Version 2021),2021.1.4,119.9439142
,,,,Conditions/Version_1/twoback(4)_v1.xlsx,New rule: Press 'space' when you see 2-back (i.e. the same letter as the one that appeared 2 letters ago.),p,None,,,,,,,,,0,12,12,12,0,4,4,4,,,,,,,,,,,,,,,,,,,,,,,,,,,,,,,,,,,,,,,,,,,,,,,,,,,,,,,,,,,,,,,,,,,,,1.041,842.4342291,None,space,0,842.4342291,None,0.9103363,P034,fencog,1,Post,2022_Apr_14_1158,N-Back (New Version 2021),2021.1.4,119.9439142
,,,,Conditions/Version_1/twoback(4)_v1.xlsx,New rule: Press 'space' when you see 2-back (i.e. the same letter as the one that appeared 2 letters ago.),y,None,,,,,,,,,0,12,12,12,0,5,5,5,,,,,,,,,,,,,,,,,,,,,,,,,,,,,,,,,,,,,,,,,,,,,,,,,,,,,,,,,,,,,,,,,,,,,1.0906,845.5248448,None,None,1,845.5248448,None,,P034,fencog,1,Post,2022_Apr_14_1158,N-Back (New Version 2021),2021.1.4,119.9439142
,,,,Conditions/Version_1/twoback(4)_v1.xlsx,New rule: Press 'space' when you see 2-back (i.e. the same letter as the one that appeared 2 letters ago.),P,space,,,,,,,,,0,12,12,12,0,6,6,6,,,,,,,,,,,,,,,,,,,,,,,,,,,,,,,,,,,,,,,,,,,,,,,,,,,,,,,,,,,,,,,,,,,,,1.506,849.0404694,None,space,1,849.0404694,None,0.9522783,P034,fencog,1,Post,2022_Apr_14_1158,N-Back (New Version 2021),2021.1.4,119.9439142
,,,,Conditions/Version_1/twoback(4)_v1.xlsx,New rule: Press 'space' when you see 2-back (i.e. the same letter as the one that appeared 2 letters ago.),y,None,,,,,,,,,0,12,12,12,0,7,7,7,,,,,,,,,,,,,,,,,,,,,,,,,,,,,,,,,,,,,,,,,,,,,,,,,,,,,,,,,,,,,,,,,,,,,1.1712,852.214408,None,space,0,852.214408,None,1.7539152,P034,fencog,1,Post,2022_Apr_14_1158,N-Back (New Version 2021),2021.1.4,119.9439142
,,,,Conditions/Version_1/twoback(4)_v1.xlsx,New rule: Press 'space' when you see 2-back (i.e. the same letter as the one that appeared 2 letters ago.),y,space,,,,,,,,,0,12,12,12,0,8,8,8,,,,,,,,,,,,,,,,,,,,,,,,,,,,,,,,,,,,,,,,,,,,,,,,,,,,,,,,,,,,,,,,,,,,,1.6238,855.838654,None,space,1,855.838654,None,0.881745,P034,fencog,1,Post,2022_Apr_14_1158,N-Back (New Version 2021),2021.1.4,119.9439142
,,,,Conditions/Version_1/twoback(4)_v1.xlsx,New rule: Press 'space' when you see 2-back (i.e. the same letter as the one that appeared 2 letters ago.),,,,,,,,,,,0,12,12,12,,,,,,,,,,,,,,,,,,,,,,,,,,,,,,,,,,,,,,,,,,,,,,,,,,,,,,,,,,,,,,,,,,,,,,,,,,,,,,,,,P034,fencog,1,Post,2022_Apr_14_1158,N-Back (New Version 2021),2021.1.4,119.9439142
,,,,Conditions/Version_1/zeroback(4)_v1.xlsx,New rule: Press 'space' when you see the letter 'x' or 'X'.,o,None,,,,,,,,,0,13,13,13,0,0,0,0,,,,,,,,,,,,,,,,,,,,,,,,,,,,,,,,,,,,,,,,,,,,,,,,,,,,,,,,,,,857.8569745,None,860.8389392,None,space,0.4496355,860.8389392,None,857.8569745,None,1.5184,862.8375326,None,None,1,862.8375326,None,,P034,fencog,1,Post,2022_Apr_14_1158,N-Back (New Version 2021),2021.1.4,119.9439142
,,,,Conditions/Version_1/zeroback(4)_v1.xlsx,New rule: Press 'space' when you see the letter 'x' or 'X'.,X,space,,,,,,,,,0,13,13,13,0,1,1,1,,,,,,,,,,,,,,,,,,,,,,,,,,,,,,,,,,,,,,,,,,,,,,,,,,,,,,,,,,,,,,,,,,,,,1.3324,866.1790621,None,space,1,866.1790621,None,0.6454431,P034,fencog,1,Post,2022_Apr_14_1158,N-Back (New Version 2021),2021.1.4,119.9439142
,,,,Conditions/Version_1/zeroback(4)_v1.xlsx,New rule: Press 'space' when you see the letter 'x' or 'X'.,p,None,,,,,,,,,0,13,13,13,0,2,2,2,,,,,,,,,,,,,,,,,,,,,,,,,,,,,,,,,,,,,,,,,,,,,,,,,,,,,,,,,,,,,,,,,,,,,1.382,869.5677586,None,None,1,869.5677586,None,,P034,fencog,1,Post,2022_Apr_14_1158,N-Back (New Version 2021),2021.1.4,119.9439142
,,,,Conditions/Version_1/zeroback(4)_v1.xlsx,New rule: Press 'space' when you see the letter 'x' or 'X'.,m,None,,,,,,,,,0,13,13,13,0,3,3,3,,,,,,,,,,,,,,,,,,,,,,,,,,,,,,,,,,,,,,,,,,,,,,,,,,,,,,,,,,,,,,,,,,,,,1.6858,873.2629214,None,None,1,873.2629214,None,,P034,fencog,1,Post,2022_Apr_14_1158,N-Back (New Version 2021),2021.1.4,119.9439142
,,,,Conditions/Version_1/zeroback(4)_v1.xlsx,New rule: Press 'space' when you see the letter 'x' or 'X'.,n,None,,,,,,,,,0,13,13,13,0,4,4,4,,,,,,,,,,,,,,,,,,,,,,,,,,,,,,,,,,,,,,,,,,,,,,,,,,,,,,,,,,,,,,,,,,,,,1.475,876.7451703,None,None,1,876.7451703,None,,P034,fencog,1,Post,2022_Apr_14_1158,N-Back (New Version 2021),2021.1.4,119.9439142
,,,,Conditions/Version_1/zeroback(4)_v1.xlsx,New rule: Press 'space' when you see the letter 'x' or 'X'.,m,None,,,,,,,,,0,13,13,13,0,5,5,5,,,,,,,,,,,,,,,,,,,,,,,,,,,,,,,,,,,,,,,,,,,,,,,,,,,,,,,,,,,,,,,,,,,,,1.2146,879.9664796,None,None,1,879.9664796,None,,P034,fencog,1,Post,2022_Apr_14_1158,N-Back (New Version 2021),2021.1.4,119.9439142
,,,,Conditions/Version_1/zeroback(4)_v1.xlsx,New rule: Press 'space' when you see the letter 'x' or 'X'.,C,None,,,,,,,,,0,13,13,13,0,6,6,6,,,,,,,,,,,,,,,,,,,,,,,,,,,,,,,,,,,,,,,,,,,,,,,,,,,,,,,,,,,,,,,,,,,,,1.2022,883.1850638,None,None,1,883.1850638,None,,P034,fencog,1,Post,2022_Apr_14_1158,N-Back (New Version 2021),2021.1.4,119.9439142
,,,,Conditions/Version_1/zeroback(4)_v1.xlsx,New rule: Press 'space' when you see the letter 'x' or 'X'.,m,None,,,,,,,,,0,13,13,13,0,7,7,7,,,,,,,,,,,,,,,,,,,,,,,,,,,,,,,,,,,,,,,,,,,,,,,,,,,,,,,,,,,,,,,,,,,,,1.2084,886.3961902,None,None,1,886.3961902,None,,P034,fencog,1,Post,2022_Apr_14_1158,N-Back (New Version 2021),2021.1.4,119.9439142
,,,,Conditions/Version_1/zeroback(4)_v1.xlsx,New rule: Press 'space' when you see the letter 'x' or 'X'.,p,None,,,,,,,,,0,13,13,13,0,8,8,8,,,,,,,,,,,,,,,,,,,,,,,,,,,,,,,,,,,,,,,,,,,,,,,,,,,,,,,,,,,,,,,,,,,,,1.9896,890.3901003,None,None,1,890.3901003,None,,P034,fencog,1,Post,2022_Apr_14_1158,N-Back (New Version 2021),2021.1.4,119.9439142
,,,,Conditions/Version_1/zeroback(4)_v1.xlsx,New rule: Press 'space' when you see the letter 'x' or 'X'.,X,space,,,,,,,,,0,13,13,13,0,9,9,9,,,,,,,,,,,,,,,,,,,,,,,,,,,,,,,,,,,,,,,,,,,,,,,,,,,,,,,,,,,,,,,,,,,,,1.4626,893.8604537,None,space,1,893.8604537,None,0.4439521,P034,fencog,1,Post,2022_Apr_14_1158,N-Back (New Version 2021),2021.1.4,119.9439142
,,,,Conditions/Version_1/zeroback(4)_v1.xlsx,New rule: Press 'space' when you see the letter 'x' or 'X'.,,,,,,,,,,,0,13,13,13,,,,,,,,,,,,,,,,,,,,,,,,,,,,,,,,,,,,,,,,,,,,,,,,,,,,,,,,,,,,,,,,,,,,,,,,,,,,,,,,,P034,fencog,1,Post,2022_Apr_14_1158,N-Back (New Version 2021),2021.1.4,119.9439142
,,,,Conditions/Version_1/oneback(4)_v1.xlsx,New rule: Press 'space' when you see 1-back (i.e. the same letter as the one that appeared 1 letter ago.),w,None,,,,,,,,,0,14,14,14,0,0,0,0,,,,,,,,,,,,,,,,,,,,,,,,,,,,,,,,,,,,,,,,,,,,,,,,,,,,,,,,,,,895.8898687,None,898.8698949,None,space,10.5305735,898.8698949,None,895.8898687,None,1.5742,911.0059499,None,None,1,911.0059499,None,,P034,fencog,1,Post,2022_Apr_14_1158,N-Back (New Version 2021),2021.1.4,119.9439142
,,,,Conditions/Version_1/oneback(4)_v1.xlsx,New rule: Press 'space' when you see 1-back (i.e. the same letter as the one that appeared 1 letter ago.),q,None,,,,,,,,,0,14,14,14,0,1,1,1,,,,,,,,,,,,,,,,,,,,,,,,,,,,,,,,,,,,,,,,,,,,,,,,,,,,,,,,,,,,,,,,,,,,,1.1402,914.1466744,None,None,1,914.1466744,None,,P034,fencog,1,Post,2022_Apr_14_1158,N-Back (New Version 2021),2021.1.4,119.9439142
,,,,Conditions/Version_1/oneback(4)_v1.xlsx,New rule: Press 'space' when you see 1-back (i.e. the same letter as the one that appeared 1 letter ago.),i,None,,,,,,,,,0,14,14,14,0,2,2,2,,,,,,,,,,,,,,,,,,,,,,,,,,,,,,,,,,,,,,,,,,,,,,,,,,,,,,,,,,,,,,,,,,,,,1.878,918.037653,None,None,1,918.037653,None,,P034,fencog,1,Post,2022_Apr_14_1158,N-Back (New Version 2021),2021.1.4,119.9439142
,,,,Conditions/Version_1/oneback(4)_v1.xlsx,New rule: Press 'space' when you see 1-back (i.e. the same letter as the one that appeared 1 letter ago.),t,None,,,,,,,,,0,14,14,14,0,3,3,3,,,,,,,,,,,,,,,,,,,,,,,,,,,,,,,,,,,,,,,,,,,,,,,,,,,,,,,,,,,,,,,,,,,,,1.7478,921.793994,None,None,1,921.793994,None,,P034,fencog,1,Post,2022_Apr_14_1158,N-Back (New Version 2021),2021.1.4,119.9439142
,,,,Conditions/Version_1/oneback(4)_v1.xlsx,New rule: Press 'space' when you see 1-back (i.e. the same letter as the one that appeared 1 letter ago.),v,None,,,,,,,,,0,14,14,14,0,4,4,4,,,,,,,,,,,,,,,,,,,,,,,,,,,,,,,,,,,,,,,,,,,,,,,,,,,,,,,,,,,,,,,,,,,,,1.7974,925.5945097,None,None,1,925.5945097,None,,P034,fencog,1,Post,2022_Apr_14_1158,N-Back (New Version 2021),2021.1.4,119.9439142
,,,,Conditions/Version_1/oneback(4)_v1.xlsx,New rule: Press 'space' when you see 1-back (i.e. the same letter as the one that appeared 1 letter ago.),V,space,,,,,,,,,0,14,14,14,0,5,5,5,,,,,,,,,,,,,,,,,,,,,,,,,,,,,,,,,,,,,,,,,,,,,,,,,,,,,,,,,,,,,,,,,,,,,1.7726,929.3861706,None,None,0,929.3861706,None,,P034,fencog,1,Post,2022_Apr_14_1158,N-Back (New Version 2021),2021.1.4,119.9439142
,,,,Conditions/Version_1/oneback(4)_v1.xlsx,New rule: Press 'space' when you see 1-back (i.e. the same letter as the one that appeared 1 letter ago.),v,space,,,,,,,,,0,14,14,14,0,6,6,6,,,,,,,,,,,,,,,,,,,,,,,,,,,,,,,,,,,,,,,,,,,,,,,,,,,,,,,,,,,,,,,,,,,,,1.4192,932.8073439,None,space,1,932.8073439,None,0.8091435,P034,fencog,1,Post,2022_Apr_14_1158,N-Back (New Version 2021),2021.1.4,119.9439142
,,,,Conditions/Version_1/oneback(4)_v1.xlsx,New rule: Press 'space' when you see 1-back (i.e. the same letter as the one that appeared 1 letter ago.),p,None,,,,,,,,,0,14,14,14,0,7,7,7,,,,,,,,,,,,,,,,,,,,,,,,,,,,,,,,,,,,,,,,,,,,,,,,,,,,,,,,,,,,,,,,,,,,,1.94,936.7481582,None,None,1,936.7481582,None,,P034,fencog,1,Post,2022_Apr_14_1158,N-Back (New Version 2021),2021.1.4,119.9439142
,,,,Conditions/Version_1/oneback(4)_v1.xlsx,New rule: Press 'space' when you see 1-back (i.e. the same letter as the one that appeared 1 letter ago.),w,None,,,,,,,,,0,14,14,14,0,8,8,8,,,,,,,,,,,,,,,,,,,,,,,,,,,,,,,,,,,,,,,,,,,,,,,,,,,,,,,,,,,,,,,,,,,,,1.7602,940.517236,None,None,1,940.517236,None,,P034,fencog,1,Post,2022_Apr_14_1158,N-Back (New Version 2021),2021.1.4,119.9439142
,,,,Conditions/Version_1/oneback(4)_v1.xlsx,New rule: Press 'space' when you see 1-back (i.e. the same letter as the one that appeared 1 letter ago.),W,space,,,,,,,,,0,14,14,14,0,9,9,9,,,,,,,,,,,,,,,,,,,,,,,,,,,,,,,,,,,,,,,,,,,,,,,,,,,,,,,,,,,,,,,,,,,,,1.1898,943.7126066,None,space,1,943.7126066,None,0.4957717,P034,fencog,1,Post,2022_Apr_14_1158,N-Back (New Version 2021),2021.1.4,119.9439142
,,,,Conditions/Version_1/oneback(4)_v1.xlsx,New rule: Press 'space' when you see 1-back (i.e. the same letter as the one that appeared 1 letter ago.),,,,,,,,,,,0,14,14,14,,,,,,,,,,,,,,,,,,,,,,,,,,,,,,,,,,,,,,,,,,,,,,,,,,,,,,,,,,,,,,,,,,,,,,,,,,,,,,,,,P034,fencog,1,Post,2022_Apr_14_1158,N-Back (New Version 2021),2021.1.4,119.9439142
,,,,Conditions/Version_1/threeback(4)_v1.xlsx,New rule: Press 'space' when you see 3-back (i.e. the same letter as the one that appeared 3 letters ago.),A,None,,,,,,,,,0,15,15,15,0,0,0,0,,,,,,,,,,,,,,,,,,,,,,,,,,,,,,,,,,,,,,,,,,,,,,,,,,,,,,,,,,,945.7366875,None,948.7218097,None,space,3.3186919,948.7218097,None,945.7366875,None,1.8842,953.9679309,None,None,1,953.9679309,None,,P034,fencog,1,Post,2022_Apr_14_1158,N-Back (New Version 2021),2021.1.4,119.9439142
,,,,Conditions/Version_1/threeback(4)_v1.xlsx,New rule: Press 'space' when you see 3-back (i.e. the same letter as the one that appeared 3 letters ago.),n,None,,,,,,,,,0,15,15,15,0,1,1,1,,,,,,,,,,,,,,,,,,,,,,,,,,,,,,,,,,,,,,,,,,,,,,,,,,,,,,,,,,,,,,,,,,,,,1.4254,957.4074902,None,None,1,957.4074902,None,,P034,fencog,1,Post,2022_Apr_14_1158,N-Back (New Version 2021),2021.1.4,119.9439142
,,,,Conditions/Version_1/threeback(4)_v1.xlsx,New rule: Press 'space' when you see 3-back (i.e. the same letter as the one that appeared 3 letters ago.),g,None,,,,,,,,,0,15,15,15,0,2,2,2,,,,,,,,,,,,,,,,,,,,,,,,,,,,,,,,,,,,,,,,,,,,,,,,,,,,,,,,,,,,,,,,,,,,,1.6982,961.109137,None,None,1,961.109137,None,,P034,fencog,1,Post,2022_Apr_14_1158,N-Back (New Version 2021),2021.1.4,119.9439142
,,,,Conditions/Version_1/threeback(4)_v1.xlsx,New rule: Press 'space' when you see 3-back (i.e. the same letter as the one that appeared 3 letters ago.),A,space,,,,,,,,,0,15,15,15,0,3,3,3,,,,,,,,,,,,,,,,,,,,,,,,,,,,,,,,,,,,,,,,,,,,,,,,,,,,,,,,,,,,,,,,,,,,,1.4626,964.5729282,None,space,1,964.5729282,None,0.6993775,P034,fencog,1,Post,2022_Apr_14_1158,N-Back (New Version 2021),2021.1.4,119.9439142
,,,,Conditions/Version_1/threeback(4)_v1.xlsx,New rule: Press 'space' when you see 3-back (i.e. the same letter as the one that appeared 3 letters ago.),p,None,,,,,,,,,0,15,15,15,0,4,4,4,,,,,,,,,,,,,,,,,,,,,,,,,,,,,,,,,,,,,,,,,,,,,,,,,,,,,,,,,,,,,,,,,,,,,1.3386,967.919999,None,None,1,967.919999,None,,P034,fencog,1,Post,2022_Apr_14_1158,N-Back (New Version 2021),2021.1.4,119.9439142
,,,,Conditions/Version_1/threeback(4)_v1.xlsx,New rule: Press 'space' when you see 3-back (i.e. the same letter as the one that appeared 3 letters ago.),O,None,,,,,,,,,0,15,15,15,0,5,5,5,,,,,,,,,,,,,,,,,,,,,,,,,,,,,,,,,,,,,,,,,,,,,,,,,,,,,,,,,,,,,,,,,,,,,1.2456,971.1719266,None,None,1,971.1719266,None,,P034,fencog,1,Post,2022_Apr_14_1158,N-Back (New Version 2021),2021.1.4,119.9439142
,,,,Conditions/Version_1/threeback(4)_v1.xlsx,New rule: Press 'space' when you see 3-back (i.e. the same letter as the one that appeared 3 letters ago.),a,space,,,,,,,,,0,15,15,15,0,6,6,6,,,,,,,,,,,,,,,,,,,,,,,,,,,,,,,,,,,,,,,,,,,,,,,,,,,,,,,,,,,,,,,,,,,,,1.568,974.7534261,None,space,1,974.7534261,None,0.7747888,P034,fencog,1,Post,2022_Apr_14_1158,N-Back (New Version 2021),2021.1.4,119.9439142
,,,,Conditions/Version_1/threeback(4)_v1.xlsx,New rule: Press 'space' when you see 3-back (i.e. the same letter as the one that appeared 3 letters ago.),p,space,,,,,,,,,0,15,15,15,0,7,7,7,,,,,,,,,,,,,,,,,,,,,,,,,,,,,,,,,,,,,,,,,,,,,,,,,,,,,,,,,,,,,,,,,,,,,1.8098,978.5698056,None,space,1,978.5698056,None,0.414494,P034,fencog,1,Post,2022_Apr_14_1158,N-Back (New Version 2021),2021.1.4,119.9439142
,,,,Conditions/Version_1/threeback(4)_v1.xlsx,New rule: Press 'space' when you see 3-back (i.e. the same letter as the one that appeared 3 letters ago.),x,None,,,,,,,,,0,15,15,15,0,8,8,8,,,,,,,,,,,,,,,,,,,,,,,,,,,,,,,,,,,,,,,,,,,,,,,,,,,,,,,,,,,,,,,,,,,,,1.2642,981.8450513,None,None,1,981.8450513,None,,P034,fencog,1,Post,2022_Apr_14_1158,N-Back (New Version 2021),2021.1.4,119.9439142
,,,,Conditions/Version_1/threeback(4)_v1.xlsx,New rule: Press 'space' when you see 3-back (i.e. the same letter as the one that appeared 3 letters ago.),X,None,,,,,,,,,0,15,15,15,0,9,9,9,,,,,,,,,,,,,,,,,,,,,,,,,,,,,,,,,,,,,,,,,,,,,,,,,,,,,,,,,,,,,,,,,,,,,1.0534,984.9130911,None,space,0,984.9130911,None,1.3271995,P034,fencog,1,Post,2022_Apr_14_1158,N-Back (New Version 2021),2021.1.4,119.9439142
,,,,Conditions/Version_1/threeback(4)_v1.xlsx,New rule: Press 'space' when you see 3-back (i.e. the same letter as the one that appeared 3 letters ago.),,,,,,,,,,,0,15,15,15,,,,,,,,,,,,,,,,,,,,,,,,,,,,,,,,,,,,,,,,,,,,,,,,,,,,,,,,,,,,,,,,,,,,,,,,,,,,,,,,,P034,fencog,1,Post,2022_Apr_14_1158,N-Back (New Version 2021),2021.1.4,119.9439142
