CondFileP,InstructionsP,LettersDisplayedP,CorrectnessP,CondFile,Instructions,LettersDisplayed,Correctness,practicetrials.thisRepN,practicetrials.thisTrialN,practicetrials.thisN,practicetrials.thisIndex,InnerLoopPractice.thisRepN,InnerLoopPractice.thisTrialN,InnerLoopPractice.thisN,InnerLoopPractice.thisIndex,trials.thisRepN,trials.thisTrialN,trials.thisN,trials.thisIndex,InnerLoop.thisRepN,InnerLoop.thisTrialN,InnerLoop.thisN,InnerLoop.thisIndex,TaskVersionText.started,TaskVersionText.stopped,InstrKey1.keys,InstrKey1.rt,InstrKey1.started,InstrKey1.stopped,text.started,text.stopped,key_resp_4.keys,key_resp_4.rt,key_resp_4.started,key_resp_4.stopped,text_2.started,text_2.stopped,key_resp_3.keys,key_resp_3.rt,key_resp_3.started,key_resp_3.stopped,text_3.started,text_3.stopped,key_resp_2.keys,key_resp_2.rt,key_resp_2.started,key_resp_2.stopped,PractIn1.started,PractIn1.stopped,PractIn2.started,PractIn2.stopped,PractInstructionPass.keys,PractInstructionPass.rt,PractInstructionPass.started,PractInstructionPass.stopped,PractBlock1.started,PractBlock1.stopped,ISIjitterPractice,ISI_Pract_Fixation.started,ISI_Pract_Fixation.stopped,N_backP.started,N_backP.stopped,KeyPractice.keys,KeyPractice.corr,KeyPractice.started,KeyPractice.stopped,text_4.started,text_4.stopped,KeyPractice.rt,TransitionText.started,TransitionText.stopped,key_resp_6.keys,key_resp_6.rt,key_resp_6.started,key_resp_6.stopped,text_5.started,text_5.stopped,key_resp_5.keys,key_resp_5.rt,key_resp_5.started,key_resp_5.stopped,MainInt1.started,MainInt1.stopped,MainInt2.started,MainInt2.stopped,InstructionPass.keys,InstructionPass.rt,InstructionPass.started,InstructionPass.stopped,Blocks1.started,Blocks1.stopped,ISIjitter,N_backD.started,N_backD.stopped,key_resp.keys,key_resp.corr,key_resp.started,key_resp.stopped,key_resp.rt,participant,Study Name,Task Version (required to run),PRE/POST,date,expName,psychopyVersion,frameRate,
,,,,,,,,,,,,,,,,,,,,,,,,28.783854999999676,None,space,221.74505699999963,29.278457799999615,None,,,,,,,,,,,,,,,,,,,,,,,,,,,,,,,,,,,,,,,,,,,,,,,,,,,,,,,,,,,,,,,,,,,,,,,P035,FENCOG,1,Pre,2022_Apr_11_1143,N-Back (New Version 2021),2021.1.4,120.063153218133,
,,,,,,,,,,,,,,,,,,,,,,,,,,,,,,251.0604354000002,None,space,8.068717099999958,251.54660809999996,None,,,,,,,,,,,,,,,,,,,,,,,,,,,,,,,,,,,,,,,,,,,,,,,,,,,,,,,,,,,,,,,,,P035,FENCOG,1,Pre,2022_Apr_11_1143,N-Back (New Version 2021),2021.1.4,120.063153218133,
,,,,,,,,,,,,,,,,,,,,,,,,,,,,,,,,,,,,259.6527331000002,None,space,9.134614199999305,260.1448048999996,None,,,,,,,,,,,,,,,,,,,,,,,,,,,,,,,,,,,,,,,,,,,,,,,,,,,,,,,,,,,P035,FENCOG,1,Pre,2022_Apr_11_1143,N-Back (New Version 2021),2021.1.4,120.063153218133,
,,,,,,,,,,,,,,,,,,,,,,,,,,,,,,,,,,,,,,,,,,269.3273583999994,None,space,12.726983300000029,269.81634559999975,None,,,,,,,,,,,,,,,,,,,,,,,,,,,,,,,,,,,,,,,,,,,,,,,,,,,,,P035,FENCOG,1,Pre,2022_Apr_11_1143,N-Back (New Version 2021),2021.1.4,120.063153218133,
Conditions/Version_1Pr/zeroback(1)_v1.xlsx,Rule: Press 'space' when you see the letter 'x' or 'X'.,Z,None,,,,,0,0,0,0,0,0,0,0,,,,,,,,,,,,,,,,,,,,,,,,,,,,,,,,,283.9610031999996,None,286.94533269999965,None,space,3.4140925000001516,286.94533269999965,None,283.9610031999996,None,1.39,290.4030515999998,None,291.8045499999994,None,None,1,291.8045499999994,None,293.8015375,None,,,,,,,,,,,,,,,,,,,,,,,,,,,,,,,,P035,FENCOG,1,Pre,2022_Apr_11_1143,N-Back (New Version 2021),2021.1.4,120.063153218133,
Conditions/Version_1Pr/zeroback(1)_v1.xlsx,Rule: Press 'space' when you see the letter 'x' or 'X'.,r,None,,,,,0,0,0,0,0,1,1,1,,,,,,,,,,,,,,,,,,,,,,,,,,,,,,,,,,,,,,,,,,,1.065,295.2994864999996,None,296.3762425,None,None,1,296.3762425,None,298.37371699999994,None,,,,,,,,,,,,,,,,,,,,,,,,,,,,,,,,P035,FENCOG,1,Pre,2022_Apr_11_1143,N-Back (New Version 2021),2021.1.4,120.063153218133,
Conditions/Version_1Pr/zeroback(1)_v1.xlsx,Rule: Press 'space' when you see the letter 'x' or 'X'.,X,space,,,,,0,0,0,0,0,2,2,2,,,,,,,,,,,,,,,,,,,,,,,,,,,,,,,,,,,,,,,,,,,1.465,299.8731480000001,None,301.3421881999998,None,space,1,301.3421881999998,None,301.65762959999984,None,0.3052385000000868,,,,,,,,,,,,,,,,,,,,,,,,,,,,,,,P035,FENCOG,1,Pre,2022_Apr_11_1143,N-Back (New Version 2021),2021.1.4,120.063153218133,
Conditions/Version_1Pr/zeroback(1)_v1.xlsx,Rule: Press 'space' when you see the letter 'x' or 'X'.,p,None,,,,,0,0,0,0,0,3,3,3,,,,,,,,,,,,,,,,,,,,,,,,,,,,,,,,,,,,,,,,,,,1.915,303.1639315999996,None,305.0896200000002,None,None,1,305.0896200000002,None,307.0881937999998,None,,,,,,,,,,,,,,,,,,,,,,,,,,,,,,,,P035,FENCOG,1,Pre,2022_Apr_11_1143,N-Back (New Version 2021),2021.1.4,120.063153218133,
Conditions/Version_1Pr/zeroback(1)_v1.xlsx,Rule: Press 'space' when you see the letter 'x' or 'X'.,w,None,,,,,0,0,0,0,0,4,4,4,,,,,,,,,,,,,,,,,,,,,,,,,,,,,,,,,,,,,,,,,,,1.04,308.58739749999995,None,309.63221459999977,None,None,1,309.63221459999977,None,311.6365436000001,None,,,,,,,,,,,,,,,,,,,,,,,,,,,,,,,,P035,FENCOG,1,Pre,2022_Apr_11_1143,N-Back (New Version 2021),2021.1.4,120.063153218133,
Conditions/Version_1Pr/zeroback(1)_v1.xlsx,Rule: Press 'space' when you see the letter 'x' or 'X'.,e,None,,,,,0,0,0,0,0,5,5,5,,,,,,,,,,,,,,,,,,,,,,,,,,,,,,,,,,,,,,,,,,,1.365,313.1360310999994,None,314.5103211999999,None,None,1,314.5103211999999,None,316.5100400999995,None,,,,,,,,,,,,,,,,,,,,,,,,,,,,,,,,P035,FENCOG,1,Pre,2022_Apr_11_1143,N-Back (New Version 2021),2021.1.4,120.063153218133,
Conditions/Version_1Pr/zeroback(1)_v1.xlsx,Rule: Press 'space' when you see the letter 'x' or 'X'.,X,space,,,,,0,0,0,0,0,6,6,6,,,,,,,,,,,,,,,,,,,,,,,,,,,,,,,,,,,,,,,,,,,1.865,318.0096074999997,None,319.87671869999986,None,space,1,319.87671869999986,None,320.2262617000001,None,0.3384970000006433,,,,,,,,,,,,,,,,,,,,,,,,,,,,,,,P035,FENCOG,1,Pre,2022_Apr_11_1143,N-Back (New Version 2021),2021.1.4,120.063153218133,
Conditions/Version_1Pr/zeroback(1)_v1.xlsx,Rule: Press 'space' when you see the letter 'x' or 'X'.,x,space,,,,,0,0,0,0,0,7,7,7,,,,,,,,,,,,,,,,,,,,,,,,,,,,,,,,,,,,,,,,,,,1.59,321.72517130000006,None,323.31679639999993,None,space,1,323.31679639999993,None,323.7250061,None,0.39453380000031757,,,,,,,,,,,,,,,,,,,,,,,,,,,,,,,P035,FENCOG,1,Pre,2022_Apr_11_1143,N-Back (New Version 2021),2021.1.4,120.063153218133,
Conditions/Version_1Pr/zeroback(1)_v1.xlsx,Rule: Press 'space' when you see the letter 'x' or 'X'.,p,None,,,,,0,0,0,0,0,8,8,8,,,,,,,,,,,,,,,,,,,,,,,,,,,,,,,,,,,,,,,,,,,1.415,325.2239145999997,None,326.6415082999997,None,None,1,326.6415082999997,None,328.64815039999985,None,,,,,,,,,,,,,,,,,,,,,,,,,,,,,,,,P035,FENCOG,1,Pre,2022_Apr_11_1143,N-Back (New Version 2021),2021.1.4,120.063153218133,
Conditions/Version_1Pr/zeroback(1)_v1.xlsx,Rule: Press 'space' when you see the letter 'x' or 'X'.,r,None,,,,,0,0,0,0,0,9,9,9,,,,,,,,,,,,,,,,,,,,,,,,,,,,,,,,,,,,,,,,,,,1.315,330.14767989999973,None,331.46373279999943,None,space,0,331.46373279999943,None,331.8457883999995,None,0.3677819000004092,,,,,,,,,,,,,,,,,,,,,,,,,,,,,,,P035,FENCOG,1,Pre,2022_Apr_11_1143,N-Back (New Version 2021),2021.1.4,120.063153218133,
Conditions/Version_1Pr/zeroback(1)_v1.xlsx,Rule: Press 'space' when you see the letter 'x' or 'X'.,,,,,,,0,0,0,0,,,,,,,,,,,,,,,,,,,,,,,,,,,,,,,,,,,,,,,,,,,,,,,,,,,,,,,,,,,,,,,,,,,,,,,,,,,,,,,,,,,,,,,,,P035,FENCOG,1,Pre,2022_Apr_11_1143,N-Back (New Version 2021),2021.1.4,120.063153218133,
Conditions/Version_1Pr/oneback(1)_v1.xlsx,New rule: Press 'space' when you see 1-back (i.e. the same letter as the one that appeared 1 letter ago.),a,None,,,,,0,1,1,1,0,0,0,0,,,,,,,,,,,,,,,,,,,,,,,,,,,,,,,,,333.37098039999955,None,336.3556606999996,None,space,5.427867200000037,336.3556606999996,None,333.37098039999955,None,1.165,341.80860299999995,None,342.98094749999973,None,None,1,342.98094749999973,None,344.9850243999995,None,,,,,,,,,,,,,,,,,,,,,,,,,,,,,,,,P035,FENCOG,1,Pre,2022_Apr_11_1143,N-Back (New Version 2021),2021.1.4,120.063153218133,
Conditions/Version_1Pr/oneback(1)_v1.xlsx,New rule: Press 'space' when you see 1-back (i.e. the same letter as the one that appeared 1 letter ago.),x,None,,,,,0,1,1,1,0,1,1,1,,,,,,,,,,,,,,,,,,,,,,,,,,,,,,,,,,,,,,,,,,,1.715,346.48455479999984,None,348.2014468000002,None,None,1,348.2014468000002,None,350.20521979999967,None,,,,,,,,,,,,,,,,,,,,,,,,,,,,,,,,P035,FENCOG,1,Pre,2022_Apr_11_1143,N-Back (New Version 2021),2021.1.4,120.063153218133,
Conditions/Version_1Pr/oneback(1)_v1.xlsx,New rule: Press 'space' when you see 1-back (i.e. the same letter as the one that appeared 1 letter ago.),g,None,,,,,0,1,1,1,0,2,2,2,,,,,,,,,,,,,,,,,,,,,,,,,,,,,,,,,,,,,,,,,,,1.965,351.70789599999944,None,353.6842382,None,None,1,353.6842382,None,355.6817484999997,None,,,,,,,,,,,,,,,,,,,,,,,,,,,,,,,,P035,FENCOG,1,Pre,2022_Apr_11_1143,N-Back (New Version 2021),2021.1.4,120.063153218133,
Conditions/Version_1Pr/oneback(1)_v1.xlsx,New rule: Press 'space' when you see 1-back (i.e. the same letter as the one that appeared 1 letter ago.),G,space,,,,,0,1,1,1,0,3,3,3,,,,,,,,,,,,,,,,,,,,,,,,,,,,,,,,,,,,,,,,,,,1.265,357.18199199999935,None,358.45636819999936,None,space,1,358.45636819999936,None,358.8572309999995,None,0.39104070000030333,,,,,,,,,,,,,,,,,,,,,,,,,,,,,,,P035,FENCOG,1,Pre,2022_Apr_11_1143,N-Back (New Version 2021),2021.1.4,120.063153218133,
Conditions/Version_1Pr/oneback(1)_v1.xlsx,New rule: Press 'space' when you see 1-back (i.e. the same letter as the one that appeared 1 letter ago.),u,None,,,,,0,1,1,1,0,4,4,4,,,,,,,,,,,,,,,,,,,,,,,,,,,,,,,,,,,,,,,,,,,1.915,360.3655432999999,None,362.2805106999999,None,None,1,362.2805106999999,None,364.2876401999997,None,,,,,,,,,,,,,,,,,,,,,,,,,,,,,,,,P035,FENCOG,1,Pre,2022_Apr_11_1143,N-Back (New Version 2021),2021.1.4,120.063153218133,
Conditions/Version_1Pr/oneback(1)_v1.xlsx,New rule: Press 'space' when you see 1-back (i.e. the same letter as the one that appeared 1 letter ago.),y,None,,,,,0,1,1,1,0,5,5,5,,,,,,,,,,,,,,,,,,,,,,,,,,,,,,,,,,,,,,,,,,,1.665,365.7872204,None,367.45432310000024,None,None,1,367.45432310000024,None,369.4611165000001,None,,,,,,,,,,,,,,,,,,,,,,,,,,,,,,,,P035,FENCOG,1,Pre,2022_Apr_11_1143,N-Back (New Version 2021),2021.1.4,120.063153218133,
Conditions/Version_1Pr/oneback(1)_v1.xlsx,New rule: Press 'space' when you see 1-back (i.e. the same letter as the one that appeared 1 letter ago.),y,space,,,,,0,1,1,1,0,6,6,6,,,,,,,,,,,,,,,,,,,,,,,,,,,,,,,,,,,,,,,,,,,1.29,370.9606294,None,372.2519202999997,None,space,1,372.2519202999997,None,372.6117623999994,None,0.3475772000001598,,,,,,,,,,,,,,,,,,,,,,,,,,,,,,,P035,FENCOG,1,Pre,2022_Apr_11_1143,N-Back (New Version 2021),2021.1.4,120.063153218133,
Conditions/Version_1Pr/oneback(1)_v1.xlsx,New rule: Press 'space' when you see 1-back (i.e. the same letter as the one that appeared 1 letter ago.),k,None,,,,,0,1,1,1,0,7,7,7,,,,,,,,,,,,,,,,,,,,,,,,,,,,,,,,,,,,,,,,,,,1.49,374.1180897999998,None,375.60952039999984,None,None,1,375.60952039999984,None,377.6122719,None,,,,,,,,,,,,,,,,,,,,,,,,,,,,,,,,P035,FENCOG,1,Pre,2022_Apr_11_1143,N-Back (New Version 2021),2021.1.4,120.063153218133,
Conditions/Version_1Pr/oneback(1)_v1.xlsx,New rule: Press 'space' when you see 1-back (i.e. the same letter as the one that appeared 1 letter ago.),c,None,,,,,0,1,1,1,0,8,8,8,,,,,,,,,,,,,,,,,,,,,,,,,,,,,,,,,,,,,,,,,,,1.465,379.11653369999976,None,380.58642420000024,None,None,1,380.58642420000024,None,382.59058330000016,None,,,,,,,,,,,,,,,,,,,,,,,,,,,,,,,,P035,FENCOG,1,Pre,2022_Apr_11_1143,N-Back (New Version 2021),2021.1.4,120.063153218133,
Conditions/Version_1Pr/oneback(1)_v1.xlsx,New rule: Press 'space' when you see 1-back (i.e. the same letter as the one that appeared 1 letter ago.),r,None,,,,,0,1,1,1,0,9,9,9,,,,,,,,,,,,,,,,,,,,,,,,,,,,,,,,,,,,,,,,,,,1.34,384.0901326999997,None,385.43128750000005,None,None,1,385.43128750000005,None,387.4306657000002,None,,,,,,,,,,,,,,,,,,,,,,,,,,,,,,,,P035,FENCOG,1,Pre,2022_Apr_11_1143,N-Back (New Version 2021),2021.1.4,120.063153218133,
Conditions/Version_1Pr/oneback(1)_v1.xlsx,New rule: Press 'space' when you see 1-back (i.e. the same letter as the one that appeared 1 letter ago.),,,,,,,0,1,1,1,,,,,,,,,,,,,,,,,,,,,,,,,,,,,,,,,,,,,,,,,,,,,,,,,,,,,,,,,,,,,,,,,,,,,,,,,,,,,,,,,,,,,,,,,P035,FENCOG,1,Pre,2022_Apr_11_1143,N-Back (New Version 2021),2021.1.4,120.063153218133,
Conditions/Version_1Pr/twoback(1)_v1.xlsx,New rule: Press 'space' when you see 2-back (i.e. the same letter as the one that appeared 2 letters ago.),E,None,,,,,0,2,2,2,0,0,0,0,,,,,,,,,,,,,,,,,,,,,,,,,,,,,,,,,388.9547153999997,None,391.93969640000023,None,space,3.01988319999964,391.93969640000023,None,388.9547153999997,None,1.84,394.99817250000024,None,396.8481836999995,None,None,1,396.8481836999995,None,398.8548492999994,None,,,,,,,,,,,,,,,,,,,,,,,,,,,,,,,,P035,FENCOG,1,Pre,2022_Apr_11_1143,N-Back (New Version 2021),2021.1.4,120.063153218133,
Conditions/Version_1Pr/twoback(1)_v1.xlsx,New rule: Press 'space' when you see 2-back (i.e. the same letter as the one that appeared 2 letters ago.),p,None,,,,,0,2,2,2,0,1,1,1,,,,,,,,,,,,,,,,,,,,,,,,,,,,,,,,,,,,,,,,,,,1.165,400.3521047999998,None,401.5195526000002,None,None,1,401.5195526000002,None,403.5258504999997,None,,,,,,,,,,,,,,,,,,,,,,,,,,,,,,,,P035,FENCOG,1,Pre,2022_Apr_11_1143,N-Back (New Version 2021),2021.1.4,120.063153218133,
Conditions/Version_1Pr/twoback(1)_v1.xlsx,New rule: Press 'space' when you see 2-back (i.e. the same letter as the one that appeared 2 letters ago.),e,space,,,,,0,2,2,2,0,2,2,2,,,,,,,,,,,,,,,,,,,,,,,,,,,,,,,,,,,,,,,,,,,1.865,405.02648499999987,None,406.8915671999998,None,space,1,406.8915671999998,None,407.2596983999997,None,0.35618519999934506,,,,,,,,,,,,,,,,,,,,,,,,,,,,,,,P035,FENCOG,1,Pre,2022_Apr_11_1143,N-Back (New Version 2021),2021.1.4,120.063153218133,
Conditions/Version_1Pr/twoback(1)_v1.xlsx,New rule: Press 'space' when you see 2-back (i.e. the same letter as the one that appeared 2 letters ago.),s,None,,,,,0,2,2,2,0,3,3,3,,,,,,,,,,,,,,,,,,,,,,,,,,,,,,,,,,,,,,,,,,,1.74,408.7661575999996,None,410.5100732999995,None,None,1,410.5100732999995,None,412.5085216000002,None,,,,,,,,,,,,,,,,,,,,,,,,,,,,,,,,P035,FENCOG,1,Pre,2022_Apr_11_1143,N-Back (New Version 2021),2021.1.4,120.063153218133,
Conditions/Version_1Pr/twoback(1)_v1.xlsx,New rule: Press 'space' when you see 2-back (i.e. the same letter as the one that appeared 2 letters ago.),S,None,,,,,0,2,2,2,0,4,4,4,,,,,,,,,,,,,,,,,,,,,,,,,,,,,,,,,,,,,,,,,,,1.615,414.0146138999994,None,415.6352831999998,None,None,1,415.6352831999998,None,417.63857210000015,None,,,,,,,,,,,,,,,,,,,,,,,,,,,,,,,,P035,FENCOG,1,Pre,2022_Apr_11_1143,N-Back (New Version 2021),2021.1.4,120.063153218133,
Conditions/Version_1Pr/twoback(1)_v1.xlsx,New rule: Press 'space' when you see 2-back (i.e. the same letter as the one that appeared 2 letters ago.),s,space,,,,,0,2,2,2,0,5,5,5,,,,,,,,,,,,,,,,,,,,,,,,,,,,,,,,,,,,,,,,,,,1.89,419.1381116999996,None,421.03254460000016,None,space,1,421.03254460000016,None,421.3796639999996,None,0.33460419999937585,,,,,,,,,,,,,,,,,,,,,,,,,,,,,,,P035,FENCOG,1,Pre,2022_Apr_11_1143,N-Back (New Version 2021),2021.1.4,120.063153218133,
Conditions/Version_1Pr/twoback(1)_v1.xlsx,New rule: Press 'space' when you see 2-back (i.e. the same letter as the one that appeared 2 letters ago.),P,None,,,,,0,2,2,2,0,6,6,6,,,,,,,,,,,,,,,,,,,,,,,,,,,,,,,,,,,,,,,,,,,1.44,422.8869356,None,424.33352460000015,None,None,1,424.33352460000015,None,426.3360114000002,None,,,,,,,,,,,,,,,,,,,,,,,,,,,,,,,,P035,FENCOG,1,Pre,2022_Apr_11_1143,N-Back (New Version 2021),2021.1.4,120.063153218133,
Conditions/Version_1Pr/twoback(1)_v1.xlsx,New rule: Press 'space' when you see 2-back (i.e. the same letter as the one that appeared 2 letters ago.),C,None,,,,,0,2,2,2,0,7,7,7,,,,,,,,,,,,,,,,,,,,,,,,,,,,,,,,,,,,,,,,,,,1.34,427.8353917999998,None,429.18228279999994,None,None,1,429.18228279999994,None,431.1845465000001,None,,,,,,,,,,,,,,,,,,,,,,,,,,,,,,,,P035,FENCOG,1,Pre,2022_Apr_11_1143,N-Back (New Version 2021),2021.1.4,120.063153218133,
Conditions/Version_1Pr/twoback(1)_v1.xlsx,New rule: Press 'space' when you see 2-back (i.e. the same letter as the one that appeared 2 letters ago.),x,None,,,,,0,2,2,2,0,8,8,8,,,,,,,,,,,,,,,,,,,,,,,,,,,,,,,,,,,,,,,,,,,1.49,432.68415349999987,None,434.1761174999997,None,None,1,434.1761174999997,None,436.1830434999997,None,,,,,,,,,,,,,,,,,,,,,,,,,,,,,,,,P035,FENCOG,1,Pre,2022_Apr_11_1143,N-Back (New Version 2021),2021.1.4,120.063153218133,
Conditions/Version_1Pr/twoback(1)_v1.xlsx,New rule: Press 'space' when you see 2-back (i.e. the same letter as the one that appeared 2 letters ago.),Z,None,,,,,0,2,2,2,0,9,9,9,,,,,,,,,,,,,,,,,,,,,,,,,,,,,,,,,,,,,,,,,,,1.215,437.68257459999995,None,438.8988026000002,None,None,1,438.8988026000002,None,440.90413919999946,None,,,,,,,,,,,,,,,,,,,,,,,,,,,,,,,,P035,FENCOG,1,Pre,2022_Apr_11_1143,N-Back (New Version 2021),2021.1.4,120.063153218133,
Conditions/Version_1Pr/twoback(1)_v1.xlsx,New rule: Press 'space' when you see 2-back (i.e. the same letter as the one that appeared 2 letters ago.),,,,,,,0,2,2,2,,,,,,,,,,,,,,,,,,,,,,,,,,,,,,,,,,,,,,,,,,,,,,,,,,,,,,,,,,,,,,,,,,,,,,,,,,,,,,,,,,,,,,,,,P035,FENCOG,1,Pre,2022_Apr_11_1143,N-Back (New Version 2021),2021.1.4,120.063153218133,
Conditions/Version_1Pr/threeback(1)_v1.xlsx,New rule: Press 'space' when you see 3-back (i.e. the same letter as the one that appeared 3 letters ago.),r,None,,,,,0,3,3,3,0,0,0,0,,,,,,,,,,,,,,,,,,,,,,,,,,,,,,,,,442.43312879999985,None,445.4157223999996,None,space,3.7997103999996398,445.4157223999996,None,442.43312879999985,None,1.915,449.2423765999997,None,451.1627647999999,None,None,1,451.1627647999999,None,453.16979779999974,None,,,,,,,,,,,,,,,,,,,,,,,,,,,,,,,,P035,FENCOG,1,Pre,2022_Apr_11_1143,N-Back (New Version 2021),2021.1.4,120.063153218133,
Conditions/Version_1Pr/threeback(1)_v1.xlsx,New rule: Press 'space' when you see 3-back (i.e. the same letter as the one that appeared 3 letters ago.),a,None,,,,,0,3,3,3,0,1,1,1,,,,,,,,,,,,,,,,,,,,,,,,,,,,,,,,,,,,,,,,,,,1.99,454.66936119999946,None,456.6601317999998,None,None,1,456.6601317999998,None,458.6650913999997,None,,,,,,,,,,,,,,,,,,,,,,,,,,,,,,,,P035,FENCOG,1,Pre,2022_Apr_11_1143,N-Back (New Version 2021),2021.1.4,120.063153218133,
Conditions/Version_1Pr/threeback(1)_v1.xlsx,New rule: Press 'space' when you see 3-back (i.e. the same letter as the one that appeared 3 letters ago.),t,None,,,,,0,3,3,3,0,2,2,2,,,,,,,,,,,,,,,,,,,,,,,,,,,,,,,,,,,,,,,,,,,1.19,460.16763779999974,None,461.3620120999999,None,None,1,461.3620120999999,None,463.36667089999946,None,,,,,,,,,,,,,,,,,,,,,,,,,,,,,,,,P035,FENCOG,1,Pre,2022_Apr_11_1143,N-Back (New Version 2021),2021.1.4,120.063153218133,
Conditions/Version_1Pr/threeback(1)_v1.xlsx,New rule: Press 'space' when you see 3-back (i.e. the same letter as the one that appeared 3 letters ago.),r,space,,,,,0,3,3,3,0,3,3,3,,,,,,,,,,,,,,,,,,,,,,,,,,,,,,,,,,,,,,,,,,,1.49,464.8663596000001,None,466.3579687999995,None,space,1,466.3579687999995,None,466.7068614999994,None,0.337328499999785,,,,,,,,,,,,,,,,,,,,,,,,,,,,,,,P035,FENCOG,1,Pre,2022_Apr_11_1143,N-Back (New Version 2021),2021.1.4,120.063153218133,
Conditions/Version_1Pr/threeback(1)_v1.xlsx,New rule: Press 'space' when you see 3-back (i.e. the same letter as the one that appeared 3 letters ago.),a,None,,,,,0,3,3,3,0,4,4,4,,,,,,,,,,,,,,,,,,,,,,,,,,,,,,,,,,,,,,,,,,,1.34,468.20694890000004,None,469.55554470000015,None,space,0,469.55554470000015,None,469.92587760000015,None,0.35568049999983486,,,,,,,,,,,,,,,,,,,,,,,,,,,,,,,P035,FENCOG,1,Pre,2022_Apr_11_1143,N-Back (New Version 2021),2021.1.4,120.063153218133,
Conditions/Version_1Pr/threeback(1)_v1.xlsx,New rule: Press 'space' when you see 3-back (i.e. the same letter as the one that appeared 3 letters ago.),Y,None,,,,,0,3,3,3,0,5,5,5,,,,,,,,,,,,,,,,,,,,,,,,,,,,,,,,,,,,,,,,,,,1.665,471.43494129999954,None,473.1075839,None,None,1,473.1075839,None,475.1146088999999,None,,,,,,,,,,,,,,,,,,,,,,,,,,,,,,,,P035,FENCOG,1,Pre,2022_Apr_11_1143,N-Back (New Version 2021),2021.1.4,120.063153218133,
Conditions/Version_1Pr/threeback(1)_v1.xlsx,New rule: Press 'space' when you see 3-back (i.e. the same letter as the one that appeared 3 letters ago.),q,None,,,,,0,3,3,3,0,6,6,6,,,,,,,,,,,,,,,,,,,,,,,,,,,,,,,,,,,,,,,,,,,1.39,476.61280149999993,None,478.0058555999999,None,None,1,478.0058555999999,None,480.0118169000002,None,,,,,,,,,,,,,,,,,,,,,,,,,,,,,,,,P035,FENCOG,1,Pre,2022_Apr_11_1143,N-Back (New Version 2021),2021.1.4,120.063153218133,
Conditions/Version_1Pr/threeback(1)_v1.xlsx,New rule: Press 'space' when you see 3-back (i.e. the same letter as the one that appeared 3 letters ago.),A,space,,,,,0,3,3,3,0,7,7,7,,,,,,,,,,,,,,,,,,,,,,,,,,,,,,,,,,,,,,,,,,,1.44,481.5111684999997,None,482.95424779999985,None,space,1,482.95424779999985,None,483.4445555999996,None,0.47697799999968993,,,,,,,,,,,,,,,,,,,,,,,,,,,,,,,P035,FENCOG,1,Pre,2022_Apr_11_1143,N-Back (New Version 2021),2021.1.4,120.063153218133,
Conditions/Version_1Pr/threeback(1)_v1.xlsx,New rule: Press 'space' when you see 3-back (i.e. the same letter as the one that appeared 3 letters ago.),y,None,,,,,0,3,3,3,0,8,8,8,,,,,,,,,,,,,,,,,,,,,,,,,,,,,,,,,,,,,,,,,,,1.565,484.9556571999997,None,486.5262910999995,None,space,0,486.5262910999995,None,486.84730379999974,None,0.3050888000007035,,,,,,,,,,,,,,,,,,,,,,,,,,,,,,,P035,FENCOG,1,Pre,2022_Apr_11_1143,N-Back (New Version 2021),2021.1.4,120.063153218133,
Conditions/Version_1Pr/threeback(1)_v1.xlsx,New rule: Press 'space' when you see 3-back (i.e. the same letter as the one that appeared 3 letters ago.),r,None,,,,,0,3,3,3,0,9,9,9,,,,,,,,,,,,,,,,,,,,,,,,,,,,,,,,,,,,,,,,,,,1.165,488.35076939999954,None,489.5175373999996,None,space,0,489.5175373999996,None,490.2591074999996,None,0.7296357999994143,,,,,,,,,,,,,,,,,,,,,,,,,,,,,,,P035,FENCOG,1,Pre,2022_Apr_11_1143,N-Back (New Version 2021),2021.1.4,120.063153218133,
Conditions/Version_1Pr/threeback(1)_v1.xlsx,New rule: Press 'space' when you see 3-back (i.e. the same letter as the one that appeared 3 letters ago.),,,,,,,0,3,3,3,,,,,,,,,,,,,,,,,,,,,,,,,,,,,,,,,,,,,,,,,,,,,,,,,,,,,,,,,,,,,,,,,,,,,,,,,,,,,,,,,,,,,,,,,P035,FENCOG,1,Pre,2022_Apr_11_1143,N-Back (New Version 2021),2021.1.4,120.063153218133,
,,,,,,,,,,,,,,,,,,,,,,,,,,,,,,,,,,,,,,,,,,,,,,,,,,,,,,,,,,,,,,,,,,,,,,491.76671099999976,None,space,20.516750499999944,492.2584743000002,None,,,,,,,,,,,,,,,,,,,,,,,,,P035,FENCOG,1,Pre,2022_Apr_11_1143,N-Back (New Version 2021),2021.1.4,120.063153218133,
,,,,,,,,,,,,,,,,,,,,,,,,,,,,,,,,,,,,,,,,,,,,,,,,,,,,,,,,,,,,,,,,,,,,,,,,,,,,512.8064736000001,None,space,4.055037899999661,513.3042402999995,None,,,,,,,,,,,,,,,,,,,P035,FENCOG,1,Pre,2022_Apr_11_1143,N-Back (New Version 2021),2021.1.4,120.063153218133,
,,,,Conditions/Version_1/zeroback(1)_v1.xlsx,Rule: Press 'space' when you see the letter 'x' or 'X'.,b,None,,,,,,,,,0,0,0,0,0,0,0,0,,,,,,,,,,,,,,,,,,,,,,,,,,,,,,,,,,,,,,,,,,,,,,,,,,,,,,,,,,,517.4695087999994,None,520.4601149999994,None,space,4.723411499999202,520.4601149999994,None,517.4695087999994,None,1.8966,527.1217477999994,None,None,1,527.1217477999994,None,,P035,FENCOG,1,Pre,2022_Apr_11_1143,N-Back (New Version 2021),2021.1.4,120.063153218133,
,,,,Conditions/Version_1/zeroback(1)_v1.xlsx,Rule: Press 'space' when you see the letter 'x' or 'X'.,T,None,,,,,,,,,0,0,0,0,0,1,1,1,,,,,,,,,,,,,,,,,,,,,,,,,,,,,,,,,,,,,,,,,,,,,,,,,,,,,,,,,,,,,,,,,,,,,1.4192,530.5526452999998,None,None,1,530.5526452999998,None,,P035,FENCOG,1,Pre,2022_Apr_11_1143,N-Back (New Version 2021),2021.1.4,120.063153218133,
,,,,Conditions/Version_1/zeroback(1)_v1.xlsx,Rule: Press 'space' when you see the letter 'x' or 'X'.,L,None,,,,,,,,,0,0,0,0,0,2,2,2,,,,,,,,,,,,,,,,,,,,,,,,,,,,,,,,,,,,,,,,,,,,,,,,,,,,,,,,,,,,,,,,,,,,,1.196,533.7564186999994,None,None,1,533.7564186999994,None,,P035,FENCOG,1,Pre,2022_Apr_11_1143,N-Back (New Version 2021),2021.1.4,120.063153218133,
,,,,Conditions/Version_1/zeroback(1)_v1.xlsx,Rule: Press 'space' when you see the letter 'x' or 'X'.,x,space,,,,,,,,,0,0,0,0,0,3,3,3,,,,,,,,,,,,,,,,,,,,,,,,,,,,,,,,,,,,,,,,,,,,,,,,,,,,,,,,,,,,,,,,,,,,,1.2642,537.0280542999994,None,space,1,537.0280542999994,None,0.43531179999990854,P035,FENCOG,1,Pre,2022_Apr_11_1143,N-Back (New Version 2021),2021.1.4,120.063153218133,
,,,,Conditions/Version_1/zeroback(1)_v1.xlsx,Rule: Press 'space' when you see the letter 'x' or 'X'.,o,None,,,,,,,,,0,0,0,0,0,4,4,4,,,,,,,,,,,,,,,,,,,,,,,,,,,,,,,,,,,,,,,,,,,,,,,,,,,,,,,,,,,,,,,,,,,,,1.8594,540.8982489999994,None,None,1,540.8982489999994,None,,P035,FENCOG,1,Pre,2022_Apr_11_1143,N-Back (New Version 2021),2021.1.4,120.063153218133,
,,,,Conditions/Version_1/zeroback(1)_v1.xlsx,Rule: Press 'space' when you see the letter 'x' or 'X'.,P,None,,,,,,,,,0,0,0,0,0,5,5,5,,,,,,,,,,,,,,,,,,,,,,,,,,,,,,,,,,,,,,,,,,,,,,,,,,,,,,,,,,,,,,,,,,,,,1.5122,544.4175369,None,None,1,544.4175369,None,,P035,FENCOG,1,Pre,2022_Apr_11_1143,N-Back (New Version 2021),2021.1.4,120.063153218133,
,,,,Conditions/Version_1/zeroback(1)_v1.xlsx,Rule: Press 'space' when you see the letter 'x' or 'X'.,X,space,,,,,,,,,0,0,0,0,0,6,6,6,,,,,,,,,,,,,,,,,,,,,,,,,,,,,,,,,,,,,,,,,,,,,,,,,,,,,,,,,,,,,,,,,,,,,1.9958,548.4182497999996,None,space,1,548.4182497999996,None,0.3010364000001573,P035,FENCOG,1,Pre,2022_Apr_11_1143,N-Back (New Version 2021),2021.1.4,120.063153218133,
,,,,Conditions/Version_1/zeroback(1)_v1.xlsx,Rule: Press 'space' when you see the letter 'x' or 'X'.,n,None,,,,,,,,,0,0,0,0,0,7,7,7,,,,,,,,,,,,,,,,,,,,,,,,,,,,,,,,,,,,,,,,,,,,,,,,,,,,,,,,,,,,,,,,,,,,,1.413,551.8423573999994,None,None,1,551.8423573999994,None,,P035,FENCOG,1,Pre,2022_Apr_11_1143,N-Back (New Version 2021),2021.1.4,120.063153218133,
,,,,Conditions/Version_1/zeroback(1)_v1.xlsx,Rule: Press 'space' when you see the letter 'x' or 'X'.,M,None,,,,,,,,,0,0,0,0,0,8,8,8,,,,,,,,,,,,,,,,,,,,,,,,,,,,,,,,,,,,,,,,,,,,,,,,,,,,,,,,,,,,,,,,,,,,,1.2208,555.0746785999995,None,None,1,555.0746785999995,None,,P035,FENCOG,1,Pre,2022_Apr_11_1143,N-Back (New Version 2021),2021.1.4,120.063153218133,
,,,,Conditions/Version_1/zeroback(1)_v1.xlsx,Rule: Press 'space' when you see the letter 'x' or 'X'.,a,None,,,,,,,,,0,0,0,0,0,9,9,9,,,,,,,,,,,,,,,,,,,,,,,,,,,,,,,,,,,,,,,,,,,,,,,,,,,,,,,,,,,,,,,,,,,,,1.9834,559.0632101999995,None,None,1,559.0632101999995,None,,P035,FENCOG,1,Pre,2022_Apr_11_1143,N-Back (New Version 2021),2021.1.4,120.063153218133,
,,,,Conditions/Version_1/zeroback(1)_v1.xlsx,Rule: Press 'space' when you see the letter 'x' or 'X'.,,,,,,,,,,,0,0,0,0,,,,,,,,,,,,,,,,,,,,,,,,,,,,,,,,,,,,,,,,,,,,,,,,,,,,,,,,,,,,,,,,,,,,,,,,,,,,,,,,,P035,FENCOG,1,Pre,2022_Apr_11_1143,N-Back (New Version 2021),2021.1.4,120.063153218133,
,,,,Conditions/Version_1/oneback(1)_v1.xlsx,New rule: Press 'space' when you see 1-back (i.e. the same letter as the one that appeared 1 letter ago.),b,None,,,,,,,,,0,1,1,1,0,0,0,0,,,,,,,,,,,,,,,,,,,,,,,,,,,,,,,,,,,,,,,,,,,,,,,,,,,,,,,,,,,561.0845330999996,None,564.0730027999994,None,space,2.398319800000536,564.0730027999994,None,561.0845330999996,None,1.3076,567.8108181000002,None,None,1,567.8108181000002,None,,P035,FENCOG,1,Pre,2022_Apr_11_1143,N-Back (New Version 2021),2021.1.4,120.063153218133,
,,,,Conditions/Version_1/oneback(1)_v1.xlsx,New rule: Press 'space' when you see 1-back (i.e. the same letter as the one that appeared 1 letter ago.),p,None,,,,,,,,,0,1,1,1,0,1,1,1,,,,,,,,,,,,,,,,,,,,,,,,,,,,,,,,,,,,,,,,,,,,,,,,,,,,,,,,,,,,,,,,,,,,,1.2952,571.1101643999996,None,None,1,571.1101643999996,None,,P035,FENCOG,1,Pre,2022_Apr_11_1143,N-Back (New Version 2021),2021.1.4,120.063153218133,
,,,,Conditions/Version_1/oneback(1)_v1.xlsx,New rule: Press 'space' when you see 1-back (i.e. the same letter as the one that appeared 1 letter ago.),M,None,,,,,,,,,0,1,1,1,0,2,2,2,,,,,,,,,,,,,,,,,,,,,,,,,,,,,,,,,,,,,,,,,,,,,,,,,,,,,,,,,,,,,,,,,,,,,1.568,574.6846137999996,None,None,1,574.6846137999996,None,,P035,FENCOG,1,Pre,2022_Apr_11_1143,N-Back (New Version 2021),2021.1.4,120.063153218133,
,,,,Conditions/Version_1/oneback(1)_v1.xlsx,New rule: Press 'space' when you see 1-back (i.e. the same letter as the one that appeared 1 letter ago.),M,space,,,,,,,,,0,1,1,1,0,3,3,3,,,,,,,,,,,,,,,,,,,,,,,,,,,,,,,,,,,,,,,,,,,,,,,,,,,,,,,,,,,,,,,,,,,,,1.9896,578.6842689999999,None,space,1,578.6842689999999,None,0.33910150000065187,P035,FENCOG,1,Pre,2022_Apr_11_1143,N-Back (New Version 2021),2021.1.4,120.063153218133,
,,,,Conditions/Version_1/oneback(1)_v1.xlsx,New rule: Press 'space' when you see 1-back (i.e. the same letter as the one that appeared 1 letter ago.),n,None,,,,,,,,,0,1,1,1,0,4,4,4,,,,,,,,,,,,,,,,,,,,,,,,,,,,,,,,,,,,,,,,,,,,,,,,,,,,,,,,,,,,,,,,,,,,,1.7726,582.4649828999995,None,None,1,582.4649828999995,None,,P035,FENCOG,1,Pre,2022_Apr_11_1143,N-Back (New Version 2021),2021.1.4,120.063153218133,
,,,,Conditions/Version_1/oneback(1)_v1.xlsx,New rule: Press 'space' when you see 1-back (i.e. the same letter as the one that appeared 1 letter ago.),g,None,,,,,,,,,0,1,1,1,0,5,5,5,,,,,,,,,,,,,,,,,,,,,,,,,,,,,,,,,,,,,,,,,,,,,,,,,,,,,,,,,,,,,,,,,,,,,1.0968,585.5680608999996,None,None,1,585.5680608999996,None,,P035,FENCOG,1,Pre,2022_Apr_11_1143,N-Back (New Version 2021),2021.1.4,120.063153218133,
,,,,Conditions/Version_1/oneback(1)_v1.xlsx,New rule: Press 'space' when you see 1-back (i.e. the same letter as the one that appeared 1 letter ago.),P,None,,,,,,,,,0,1,1,1,0,6,6,6,,,,,,,,,,,,,,,,,,,,,,,,,,,,,,,,,,,,,,,,,,,,,,,,,,,,,,,,,,,,,,,,,,,,,1.1278,588.7054738000002,None,None,1,588.7054738000002,None,,P035,FENCOG,1,Pre,2022_Apr_11_1143,N-Back (New Version 2021),2021.1.4,120.063153218133,
,,,,Conditions/Version_1/oneback(1)_v1.xlsx,New rule: Press 'space' when you see 1-back (i.e. the same letter as the one that appeared 1 letter ago.),o,None,,,,,,,,,0,1,1,1,0,7,7,7,,,,,,,,,,,,,,,,,,,,,,,,,,,,,,,,,,,,,,,,,,,,,,,,,,,,,,,,,,,,,,,,,,,,,1.5432,592.2617390999999,None,None,1,592.2617390999999,None,,P035,FENCOG,1,Pre,2022_Apr_11_1143,N-Back (New Version 2021),2021.1.4,120.063153218133,
,,,,Conditions/Version_1/oneback(1)_v1.xlsx,New rule: Press 'space' when you see 1-back (i.e. the same letter as the one that appeared 1 letter ago.),f,None,,,,,,,,,0,1,1,1,0,8,8,8,,,,,,,,,,,,,,,,,,,,,,,,,,,,,,,,,,,,,,,,,,,,,,,,,,,,,,,,,,,,,,,,,,,,,1.3758,595.6453122999997,None,None,1,595.6453122999997,None,,P035,FENCOG,1,Pre,2022_Apr_11_1143,N-Back (New Version 2021),2021.1.4,120.063153218133,
,,,,Conditions/Version_1/oneback(1)_v1.xlsx,New rule: Press 'space' when you see 1-back (i.e. the same letter as the one that appeared 1 letter ago.),F,space,,,,,,,,,0,1,1,1,0,9,9,9,,,,,,,,,,,,,,,,,,,,,,,,,,,,,,,,,,,,,,,,,,,,,,,,,,,,,,,,,,,,,,,,,,,,,1.4998,599.1515851999998,None,space,1,599.1515851999998,None,0.29548460000023624,P035,FENCOG,1,Pre,2022_Apr_11_1143,N-Back (New Version 2021),2021.1.4,120.063153218133,
,,,,Conditions/Version_1/oneback(1)_v1.xlsx,New rule: Press 'space' when you see 1-back (i.e. the same letter as the one that appeared 1 letter ago.),,,,,,,,,,,0,1,1,1,,,,,,,,,,,,,,,,,,,,,,,,,,,,,,,,,,,,,,,,,,,,,,,,,,,,,,,,,,,,,,,,,,,,,,,,,,,,,,,,,P035,FENCOG,1,Pre,2022_Apr_11_1143,N-Back (New Version 2021),2021.1.4,120.063153218133,
,,,,Conditions/Version_1/twoback(1)_v1.xlsx,New rule: Press 'space' when you see 2-back (i.e. the same letter as the one that appeared 2 letters ago.),b,None,,,,,,,,,0,2,2,2,0,0,0,0,,,,,,,,,,,,,,,,,,,,,,,,,,,,,,,,,,,,,,,,,,,,,,,,,,,,,,,,,,,601.1736134999996,None,604.1602839000002,None,space,20.974859099999776,604.1602839000002,None,601.1736134999996,None,1.1774,626.3526544000001,None,None,1,626.3526544000001,None,,P035,FENCOG,1,Pre,2022_Apr_11_1143,N-Back (New Version 2021),2021.1.4,120.063153218133,
,,,,Conditions/Version_1/twoback(1)_v1.xlsx,New rule: Press 'space' when you see 2-back (i.e. the same letter as the one that appeared 2 letters ago.),h,None,,,,,,,,,0,2,2,2,0,1,1,1,,,,,,,,,,,,,,,,,,,,,,,,,,,,,,,,,,,,,,,,,,,,,,,,,,,,,,,,,,,,,,,,,,,,,1.1092,629.4739204000002,None,None,1,629.4739204000002,None,,P035,FENCOG,1,Pre,2022_Apr_11_1143,N-Back (New Version 2021),2021.1.4,120.063153218133,
,,,,Conditions/Version_1/twoback(1)_v1.xlsx,New rule: Press 'space' when you see 2-back (i.e. the same letter as the one that appeared 2 letters ago.),j,None,,,,,,,,,0,2,2,2,0,2,2,2,,,,,,,,,,,,,,,,,,,,,,,,,,,,,,,,,,,,,,,,,,,,,,,,,,,,,,,,,,,,,,,,,,,,,1.7788,633.2599335,None,None,1,633.2599335,None,,P035,FENCOG,1,Pre,2022_Apr_11_1143,N-Back (New Version 2021),2021.1.4,120.063153218133,
,,,,Conditions/Version_1/twoback(1)_v1.xlsx,New rule: Press 'space' when you see 2-back (i.e. the same letter as the one that appeared 2 letters ago.),H,space,,,,,,,,,0,2,2,2,0,3,3,3,,,,,,,,,,,,,,,,,,,,,,,,,,,,,,,,,,,,,,,,,,,,,,,,,,,,,,,,,,,,,,,,,,,,,1.9834,637.2502104,None,space,1,637.2502104,None,0.7333185000006779,P035,FENCOG,1,Pre,2022_Apr_11_1143,N-Back (New Version 2021),2021.1.4,120.063153218133,
,,,,Conditions/Version_1/twoback(1)_v1.xlsx,New rule: Press 'space' when you see 2-back (i.e. the same letter as the one that appeared 2 letters ago.),p,None,,,,,,,,,0,2,2,2,0,4,4,4,,,,,,,,,,,,,,,,,,,,,,,,,,,,,,,,,,,,,,,,,,,,,,,,,,,,,,,,,,,,,,,,,,,,,1.2208,640.4736075999995,None,None,1,640.4736075999995,None,,P035,FENCOG,1,Pre,2022_Apr_11_1143,N-Back (New Version 2021),2021.1.4,120.063153218133,
,,,,Conditions/Version_1/twoback(1)_v1.xlsx,New rule: Press 'space' when you see 2-back (i.e. the same letter as the one that appeared 2 letters ago.),p,None,,,,,,,,,0,2,2,2,0,5,5,5,,,,,,,,,,,,,,,,,,,,,,,,,,,,,,,,,,,,,,,,,,,,,,,,,,,,,,,,,,,,,,,,,,,,,1.1836,643.6637139,None,space,0,643.6637139,None,0.6555987000001551,P035,FENCOG,1,Pre,2022_Apr_11_1143,N-Back (New Version 2021),2021.1.4,120.063153218133,
,,,,Conditions/Version_1/twoback(1)_v1.xlsx,New rule: Press 'space' when you see 2-back (i.e. the same letter as the one that appeared 2 letters ago.),w,None,,,,,,,,,0,2,2,2,0,6,6,6,,,,,,,,,,,,,,,,,,,,,,,,,,,,,,,,,,,,,,,,,,,,,,,,,,,,,,,,,,,,,,,,,,,,,1.5432,647.2146195999999,None,None,1,647.2146195999999,None,,P035,FENCOG,1,Pre,2022_Apr_11_1143,N-Back (New Version 2021),2021.1.4,120.063153218133,
,,,,Conditions/Version_1/twoback(1)_v1.xlsx,New rule: Press 'space' when you see 2-back (i.e. the same letter as the one that appeared 2 letters ago.),R,None,,,,,,,,,0,2,2,2,0,7,7,7,,,,,,,,,,,,,,,,,,,,,,,,,,,,,,,,,,,,,,,,,,,,,,,,,,,,,,,,,,,,,,,,,,,,,1.103,650.3244527000002,None,None,1,650.3244527000002,None,,P035,FENCOG,1,Pre,2022_Apr_11_1143,N-Back (New Version 2021),2021.1.4,120.063153218133,
,,,,Conditions/Version_1/twoback(1)_v1.xlsx,New rule: Press 'space' when you see 2-back (i.e. the same letter as the one that appeared 2 letters ago.),a,None,,,,,,,,,0,2,2,2,0,8,8,8,,,,,,,,,,,,,,,,,,,,,,,,,,,,,,,,,,,,,,,,,,,,,,,,,,,,,,,,,,,,,,,,,,,,,1.785,654.1206207,None,None,1,654.1206207,None,,P035,FENCOG,1,Pre,2022_Apr_11_1143,N-Back (New Version 2021),2021.1.4,120.063153218133,
,,,,Conditions/Version_1/twoback(1)_v1.xlsx,New rule: Press 'space' when you see 2-back (i.e. the same letter as the one that appeared 2 letters ago.),r,space,,,,,,,,,0,2,2,2,0,9,9,9,,,,,,,,,,,,,,,,,,,,,,,,,,,,,,,,,,,,,,,,,,,,,,,,,,,,,,,,,,,,,,,,,,,,,1.4874,657.6179431999994,None,space,1,657.6179431999994,None,0.469324300000153,P035,FENCOG,1,Pre,2022_Apr_11_1143,N-Back (New Version 2021),2021.1.4,120.063153218133,
,,,,Conditions/Version_1/twoback(1)_v1.xlsx,New rule: Press 'space' when you see 2-back (i.e. the same letter as the one that appeared 2 letters ago.),,,,,,,,,,,0,2,2,2,,,,,,,,,,,,,,,,,,,,,,,,,,,,,,,,,,,,,,,,,,,,,,,,,,,,,,,,,,,,,,,,,,,,,,,,,,,,,,,,,P035,FENCOG,1,Pre,2022_Apr_11_1143,N-Back (New Version 2021),2021.1.4,120.063153218133,
,,,,Conditions/Version_1/threeback(1)_v1.xlsx,New rule: Press 'space' when you see 3-back (i.e. the same letter as the one that appeared 3 letters ago.),r,None,,,,,,,,,0,3,3,3,0,0,0,0,,,,,,,,,,,,,,,,,,,,,,,,,,,,,,,,,,,,,,,,,,,,,,,,,,,,,,,,,,,659.6494018999997,None,662.6260124999994,None,space,22.06129019999935,662.6260124999994,None,659.6494018999997,None,1.9214,686.642464,None,None,1,686.642464,None,,P035,FENCOG,1,Pre,2022_Apr_11_1143,N-Back (New Version 2021),2021.1.4,120.063153218133,
,,,,Conditions/Version_1/threeback(1)_v1.xlsx,New rule: Press 'space' when you see 3-back (i.e. the same letter as the one that appeared 3 letters ago.),o,None,,,,,,,,,0,3,3,3,0,1,1,1,,,,,,,,,,,,,,,,,,,,,,,,,,,,,,,,,,,,,,,,,,,,,,,,,,,,,,,,,,,,,,,,,,,,,1.1712,689.8162821000001,None,None,1,689.8162821000001,None,,P035,FENCOG,1,Pre,2022_Apr_11_1143,N-Back (New Version 2021),2021.1.4,120.063153218133,
,,,,Conditions/Version_1/threeback(1)_v1.xlsx,New rule: Press 'space' when you see 3-back (i.e. the same letter as the one that appeared 3 letters ago.),P,None,,,,,,,,,0,3,3,3,0,2,2,2,,,,,,,,,,,,,,,,,,,,,,,,,,,,,,,,,,,,,,,,,,,,,,,,,,,,,,,,,,,,,,,,,,,,,1.0534,692.8737248000002,None,None,1,692.8737248000002,None,,P035,FENCOG,1,Pre,2022_Apr_11_1143,N-Back (New Version 2021),2021.1.4,120.063153218133,
,,,,Conditions/Version_1/threeback(1)_v1.xlsx,New rule: Press 'space' when you see 3-back (i.e. the same letter as the one that appeared 3 letters ago.),R,space,,,,,,,,,0,3,3,3,0,3,3,3,,,,,,,,,,,,,,,,,,,,,,,,,,,,,,,,,,,,,,,,,,,,,,,,,,,,,,,,,,,,,,,,,,,,,1.2456,696.1238269999999,None,space,1,696.1238269999999,None,0.3952196999998705,P035,FENCOG,1,Pre,2022_Apr_11_1143,N-Back (New Version 2021),2021.1.4,120.063153218133,
,,,,Conditions/Version_1/threeback(1)_v1.xlsx,New rule: Press 'space' when you see 3-back (i.e. the same letter as the one that appeared 3 letters ago.),p,None,,,,,,,,,0,3,3,3,0,4,4,4,,,,,,,,,,,,,,,,,,,,,,,,,,,,,,,,,,,,,,,,,,,,,,,,,,,,,,,,,,,,,,,,,,,,,1.5184,699.6578764999999,None,None,1,699.6578764999999,None,,P035,FENCOG,1,Pre,2022_Apr_11_1143,N-Back (New Version 2021),2021.1.4,120.063153218133,
,,,,Conditions/Version_1/threeback(1)_v1.xlsx,New rule: Press 'space' when you see 3-back (i.e. the same letter as the one that appeared 3 letters ago.),E,None,,,,,,,,,0,3,3,3,0,5,5,5,,,,,,,,,,,,,,,,,,,,,,,,,,,,,,,,,,,,,,,,,,,,,,,,,,,,,,,,,,,,,,,,,,,,,1.3882,703.0542552000002,None,None,1,703.0542552000002,None,,P035,FENCOG,1,Pre,2022_Apr_11_1143,N-Back (New Version 2021),2021.1.4,120.063153218133,
,,,,Conditions/Version_1/threeback(1)_v1.xlsx,New rule: Press 'space' when you see 3-back (i.e. the same letter as the one that appeared 3 letters ago.),e,None,,,,,,,,,0,3,3,3,0,6,6,6,,,,,,,,,,,,,,,,,,,,,,,,,,,,,,,,,,,,,,,,,,,,,,,,,,,,,,,,,,,,,,,,,,,,,1.5556,706.6197189999998,None,None,1,706.6197189999998,None,,P035,FENCOG,1,Pre,2022_Apr_11_1143,N-Back (New Version 2021),2021.1.4,120.063153218133,
,,,,Conditions/Version_1/threeback(1)_v1.xlsx,New rule: Press 'space' when you see 3-back (i.e. the same letter as the one that appeared 3 letters ago.),m,None,,,,,,,,,0,3,3,3,0,7,7,7,,,,,,,,,,,,,,,,,,,,,,,,,,,,,,,,,,,,,,,,,,,,,,,,,,,,,,,,,,,,,,,,,,,,,1.196,709.8220584999995,None,None,1,709.8220584999995,None,,P035,FENCOG,1,Pre,2022_Apr_11_1143,N-Back (New Version 2021),2021.1.4,120.063153218133,
,,,,Conditions/Version_1/threeback(1)_v1.xlsx,New rule: Press 'space' when you see 3-back (i.e. the same letter as the one that appeared 3 letters ago.),n,None,,,,,,,,,0,3,3,3,0,8,8,8,,,,,,,,,,,,,,,,,,,,,,,,,,,,,,,,,,,,,,,,,,,,,,,,,,,,,,,,,,,,,,,,,,,,,1.537,713.3677373999994,None,None,1,713.3677373999994,None,,P035,FENCOG,1,Pre,2022_Apr_11_1143,N-Back (New Version 2021),2021.1.4,120.063153218133,
,,,,Conditions/Version_1/threeback(1)_v1.xlsx,New rule: Press 'space' when you see 3-back (i.e. the same letter as the one that appeared 3 letters ago.),e,space,,,,,,,,,0,3,3,3,0,9,9,9,,,,,,,,,,,,,,,,,,,,,,,,,,,,,,,,,,,,,,,,,,,,,,,,,,,,,,,,,,,,,,,,,,,,,1.7168,717.0915940999998,None,space,1,717.0915940999998,None,0.3554754000006142,P035,FENCOG,1,Pre,2022_Apr_11_1143,N-Back (New Version 2021),2021.1.4,120.063153218133,
,,,,Conditions/Version_1/threeback(1)_v1.xlsx,New rule: Press 'space' when you see 3-back (i.e. the same letter as the one that appeared 3 letters ago.),,,,,,,,,,,0,3,3,3,,,,,,,,,,,,,,,,,,,,,,,,,,,,,,,,,,,,,,,,,,,,,,,,,,,,,,,,,,,,,,,,,,,,,,,,,,,,,,,,,P035,FENCOG,1,Pre,2022_Apr_11_1143,N-Back (New Version 2021),2021.1.4,120.063153218133,
,,,,Conditions/Version_1/oneback(2)_v1.xlsx,New rule: Press 'space' when you see 1-back (i.e. the same letter as the one that appeared 1 letter ago.),q,None,,,,,,,,,0,4,4,4,0,0,0,0,,,,,,,,,,,,,,,,,,,,,,,,,,,,,,,,,,,,,,,,,,,,,,,,,,,,,,,,,,,719.1259233999995,None,722.1096867000001,None,space,5.073359800000617,722.1096867000001,None,719.1259233999995,None,1.4068,728.6225904999997,None,None,1,728.6225904999997,None,,P035,FENCOG,1,Pre,2022_Apr_11_1143,N-Back (New Version 2021),2021.1.4,120.063153218133,
,,,,Conditions/Version_1/oneback(2)_v1.xlsx,New rule: Press 'space' when you see 1-back (i.e. the same letter as the one that appeared 1 letter ago.),Q,space,,,,,,,,,0,4,4,4,0,1,1,1,,,,,,,,,,,,,,,,,,,,,,,,,,,,,,,,,,,,,,,,,,,,,,,,,,,,,,,,,,,,,,,,,,,,,1.5804,732.2177004,None,space,1,732.2177004,None,0.4375585999996474,P035,FENCOG,1,Pre,2022_Apr_11_1143,N-Back (New Version 2021),2021.1.4,120.063153218133,
,,,,Conditions/Version_1/oneback(2)_v1.xlsx,New rule: Press 'space' when you see 1-back (i.e. the same letter as the one that appeared 1 letter ago.),P,None,,,,,,,,,0,4,4,4,0,2,2,2,,,,,,,,,,,,,,,,,,,,,,,,,,,,,,,,,,,,,,,,,,,,,,,,,,,,,,,,,,,,,,,,,,,,,1.9338,736.1526057999995,None,None,1,736.1526057999995,None,,P035,FENCOG,1,Pre,2022_Apr_11_1143,N-Back (New Version 2021),2021.1.4,120.063153218133,
,,,,Conditions/Version_1/oneback(2)_v1.xlsx,New rule: Press 'space' when you see 1-back (i.e. the same letter as the one that appeared 1 letter ago.),o,None,,,,,,,,,0,4,4,4,0,3,3,3,,,,,,,,,,,,,,,,,,,,,,,,,,,,,,,,,,,,,,,,,,,,,,,,,,,,,,,,,,,,,,,,,,,,,1.0534,739.2113503999994,None,None,1,739.2113503999994,None,,P035,FENCOG,1,Pre,2022_Apr_11_1143,N-Back (New Version 2021),2021.1.4,120.063153218133,
,,,,Conditions/Version_1/oneback(2)_v1.xlsx,New rule: Press 'space' when you see 1-back (i.e. the same letter as the one that appeared 1 letter ago.),m,None,,,,,,,,,0,4,4,4,0,4,4,4,,,,,,,,,,,,,,,,,,,,,,,,,,,,,,,,,,,,,,,,,,,,,,,,,,,,,,,,,,,,,,,,,,,,,1.8098,743.0341686999996,None,None,1,743.0341686999996,None,,P035,FENCOG,1,Pre,2022_Apr_11_1143,N-Back (New Version 2021),2021.1.4,120.063153218133,
,,,,Conditions/Version_1/oneback(2)_v1.xlsx,New rule: Press 'space' when you see 1-back (i.e. the same letter as the one that appeared 1 letter ago.),Z,None,,,,,,,,,0,4,4,4,0,5,5,5,,,,,,,,,,,,,,,,,,,,,,,,,,,,,,,,,,,,,,,,,,,,,,,,,,,,,,,,,,,,,,,,,,,,,1.2642,746.3018975999998,None,None,1,746.3018975999998,None,,P035,FENCOG,1,Pre,2022_Apr_11_1143,N-Back (New Version 2021),2021.1.4,120.063153218133,
,,,,Conditions/Version_1/oneback(2)_v1.xlsx,New rule: Press 'space' when you see 1-back (i.e. the same letter as the one that appeared 1 letter ago.),c,None,,,,,,,,,0,4,4,4,0,6,6,6,,,,,,,,,,,,,,,,,,,,,,,,,,,,,,,,,,,,,,,,,,,,,,,,,,,,,,,,,,,,,,,,,,,,,1.0782,749.3821469,None,None,1,749.3821469,None,,P035,FENCOG,1,Pre,2022_Apr_11_1143,N-Back (New Version 2021),2021.1.4,120.063153218133,
,,,,Conditions/Version_1/oneback(2)_v1.xlsx,New rule: Press 'space' when you see 1-back (i.e. the same letter as the one that appeared 1 letter ago.),c,space,,,,,,,,,0,4,4,4,0,7,7,7,,,,,,,,,,,,,,,,,,,,,,,,,,,,,,,,,,,,,,,,,,,,,,,,,,,,,,,,,,,,,,,,,,,,,1.537,752.9229522999999,None,space,1,752.9229522999999,None,0.35652350000054867,P035,FENCOG,1,Pre,2022_Apr_11_1143,N-Back (New Version 2021),2021.1.4,120.063153218133,
,,,,Conditions/Version_1/oneback(2)_v1.xlsx,New rule: Press 'space' when you see 1-back (i.e. the same letter as the one that appeared 1 letter ago.),P,None,,,,,,,,,0,4,4,4,0,8,8,8,,,,,,,,,,,,,,,,,,,,,,,,,,,,,,,,,,,,,,,,,,,,,,,,,,,,,,,,,,,,,,,,,,,,,1.0286,755.9561020999995,None,None,1,755.9561020999995,None,,P035,FENCOG,1,Pre,2022_Apr_11_1143,N-Back (New Version 2021),2021.1.4,120.063153218133,
,,,,Conditions/Version_1/oneback(2)_v1.xlsx,New rule: Press 'space' when you see 1-back (i.e. the same letter as the one that appeared 1 letter ago.),p,space,,,,,,,,,0,4,4,4,0,9,9,9,,,,,,,,,,,,,,,,,,,,,,,,,,,,,,,,,,,,,,,,,,,,,,,,,,,,,,,,,,,,,,,,,,,,,1.971,759.9415839999997,None,space,1,759.9415839999997,None,0.353442300000097,P035,FENCOG,1,Pre,2022_Apr_11_1143,N-Back (New Version 2021),2021.1.4,120.063153218133,
,,,,Conditions/Version_1/oneback(2)_v1.xlsx,New rule: Press 'space' when you see 1-back (i.e. the same letter as the one that appeared 1 letter ago.),,,,,,,,,,,0,4,4,4,,,,,,,,,,,,,,,,,,,,,,,,,,,,,,,,,,,,,,,,,,,,,,,,,,,,,,,,,,,,,,,,,,,,,,,,,,,,,,,,,P035,FENCOG,1,Pre,2022_Apr_11_1143,N-Back (New Version 2021),2021.1.4,120.063153218133,
,,,,Conditions/Version_1/zeroback(2)_v1.xlsx,New rule: Press 'space' when you see the letter 'x' or 'X'.,p,None,,,,,,,,,0,5,5,5,0,0,0,0,,,,,,,,,,,,,,,,,,,,,,,,,,,,,,,,,,,,,,,,,,,,,,,,,,,,,,,,,,,761.9589934,None,764.9460540999994,None,space,1.5169475000002421,764.9460540999994,None,761.9589934,None,1.0472,767.5435832999997,None,None,1,767.5435832999997,None,,P035,FENCOG,1,Pre,2022_Apr_11_1143,N-Back (New Version 2021),2021.1.4,120.063153218133,
,,,,Conditions/Version_1/zeroback(2)_v1.xlsx,New rule: Press 'space' when you see the letter 'x' or 'X'.,L,None,,,,,,,,,0,5,5,5,0,1,1,1,,,,,,,,,,,,,,,,,,,,,,,,,,,,,,,,,,,,,,,,,,,,,,,,,,,,,,,,,,,,,,,,,,,,,1.7292,771.2758398999999,None,None,1,771.2758398999999,None,,P035,FENCOG,1,Pre,2022_Apr_11_1143,N-Back (New Version 2021),2021.1.4,120.063153218133,
,,,,Conditions/Version_1/zeroback(2)_v1.xlsx,New rule: Press 'space' when you see the letter 'x' or 'X'.,G,None,,,,,,,,,0,5,5,5,0,2,2,2,,,,,,,,,,,,,,,,,,,,,,,,,,,,,,,,,,,,,,,,,,,,,,,,,,,,,,,,,,,,,,,,,,,,,1.8966,775.1744328,None,None,1,775.1744328,None,,P035,FENCOG,1,Pre,2022_Apr_11_1143,N-Back (New Version 2021),2021.1.4,120.063153218133,
,,,,Conditions/Version_1/zeroback(2)_v1.xlsx,New rule: Press 'space' when you see the letter 'x' or 'X'.,y,None,,,,,,,,,0,5,5,5,0,3,3,3,,,,,,,,,,,,,,,,,,,,,,,,,,,,,,,,,,,,,,,,,,,,,,,,,,,,,,,,,,,,,,,,,,,,,1.382,778.5569288000002,None,None,1,778.5569288000002,None,,P035,FENCOG,1,Pre,2022_Apr_11_1143,N-Back (New Version 2021),2021.1.4,120.063153218133,
,,,,Conditions/Version_1/zeroback(2)_v1.xlsx,New rule: Press 'space' when you see the letter 'x' or 'X'.,Y,None,,,,,,,,,0,5,5,5,0,4,4,4,,,,,,,,,,,,,,,,,,,,,,,,,,,,,,,,,,,,,,,,,,,,,,,,,,,,,,,,,,,,,,,,,,,,,1.289,781.8475605999997,None,space,0,781.8475605999997,None,0.8075245999998515,P035,FENCOG,1,Pre,2022_Apr_11_1143,N-Back (New Version 2021),2021.1.4,120.063153218133,
,,,,Conditions/Version_1/zeroback(2)_v1.xlsx,New rule: Press 'space' when you see the letter 'x' or 'X'.,W,None,,,,,,,,,0,5,5,5,0,5,5,5,,,,,,,,,,,,,,,,,,,,,,,,,,,,,,,,,,,,,,,,,,,,,,,,,,,,,,,,,,,,,,,,,,,,,1.8718,785.7268355000001,None,None,1,785.7268355000001,None,,P035,FENCOG,1,Pre,2022_Apr_11_1143,N-Back (New Version 2021),2021.1.4,120.063153218133,
,,,,Conditions/Version_1/zeroback(2)_v1.xlsx,New rule: Press 'space' when you see the letter 'x' or 'X'.,x,space,,,,,,,,,0,5,5,5,0,6,6,6,,,,,,,,,,,,,,,,,,,,,,,,,,,,,,,,,,,,,,,,,,,,,,,,,,,,,,,,,,,,,,,,,,,,,1.0534,788.7871106999996,None,space,1,788.7871106999996,None,0.37997939999968366,P035,FENCOG,1,Pre,2022_Apr_11_1143,N-Back (New Version 2021),2021.1.4,120.063153218133,
,,,,Conditions/Version_1/zeroback(2)_v1.xlsx,New rule: Press 'space' when you see the letter 'x' or 'X'.,X,space,,,,,,,,,0,5,5,5,0,7,7,7,,,,,,,,,,,,,,,,,,,,,,,,,,,,,,,,,,,,,,,,,,,,,,,,,,,,,,,,,,,,,,,,,,,,,1.0782,791.8727987999996,None,space,1,791.8727987999996,None,0.4543262000006507,P035,FENCOG,1,Pre,2022_Apr_11_1143,N-Back (New Version 2021),2021.1.4,120.063153218133,
,,,,Conditions/Version_1/zeroback(2)_v1.xlsx,New rule: Press 'space' when you see the letter 'x' or 'X'.,p,None,,,,,,,,,0,5,5,5,0,8,8,8,,,,,,,,,,,,,,,,,,,,,,,,,,,,,,,,,,,,,,,,,,,,,,,,,,,,,,,,,,,,,,,,,,,,,1.196,795.0769584999994,None,None,1,795.0769584999994,None,,P035,FENCOG,1,Pre,2022_Apr_11_1143,N-Back (New Version 2021),2021.1.4,120.063153218133,
,,,,Conditions/Version_1/zeroback(2)_v1.xlsx,New rule: Press 'space' when you see the letter 'x' or 'X'.,h,None,,,,,,,,,0,5,5,5,0,9,9,9,,,,,,,,,,,,,,,,,,,,,,,,,,,,,,,,,,,,,,,,,,,,,,,,,,,,,,,,,,,,,,,,,,,,,1.723,798.8007318999994,None,None,1,798.8007318999994,None,,P035,FENCOG,1,Pre,2022_Apr_11_1143,N-Back (New Version 2021),2021.1.4,120.063153218133,
,,,,Conditions/Version_1/zeroback(2)_v1.xlsx,New rule: Press 'space' when you see the letter 'x' or 'X'.,,,,,,,,,,,0,5,5,5,,,,,,,,,,,,,,,,,,,,,,,,,,,,,,,,,,,,,,,,,,,,,,,,,,,,,,,,,,,,,,,,,,,,,,,,,,,,,,,,,P035,FENCOG,1,Pre,2022_Apr_11_1143,N-Back (New Version 2021),2021.1.4,120.063153218133,
,,,,Conditions/Version_1/threeback(2)_v1.xlsx,New rule: Press 'space' when you see 3-back (i.e. the same letter as the one that appeared 3 letters ago.),q,None,,,,,,,,,0,6,6,6,0,0,0,0,,,,,,,,,,,,,,,,,,,,,,,,,,,,,,,,,,,,,,,,,,,,,,,,,,,,,,,,,,,800.8227241,None,803.8104420999994,None,space,66.81266919999962,803.8104420999994,None,800.8227241,None,1.9276,872.5798195000002,None,None,1,872.5798195000002,None,,P035,FENCOG,1,Pre,2022_Apr_11_1143,N-Back (New Version 2021),2021.1.4,120.063153218133,
,,,,Conditions/Version_1/threeback(2)_v1.xlsx,New rule: Press 'space' when you see 3-back (i.e. the same letter as the one that appeared 3 letters ago.),Y,None,,,,,,,,,0,6,6,6,0,1,1,1,,,,,,,,,,,,,,,,,,,,,,,,,,,,,,,,,,,,,,,,,,,,,,,,,,,,,,,,,,,,,,,,,,,,,1.6548,876.2445858999995,None,None,1,876.2445858999995,None,,P035,FENCOG,1,Pre,2022_Apr_11_1143,N-Back (New Version 2021),2021.1.4,120.063153218133,
,,,,Conditions/Version_1/threeback(2)_v1.xlsx,New rule: Press 'space' when you see 3-back (i.e. the same letter as the one that appeared 3 letters ago.),p,None,,,,,,,,,0,6,6,6,0,2,2,2,,,,,,,,,,,,,,,,,,,,,,,,,,,,,,,,,,,,,,,,,,,,,,,,,,,,,,,,,,,,,,,,,,,,,1.444,879.6936408999995,None,None,1,879.6936408999995,None,,P035,FENCOG,1,Pre,2022_Apr_11_1143,N-Back (New Version 2021),2021.1.4,120.063153218133,
,,,,Conditions/Version_1/threeback(2)_v1.xlsx,New rule: Press 'space' when you see 3-back (i.e. the same letter as the one that appeared 3 letters ago.),p,None,,,,,,,,,0,6,6,6,0,3,3,3,,,,,,,,,,,,,,,,,,,,,,,,,,,,,,,,,,,,,,,,,,,,,,,,,,,,,,,,,,,,,,,,,,,,,1.723,883.4177834999996,None,None,1,883.4177834999996,None,,P035,FENCOG,1,Pre,2022_Apr_11_1143,N-Back (New Version 2021),2021.1.4,120.063153218133,
,,,,Conditions/Version_1/threeback(2)_v1.xlsx,New rule: Press 'space' when you see 3-back (i.e. the same letter as the one that appeared 3 letters ago.),y,space,,,,,,,,,0,6,6,6,0,4,4,4,,,,,,,,,,,,,,,,,,,,,,,,,,,,,,,,,,,,,,,,,,,,,,,,,,,,,,,,,,,,,,,,,,,,,1.8098,887.2394543999994,None,space,1,887.2394543999994,None,0.34355779999987135,P035,FENCOG,1,Pre,2022_Apr_11_1143,N-Back (New Version 2021),2021.1.4,120.063153218133,
,,,,Conditions/Version_1/threeback(2)_v1.xlsx,New rule: Press 'space' when you see 3-back (i.e. the same letter as the one that appeared 3 letters ago.),u,None,,,,,,,,,0,6,6,6,0,5,5,5,,,,,,,,,,,,,,,,,,,,,,,,,,,,,,,,,,,,,,,,,,,,,,,,,,,,,,,,,,,,,,,,,,,,,1.6672,890.9079065999999,None,None,1,890.9079065999999,None,,P035,FENCOG,1,Pre,2022_Apr_11_1143,N-Back (New Version 2021),2021.1.4,120.063153218133,
,,,,Conditions/Version_1/threeback(2)_v1.xlsx,New rule: Press 'space' when you see 3-back (i.e. the same letter as the one that appeared 3 letters ago.),P,space,,,,,,,,,0,6,6,6,0,6,6,6,,,,,,,,,,,,,,,,,,,,,,,,,,,,,,,,,,,,,,,,,,,,,,,,,,,,,,,,,,,,,,,,,,,,,1.3572,894.2728819999998,None,space,1,894.2728819999998,None,0.3503053999993426,P035,FENCOG,1,Pre,2022_Apr_11_1143,N-Back (New Version 2021),2021.1.4,120.063153218133,
,,,,Conditions/Version_1/threeback(2)_v1.xlsx,New rule: Press 'space' when you see 3-back (i.e. the same letter as the one that appeared 3 letters ago.),a,None,,,,,,,,,0,6,6,6,0,7,7,7,,,,,,,,,,,,,,,,,,,,,,,,,,,,,,,,,,,,,,,,,,,,,,,,,,,,,,,,,,,,,,,,,,,,,1.5804,897.8548899000002,None,None,1,897.8548899000002,None,,P035,FENCOG,1,Pre,2022_Apr_11_1143,N-Back (New Version 2021),2021.1.4,120.063153218133,
,,,,Conditions/Version_1/threeback(2)_v1.xlsx,New rule: Press 'space' when you see 3-back (i.e. the same letter as the one that appeared 3 letters ago.),U,space,,,,,,,,,0,6,6,6,0,8,8,8,,,,,,,,,,,,,,,,,,,,,,,,,,,,,,,,,,,,,,,,,,,,,,,,,,,,,,,,,,,,,,,,,,,,,1.6176,901.4810000000002,None,space,1,901.4810000000002,None,0.3261312000004182,P035,FENCOG,1,Pre,2022_Apr_11_1143,N-Back (New Version 2021),2021.1.4,120.063153218133,
,,,,Conditions/Version_1/threeback(2)_v1.xlsx,New rule: Press 'space' when you see 3-back (i.e. the same letter as the one that appeared 3 letters ago.),q,None,,,,,,,,,0,6,6,6,0,9,9,9,,,,,,,,,,,,,,,,,,,,,,,,,,,,,,,,,,,,,,,,,,,,,,,,,,,,,,,,,,,,,,,,,,,,,1.475,904.9639144999996,None,space,0,904.9639144999996,None,0.3391814999995404,P035,FENCOG,1,Pre,2022_Apr_11_1143,N-Back (New Version 2021),2021.1.4,120.063153218133,
,,,,Conditions/Version_1/threeback(2)_v1.xlsx,New rule: Press 'space' when you see 3-back (i.e. the same letter as the one that appeared 3 letters ago.),,,,,,,,,,,0,6,6,6,,,,,,,,,,,,,,,,,,,,,,,,,,,,,,,,,,,,,,,,,,,,,,,,,,,,,,,,,,,,,,,,,,,,,,,,,,,,,,,,,P035,FENCOG,1,Pre,2022_Apr_11_1143,N-Back (New Version 2021),2021.1.4,120.063153218133,
,,,,Conditions/Version_1/twoback(2)_v1.xlsx,New rule: Press 'space' when you see 2-back (i.e. the same letter as the one that appeared 2 letters ago.),q,None,,,,,,,,,0,7,7,7,0,0,0,0,,,,,,,,,,,,,,,,,,,,,,,,,,,,,,,,,,,,,,,,,,,,,,,,,,,,,,,,,,,906.9929374999997,None,909.9790829999997,None,space,4.0520354000000225,909.9790829999997,None,906.9929374999997,None,1.2642,915.3264560000002,None,None,1,915.3264560000002,None,,P035,FENCOG,1,Pre,2022_Apr_11_1143,N-Back (New Version 2021),2021.1.4,120.063153218133,
,,,,Conditions/Version_1/twoback(2)_v1.xlsx,New rule: Press 'space' when you see 2-back (i.e. the same letter as the one that appeared 2 letters ago.),r,None,,,,,,,,,0,7,7,7,0,1,1,1,,,,,,,,,,,,,,,,,,,,,,,,,,,,,,,,,,,,,,,,,,,,,,,,,,,,,,,,,,,,,,,,,,,,,1.4254,918.7616922000002,None,None,1,918.7616922000002,None,,P035,FENCOG,1,Pre,2022_Apr_11_1143,N-Back (New Version 2021),2021.1.4,120.063153218133,
,,,,Conditions/Version_1/twoback(2)_v1.xlsx,New rule: Press 'space' when you see 2-back (i.e. the same letter as the one that appeared 2 letters ago.),q,space,,,,,,,,,0,7,7,7,0,2,2,2,,,,,,,,,,,,,,,,,,,,,,,,,,,,,,,,,,,,,,,,,,,,,,,,,,,,,,,,,,,,,,,,,,,,,1.2828,922.0477771000001,None,space,1,922.0477771000001,None,0.4391649999997753,P035,FENCOG,1,Pre,2022_Apr_11_1143,N-Back (New Version 2021),2021.1.4,120.063153218133,
,,,,Conditions/Version_1/twoback(2)_v1.xlsx,New rule: Press 'space' when you see 2-back (i.e. the same letter as the one that appeared 2 letters ago.),P,None,,,,,,,,,0,7,7,7,0,3,3,3,,,,,,,,,,,,,,,,,,,,,,,,,,,,,,,,,,,,,,,,,,,,,,,,,,,,,,,,,,,,,,,,,,,,,1.6362,925.6967189000002,None,None,1,925.6967189000002,None,,P035,FENCOG,1,Pre,2022_Apr_11_1143,N-Back (New Version 2021),2021.1.4,120.063153218133,
,,,,Conditions/Version_1/twoback(2)_v1.xlsx,New rule: Press 'space' when you see 2-back (i.e. the same letter as the one that appeared 2 letters ago.),p,None,,,,,,,,,0,7,7,7,0,4,4,4,,,,,,,,,,,,,,,,,,,,,,,,,,,,,,,,,,,,,,,,,,,,,,,,,,,,,,,,,,,,,,,,,,,,,1.0968,928.7958409999997,None,None,1,928.7958409999997,None,,P035,FENCOG,1,Pre,2022_Apr_11_1143,N-Back (New Version 2021),2021.1.4,120.063153218133,
,,,,Conditions/Version_1/twoback(2)_v1.xlsx,New rule: Press 'space' when you see 2-back (i.e. the same letter as the one that appeared 2 letters ago.),H,None,,,,,,,,,0,7,7,7,0,5,5,5,,,,,,,,,,,,,,,,,,,,,,,,,,,,,,,,,,,,,,,,,,,,,,,,,,,,,,,,,,,,,,,,,,,,,1.2766,932.0778907999998,None,None,1,932.0778907999998,None,,P035,FENCOG,1,Pre,2022_Apr_11_1143,N-Back (New Version 2021),2021.1.4,120.063153218133,
,,,,Conditions/Version_1/twoback(2)_v1.xlsx,New rule: Press 'space' when you see 2-back (i.e. the same letter as the one that appeared 2 letters ago.),g,None,,,,,,,,,0,7,7,7,0,6,6,6,,,,,,,,,,,,,,,,,,,,,,,,,,,,,,,,,,,,,,,,,,,,,,,,,,,,,,,,,,,,,,,,,,,,,1.7354,935.8187581999996,None,None,1,935.8187581999996,None,,P035,FENCOG,1,Pre,2022_Apr_11_1143,N-Back (New Version 2021),2021.1.4,120.063153218133,
,,,,Conditions/Version_1/twoback(2)_v1.xlsx,New rule: Press 'space' when you see 2-back (i.e. the same letter as the one that appeared 2 letters ago.),j,None,,,,,,,,,0,7,7,7,0,7,7,7,,,,,,,,,,,,,,,,,,,,,,,,,,,,,,,,,,,,,,,,,,,,,,,,,,,,,,,,,,,,,,,,,,,,,1.0348,938.8615427999998,None,None,1,938.8615427999998,None,,P035,FENCOG,1,Pre,2022_Apr_11_1143,N-Back (New Version 2021),2021.1.4,120.063153218133,
,,,,Conditions/Version_1/twoback(2)_v1.xlsx,New rule: Press 'space' when you see 2-back (i.e. the same letter as the one that appeared 2 letters ago.),g,space,,,,,,,,,0,7,7,7,0,8,8,8,,,,,,,,,,,,,,,,,,,,,,,,,,,,,,,,,,,,,,,,,,,,,,,,,,,,,,,,,,,,,,,,,,,,,1.4812,942.3500973999994,None,space,1,942.3500973999994,None,0.3131478999994215,P035,FENCOG,1,Pre,2022_Apr_11_1143,N-Back (New Version 2021),2021.1.4,120.063153218133,
,,,,Conditions/Version_1/twoback(2)_v1.xlsx,New rule: Press 'space' when you see 2-back (i.e. the same letter as the one that appeared 2 letters ago.),G,None,,,,,,,,,0,7,7,7,0,9,9,9,,,,,,,,,,,,,,,,,,,,,,,,,,,,,,,,,,,,,,,,,,,,,,,,,,,,,,,,,,,,,,,,,,,,,1.9214,946.2739772,None,None,1,946.2739772,None,,P035,FENCOG,1,Pre,2022_Apr_11_1143,N-Back (New Version 2021),2021.1.4,120.063153218133,
,,,,Conditions/Version_1/twoback(2)_v1.xlsx,New rule: Press 'space' when you see 2-back (i.e. the same letter as the one that appeared 2 letters ago.),,,,,,,,,,,0,7,7,7,,,,,,,,,,,,,,,,,,,,,,,,,,,,,,,,,,,,,,,,,,,,,,,,,,,,,,,,,,,,,,,,,,,,,,,,,,,,,,,,,P035,FENCOG,1,Pre,2022_Apr_11_1143,N-Back (New Version 2021),2021.1.4,120.063153218133,
,,,,Conditions/Version_1/threeback(3)_v1.xlsx,New rule: Press 'space' when you see 3-back (i.e. the same letter as the one that appeared 3 letters ago.),w,None,,,,,,,,,0,8,8,8,0,0,0,0,,,,,,,,,,,,,,,,,,,,,,,,,,,,,,,,,,,,,,,,,,,,,,,,,,,,,,,,,,,948.2975679999995,None,951.2851326999994,None,space,41.56193160000021,951.2851326999994,None,948.2975679999995,None,1.5246,994.4124746000002,None,None,1,994.4124746000002,None,,P035,FENCOG,1,Pre,2022_Apr_11_1143,N-Back (New Version 2021),2021.1.4,120.063153218133,
,,,,Conditions/Version_1/threeback(3)_v1.xlsx,New rule: Press 'space' when you see 3-back (i.e. the same letter as the one that appeared 3 letters ago.),p,None,,,,,,,,,0,8,8,8,0,1,1,1,,,,,,,,,,,,,,,,,,,,,,,,,,,,,,,,,,,,,,,,,,,,,,,,,,,,,,,,,,,,,,,,,,,,,1.1402,997.5590404999998,None,None,1,997.5590404999998,None,,P035,FENCOG,1,Pre,2022_Apr_11_1143,N-Back (New Version 2021),2021.1.4,120.063153218133,
,,,,Conditions/Version_1/threeback(3)_v1.xlsx,New rule: Press 'space' when you see 3-back (i.e. the same letter as the one that appeared 3 letters ago.),P,None,,,,,,,,,0,8,8,8,0,2,2,2,,,,,,,,,,,,,,,,,,,,,,,,,,,,,,,,,,,,,,,,,,,,,,,,,,,,,,,,,,,,,,,,,,,,,1.816,1001.3837848999997,None,None,1,1001.3837848999997,None,,P035,FENCOG,1,Pre,2022_Apr_11_1143,N-Back (New Version 2021),2021.1.4,120.063153218133,
,,,,Conditions/Version_1/threeback(3)_v1.xlsx,New rule: Press 'space' when you see 3-back (i.e. the same letter as the one that appeared 3 letters ago.),i,None,,,,,,,,,0,8,8,8,0,3,3,3,,,,,,,,,,,,,,,,,,,,,,,,,,,,,,,,,,,,,,,,,,,,,,,,,,,,,,,,,,,,,,,,,,,,,1.3386,1004.7361988999996,None,None,1,1004.7361988999996,None,,P035,FENCOG,1,Pre,2022_Apr_11_1143,N-Back (New Version 2021),2021.1.4,120.063153218133,
,,,,Conditions/Version_1/threeback(3)_v1.xlsx,New rule: Press 'space' when you see 3-back (i.e. the same letter as the one that appeared 3 letters ago.),f,None,,,,,,,,,0,8,8,8,0,4,4,4,,,,,,,,,,,,,,,,,,,,,,,,,,,,,,,,,,,,,,,,,,,,,,,,,,,,,,,,,,,,,,,,,,,,,1.7912,1008.5306361999997,None,None,1,1008.5306361999997,None,,P035,FENCOG,1,Pre,2022_Apr_11_1143,N-Back (New Version 2021),2021.1.4,120.063153218133,
,,,,Conditions/Version_1/threeback(3)_v1.xlsx,New rule: Press 'space' when you see 3-back (i.e. the same letter as the one that appeared 3 letters ago.),o,None,,,,,,,,,0,8,8,8,0,5,5,5,,,,,,,,,,,,,,,,,,,,,,,,,,,,,,,,,,,,,,,,,,,,,,,,,,,,,,,,,,,,,,,,,,,,,1.0534,1011.5892074999997,None,None,1,1011.5892074999997,None,,P035,FENCOG,1,Pre,2022_Apr_11_1143,N-Back (New Version 2021),2021.1.4,120.063153218133,
,,,,Conditions/Version_1/threeback(3)_v1.xlsx,New rule: Press 'space' when you see 3-back (i.e. the same letter as the one that appeared 3 letters ago.),w,None,,,,,,,,,0,8,8,8,0,6,6,6,,,,,,,,,,,,,,,,,,,,,,,,,,,,,,,,,,,,,,,,,,,,,,,,,,,,,,,,,,,,,,,,,,,,,1.6424,1015.2369366999997,None,None,1,1015.2369366999997,None,,P035,FENCOG,1,Pre,2022_Apr_11_1143,N-Back (New Version 2021),2021.1.4,120.063153218133,
,,,,Conditions/Version_1/threeback(3)_v1.xlsx,New rule: Press 'space' when you see 3-back (i.e. the same letter as the one that appeared 3 letters ago.),F,space,,,,,,,,,0,8,8,8,0,7,7,7,,,,,,,,,,,,,,,,,,,,,,,,,,,,,,,,,,,,,,,,,,,,,,,,,,,,,,,,,,,,,,,,,,,,,1.8284,1019.0704215999999,None,None,0,1019.0704215999999,None,,P035,FENCOG,1,Pre,2022_Apr_11_1143,N-Back (New Version 2021),2021.1.4,120.063153218133,
,,,,Conditions/Version_1/threeback(3)_v1.xlsx,New rule: Press 'space' when you see 3-back (i.e. the same letter as the one that appeared 3 letters ago.),p,None,,,,,,,,,0,8,8,8,0,8,8,8,,,,,,,,,,,,,,,,,,,,,,,,,,,,,,,,,,,,,,,,,,,,,,,,,,,,,,,,,,,,,,,,,,,,,1.4068,1022.4851899999999,None,None,1,1022.4851899999999,None,,P035,FENCOG,1,Pre,2022_Apr_11_1143,N-Back (New Version 2021),2021.1.4,120.063153218133,
,,,,Conditions/Version_1/threeback(3)_v1.xlsx,New rule: Press 'space' when you see 3-back (i.e. the same letter as the one that appeared 3 letters ago.),W,space,,,,,,,,,0,8,8,8,0,9,9,9,,,,,,,,,,,,,,,,,,,,,,,,,,,,,,,,,,,,,,,,,,,,,,,,,,,,,,,,,,,,,,,,,,,,,1.2952,1025.7863909000002,None,space,1,1025.7863909000002,None,0.81255290000081,P035,FENCOG,1,Pre,2022_Apr_11_1143,N-Back (New Version 2021),2021.1.4,120.063153218133,
,,,,Conditions/Version_1/threeback(3)_v1.xlsx,New rule: Press 'space' when you see 3-back (i.e. the same letter as the one that appeared 3 letters ago.),,,,,,,,,,,0,8,8,8,,,,,,,,,,,,,,,,,,,,,,,,,,,,,,,,,,,,,,,,,,,,,,,,,,,,,,,,,,,,,,,,,,,,,,,,,,,,,,,,,P035,FENCOG,1,Pre,2022_Apr_11_1143,N-Back (New Version 2021),2021.1.4,120.063153218133,
,,,,Conditions/Version_1/zeroback(3)_v1.xlsx,New rule: Press 'space' when you see the letter 'x' or 'X'.,X,space,,,,,,,,,0,9,9,9,0,0,0,0,,,,,,,,,,,,,,,,,,,,,,,,,,,,,,,,,,,,,,,,,,,,,,,,,,,,,,,,,,,1027.8124087,None,1030.8017353999999,None,space,0.5493085999996765,1030.8017353999999,None,1027.8124087,None,1.8904,1033.2805139999996,None,space,1,1033.2805139999996,None,0.5344027999999525,P035,FENCOG,1,Pre,2022_Apr_11_1143,N-Back (New Version 2021),2021.1.4,120.063153218133,
,,,,Conditions/Version_1/zeroback(3)_v1.xlsx,New rule: Press 'space' when you see the letter 'x' or 'X'.,B,None,,,,,,,,,0,9,9,9,0,1,1,1,,,,,,,,,,,,,,,,,,,,,,,,,,,,,,,,,,,,,,,,,,,,,,,,,,,,,,,,,,,,,,,,,,,,,1.165,1036.4501625999997,None,None,1,1036.4501625999997,None,,P035,FENCOG,1,Pre,2022_Apr_11_1143,N-Back (New Version 2021),2021.1.4,120.063153218133,
,,,,Conditions/Version_1/zeroback(3)_v1.xlsx,New rule: Press 'space' when you see the letter 'x' or 'X'.,m,None,,,,,,,,,0,9,9,9,0,2,2,2,,,,,,,,,,,,,,,,,,,,,,,,,,,,,,,,,,,,,,,,,,,,,,,,,,,,,,,,,,,,,,,,,,,,,1.8222,1040.2795429000003,None,None,1,1040.2795429000003,None,,P035,FENCOG,1,Pre,2022_Apr_11_1143,N-Back (New Version 2021),2021.1.4,120.063153218133,
,,,,Conditions/Version_1/zeroback(3)_v1.xlsx,New rule: Press 'space' when you see the letter 'x' or 'X'.,m,None,,,,,,,,,0,9,9,9,0,3,3,3,,,,,,,,,,,,,,,,,,,,,,,,,,,,,,,,,,,,,,,,,,,,,,,,,,,,,,,,,,,,,,,,,,,,,1.3572,1043.6370775,None,None,1,1043.6370775,None,,P035,FENCOG,1,Pre,2022_Apr_11_1143,N-Back (New Version 2021),2021.1.4,120.063153218133,
,,,,Conditions/Version_1/zeroback(3)_v1.xlsx,New rule: Press 'space' when you see the letter 'x' or 'X'.,o,None,,,,,,,,,0,9,9,9,0,4,4,4,,,,,,,,,,,,,,,,,,,,,,,,,,,,,,,,,,,,,,,,,,,,,,,,,,,,,,,,,,,,,,,,,,,,,1.1836,1046.8193850000002,None,None,1,1046.8193850000002,None,,P035,FENCOG,1,Pre,2022_Apr_11_1143,N-Back (New Version 2021),2021.1.4,120.063153218133,
,,,,Conditions/Version_1/zeroback(3)_v1.xlsx,New rule: Press 'space' when you see the letter 'x' or 'X'.,p,None,,,,,,,,,0,9,9,9,0,5,5,5,,,,,,,,,,,,,,,,,,,,,,,,,,,,,,,,,,,,,,,,,,,,,,,,,,,,,,,,,,,,,,,,,,,,,1.0472,1049.8684270999997,None,None,1,1049.8684270999997,None,,P035,FENCOG,1,Pre,2022_Apr_11_1143,N-Back (New Version 2021),2021.1.4,120.063153218133,
,,,,Conditions/Version_1/zeroback(3)_v1.xlsx,New rule: Press 'space' when you see the letter 'x' or 'X'.,G,None,,,,,,,,,0,9,9,9,0,6,6,6,,,,,,,,,,,,,,,,,,,,,,,,,,,,,,,,,,,,,,,,,,,,,,,,,,,,,,,,,,,,,,,,,,,,,1.2518,1053.1344969999996,None,None,1,1053.1344969999996,None,,P035,FENCOG,1,Pre,2022_Apr_11_1143,N-Back (New Version 2021),2021.1.4,120.063153218133,
,,,,Conditions/Version_1/zeroback(3)_v1.xlsx,New rule: Press 'space' when you see the letter 'x' or 'X'.,X,space,,,,,,,,,0,9,9,9,0,7,7,7,,,,,,,,,,,,,,,,,,,,,,,,,,,,,,,,,,,,,,,,,,,,,,,,,,,,,,,,,,,,,,,,,,,,,1.6424,1056.7841886,None,space,1,1056.7841886,None,0.4467829000004713,P035,FENCOG,1,Pre,2022_Apr_11_1143,N-Back (New Version 2021),2021.1.4,120.063153218133,
,,,,Conditions/Version_1/zeroback(3)_v1.xlsx,New rule: Press 'space' when you see the letter 'x' or 'X'.,p,None,,,,,,,,,0,9,9,9,0,8,8,8,,,,,,,,,,,,,,,,,,,,,,,,,,,,,,,,,,,,,,,,,,,,,,,,,,,,,,,,,,,,,,,,,,,,,1.6858,1060.4820353,None,None,1,1060.4820353,None,,P035,FENCOG,1,Pre,2022_Apr_11_1143,N-Back (New Version 2021),2021.1.4,120.063153218133,
,,,,Conditions/Version_1/zeroback(3)_v1.xlsx,New rule: Press 'space' when you see the letter 'x' or 'X'.,x,space,,,,,,,,,0,9,9,9,0,9,9,9,,,,,,,,,,,,,,,,,,,,,,,,,,,,,,,,,,,,,,,,,,,,,,,,,,,,,,,,,,,,,,,,,,,,,1.6548,1064.1392431999998,None,space,1,1064.1392431999998,None,0.5320300000003044,P035,FENCOG,1,Pre,2022_Apr_11_1143,N-Back (New Version 2021),2021.1.4,120.063153218133,
,,,,Conditions/Version_1/zeroback(3)_v1.xlsx,New rule: Press 'space' when you see the letter 'x' or 'X'.,,,,,,,,,,,0,9,9,9,,,,,,,,,,,,,,,,,,,,,,,,,,,,,,,,,,,,,,,,,,,,,,,,,,,,,,,,,,,,,,,,,,,,,,,,,,,,,,,,,P035,FENCOG,1,Pre,2022_Apr_11_1143,N-Back (New Version 2021),2021.1.4,120.063153218133,
,,,,Conditions/Version_1/twoback(3)_v1.xlsx,New rule: Press 'space' when you see 2-back (i.e. the same letter as the one that appeared 2 letters ago.),e,None,,,,,,,,,0,10,10,10,0,0,0,0,,,,,,,,,,,,,,,,,,,,,,,,,,,,,,,,,,,,,,,,,,,,,,,,,,,,,,,,,,,1066.1593133000001,None,1069.1483395999999,None,space,5.130597599999419,1069.1483395999999,None,1066.1593133000001,None,1.6424,1075.9536203000002,None,None,1,1075.9536203000002,None,,P035,FENCOG,1,Pre,2022_Apr_11_1143,N-Back (New Version 2021),2021.1.4,120.063153218133,
,,,,Conditions/Version_1/twoback(3)_v1.xlsx,New rule: Press 'space' when you see 2-back (i.e. the same letter as the one that appeared 2 letters ago.),o,None,,,,,,,,,0,10,10,10,0,1,1,1,,,,,,,,,,,,,,,,,,,,,,,,,,,,,,,,,,,,,,,,,,,,,,,,,,,,,,,,,,,,,,,,,,,,,1.6796,1079.6428474999998,None,None,1,1079.6428474999998,None,,P035,FENCOG,1,Pre,2022_Apr_11_1143,N-Back (New Version 2021),2021.1.4,120.063153218133,
,,,,Conditions/Version_1/twoback(3)_v1.xlsx,New rule: Press 'space' when you see 2-back (i.e. the same letter as the one that appeared 2 letters ago.),P,None,,,,,,,,,0,10,10,10,0,2,2,2,,,,,,,,,,,,,,,,,,,,,,,,,,,,,,,,,,,,,,,,,,,,,,,,,,,,,,,,,,,,,,,,,,,,,1.0658,1082.7096871999997,None,None,1,1082.7096871999997,None,,P035,FENCOG,1,Pre,2022_Apr_11_1143,N-Back (New Version 2021),2021.1.4,120.063153218133,
,,,,Conditions/Version_1/twoback(3)_v1.xlsx,New rule: Press 'space' when you see 2-back (i.e. the same letter as the one that appeared 2 letters ago.),z,None,,,,,,,,,0,10,10,10,0,3,3,3,,,,,,,,,,,,,,,,,,,,,,,,,,,,,,,,,,,,,,,,,,,,,,,,,,,,,,,,,,,,,,,,,,,,,1.01,1085.7407836999996,None,None,1,1085.7407836999996,None,,P035,FENCOG,1,Pre,2022_Apr_11_1143,N-Back (New Version 2021),2021.1.4,120.063153218133,
,,,,Conditions/Version_1/twoback(3)_v1.xlsx,New rule: Press 'space' when you see 2-back (i.e. the same letter as the one that appeared 2 letters ago.),X,None,,,,,,,,,0,10,10,10,0,4,4,4,,,,,,,,,,,,,,,,,,,,,,,,,,,,,,,,,,,,,,,,,,,,,,,,,,,,,,,,,,,,,,,,,,,,,1.5494,1089.2964416,None,None,1,1089.2964416,None,,P035,FENCOG,1,Pre,2022_Apr_11_1143,N-Back (New Version 2021),2021.1.4,120.063153218133,
,,,,Conditions/Version_1/twoback(3)_v1.xlsx,New rule: Press 'space' when you see 2-back (i.e. the same letter as the one that appeared 2 letters ago.),z,space,,,,,,,,,0,10,10,10,0,5,5,5,,,,,,,,,,,,,,,,,,,,,,,,,,,,,,,,,,,,,,,,,,,,,,,,,,,,,,,,,,,,,,,,,,,,,1.5618,1092.8660102999997,None,space,1,1092.8660102999997,None,0.32495680000010907,P035,FENCOG,1,Pre,2022_Apr_11_1143,N-Back (New Version 2021),2021.1.4,120.063153218133,
,,,,Conditions/Version_1/twoback(3)_v1.xlsx,New rule: Press 'space' when you see 2-back (i.e. the same letter as the one that appeared 2 letters ago.),x,space,,,,,,,,,0,10,10,10,0,6,6,6,,,,,,,,,,,,,,,,,,,,,,,,,,,,,,,,,,,,,,,,,,,,,,,,,,,,,,,,,,,,,,,,,,,,,1.7602,1096.6419149999997,None,space,1,1096.6419149999997,None,0.3249698999998145,P035,FENCOG,1,Pre,2022_Apr_11_1143,N-Back (New Version 2021),2021.1.4,120.063153218133,
,,,,Conditions/Version_1/twoback(3)_v1.xlsx,New rule: Press 'space' when you see 2-back (i.e. the same letter as the one that appeared 2 letters ago.),c,None,,,,,,,,,0,10,10,10,0,7,7,7,,,,,,,,,,,,,,,,,,,,,,,,,,,,,,,,,,,,,,,,,,,,,,,,,,,,,,,,,,,,,,,,,,,,,1.072,1099.7246436,None,None,1,1099.7246436,None,,P035,FENCOG,1,Pre,2022_Apr_11_1143,N-Back (New Version 2021),2021.1.4,120.063153218133,
,,,,Conditions/Version_1/twoback(3)_v1.xlsx,New rule: Press 'space' when you see 2-back (i.e. the same letter as the one that appeared 2 letters ago.),i,None,,,,,,,,,0,10,10,10,0,8,8,8,,,,,,,,,,,,,,,,,,,,,,,,,,,,,,,,,,,,,,,,,,,,,,,,,,,,,,,,,,,,,,,,,,,,,1.909,1103.6401406999998,None,None,1,1103.6401406999998,None,,P035,FENCOG,1,Pre,2022_Apr_11_1143,N-Back (New Version 2021),2021.1.4,120.063153218133,
,,,,Conditions/Version_1/twoback(3)_v1.xlsx,New rule: Press 'space' when you see 2-back (i.e. the same letter as the one that appeared 2 letters ago.),C,space,,,,,,,,,0,10,10,10,0,9,9,9,,,,,,,,,,,,,,,,,,,,,,,,,,,,,,,,,,,,,,,,,,,,,,,,,,,,,,,,,,,,,,,,,,,,,1.5122,1107.1618398999994,None,space,1,1107.1618398999994,None,0.31698690000030183,P035,FENCOG,1,Pre,2022_Apr_11_1143,N-Back (New Version 2021),2021.1.4,120.063153218133,
,,,,Conditions/Version_1/twoback(3)_v1.xlsx,New rule: Press 'space' when you see 2-back (i.e. the same letter as the one that appeared 2 letters ago.),,,,,,,,,,,0,10,10,10,,,,,,,,,,,,,,,,,,,,,,,,,,,,,,,,,,,,,,,,,,,,,,,,,,,,,,,,,,,,,,,,,,,,,,,,,,,,,,,,,P035,FENCOG,1,Pre,2022_Apr_11_1143,N-Back (New Version 2021),2021.1.4,120.063153218133,
,,,,Conditions/Version_1/oneback(3)_v1.xlsx,New rule: Press 'space' when you see 1-back (i.e. the same letter as the one that appeared 1 letter ago.),o,None,,,,,,,,,0,11,11,11,0,0,0,0,,,,,,,,,,,,,,,,,,,,,,,,,,,,,,,,,,,,,,,,,,,,,,,,,,,,,,,,,,,1109.1892665999999,None,1112.1771959000002,None,space,2.0536088999997446,1112.1771959000002,None,1109.1892665999999,None,1.5246,1115.7913841999994,None,None,1,1115.7913841999994,None,,P035,FENCOG,1,Pre,2022_Apr_11_1143,N-Back (New Version 2021),2021.1.4,120.063153218133,
,,,,Conditions/Version_1/oneback(3)_v1.xlsx,New rule: Press 'space' when you see 1-back (i.e. the same letter as the one that appeared 1 letter ago.),O,space,,,,,,,,,0,11,11,11,0,1,1,1,,,,,,,,,,,,,,,,,,,,,,,,,,,,,,,,,,,,,,,,,,,,,,,,,,,,,,,,,,,,,,,,,,,,,1.2704,1119.0834639,None,space,1,1119.0834639,None,0.36346899999989546,P035,FENCOG,1,Pre,2022_Apr_11_1143,N-Back (New Version 2021),2021.1.4,120.063153218133,
,,,,Conditions/Version_1/oneback(3)_v1.xlsx,New rule: Press 'space' when you see 1-back (i.e. the same letter as the one that appeared 1 letter ago.),h,None,,,,,,,,,0,11,11,11,0,2,2,2,,,,,,,,,,,,,,,,,,,,,,,,,,,,,,,,,,,,,,,,,,,,,,,,,,,,,,,,,,,,,,,,,,,,,1.475,1122.5630797999997,None,None,1,1122.5630797999997,None,,P035,FENCOG,1,Pre,2022_Apr_11_1143,N-Back (New Version 2021),2021.1.4,120.063153218133,
,,,,Conditions/Version_1/oneback(3)_v1.xlsx,New rule: Press 'space' when you see 1-back (i.e. the same letter as the one that appeared 1 letter ago.),g,None,,,,,,,,,0,11,11,11,0,3,3,3,,,,,,,,,,,,,,,,,,,,,,,,,,,,,,,,,,,,,,,,,,,,,,,,,,,,,,,,,,,,,,,,,,,,,1.6734,1126.2401814,None,None,1,1126.2401814,None,,P035,FENCOG,1,Pre,2022_Apr_11_1143,N-Back (New Version 2021),2021.1.4,120.063153218133,
,,,,Conditions/Version_1/oneback(3)_v1.xlsx,New rule: Press 'space' when you see 1-back (i.e. the same letter as the one that appeared 1 letter ago.),n,None,,,,,,,,,0,11,11,11,0,4,4,4,,,,,,,,,,,,,,,,,,,,,,,,,,,,,,,,,,,,,,,,,,,,,,,,,,,,,,,,,,,,,,,,,,,,,1.1526,1129.4032310999996,None,None,1,1129.4032310999996,None,,P035,FENCOG,1,Pre,2022_Apr_11_1143,N-Back (New Version 2021),2021.1.4,120.063153218133,
,,,,Conditions/Version_1/oneback(3)_v1.xlsx,New rule: Press 'space' when you see 1-back (i.e. the same letter as the one that appeared 1 letter ago.),z,None,,,,,,,,,0,11,11,11,0,5,5,5,,,,,,,,,,,,,,,,,,,,,,,,,,,,,,,,,,,,,,,,,,,,,,,,,,,,,,,,,,,,,,,,,,,,,1.878,1133.2856215999996,None,None,1,1133.2856215999996,None,,P035,FENCOG,1,Pre,2022_Apr_11_1143,N-Back (New Version 2021),2021.1.4,120.063153218133,
,,,,Conditions/Version_1/oneback(3)_v1.xlsx,New rule: Press 'space' when you see 1-back (i.e. the same letter as the one that appeared 1 letter ago.),X,None,,,,,,,,,0,11,11,11,0,6,6,6,,,,,,,,,,,,,,,,,,,,,,,,,,,,,,,,,,,,,,,,,,,,,,,,,,,,,,,,,,,,,,,,,,,,,1.2518,1136.5427667999998,None,None,1,1136.5427667999998,None,,P035,FENCOG,1,Pre,2022_Apr_11_1143,N-Back (New Version 2021),2021.1.4,120.063153218133,
,,,,Conditions/Version_1/oneback(3)_v1.xlsx,New rule: Press 'space' when you see 1-back (i.e. the same letter as the one that appeared 1 letter ago.),r,None,,,,,,,,,0,11,11,11,0,7,7,7,,,,,,,,,,,,,,,,,,,,,,,,,,,,,,,,,,,,,,,,,,,,,,,,,,,,,,,,,,,,,,,,,,,,,1.382,1139.9251085,None,None,1,1139.9251085,None,,P035,FENCOG,1,Pre,2022_Apr_11_1143,N-Back (New Version 2021),2021.1.4,120.063153218133,
,,,,Conditions/Version_1/oneback(3)_v1.xlsx,New rule: Press 'space' when you see 1-back (i.e. the same letter as the one that appeared 1 letter ago.),r,space,,,,,,,,,0,11,11,11,0,8,8,8,,,,,,,,,,,,,,,,,,,,,,,,,,,,,,,,,,,,,,,,,,,,,,,,,,,,,,,,,,,,,,,,,,,,,1.8284,1143.7655760000002,None,space,1,1143.7655760000002,None,0.38542250000045897,P035,FENCOG,1,Pre,2022_Apr_11_1143,N-Back (New Version 2021),2021.1.4,120.063153218133,
,,,,Conditions/Version_1/oneback(3)_v1.xlsx,New rule: Press 'space' when you see 1-back (i.e. the same letter as the one that appeared 1 letter ago.),P,None,,,,,,,,,0,11,11,11,0,9,9,9,,,,,,,,,,,,,,,,,,,,,,,,,,,,,,,,,,,,,,,,,,,,,,,,,,,,,,,,,,,,,,,,,,,,,1.9524,1147.7616247,None,None,1,1147.7616247,None,,P035,FENCOG,1,Pre,2022_Apr_11_1143,N-Back (New Version 2021),2021.1.4,120.063153218133,
,,,,Conditions/Version_1/oneback(3)_v1.xlsx,New rule: Press 'space' when you see 1-back (i.e. the same letter as the one that appeared 1 letter ago.),,,,,,,,,,,0,11,11,11,,,,,,,,,,,,,,,,,,,,,,,,,,,,,,,,,,,,,,,,,,,,,,,,,,,,,,,,,,,,,,,,,,,,,,,,,,,,,,,,,P035,FENCOG,1,Pre,2022_Apr_11_1143,N-Back (New Version 2021),2021.1.4,120.063153218133,
,,,,Conditions/Version_1/twoback(4)_v1.xlsx,New rule: Press 'space' when you see 2-back (i.e. the same letter as the one that appeared 2 letters ago.),r,None,,,,,,,,,0,12,12,12,0,0,0,0,,,,,,,,,,,,,,,,,,,,,,,,,,,,,,,,,,,,,,,,,,,,,,,,,,,,,,,,,,,1149.7514135999995,None,1152.7404157999995,None,space,0.89873069999976,1152.7404157999995,None,1149.7514135999995,None,1.2518,1154.9290108,None,None,1,1154.9290108,None,,P035,FENCOG,1,Pre,2022_Apr_11_1143,N-Back (New Version 2021),2021.1.4,120.063153218133,
,,,,Conditions/Version_1/twoback(4)_v1.xlsx,New rule: Press 'space' when you see 2-back (i.e. the same letter as the one that appeared 2 letters ago.),T,None,,,,,,,,,0,12,12,12,0,1,1,1,,,,,,,,,,,,,,,,,,,,,,,,,,,,,,,,,,,,,,,,,,,,,,,,,,,,,,,,,,,,,,,,,,,,,1.01,1157.9448011999998,None,None,1,1157.9448011999998,None,,P035,FENCOG,1,Pre,2022_Apr_11_1143,N-Back (New Version 2021),2021.1.4,120.063153218133,
,,,,Conditions/Version_1/twoback(4)_v1.xlsx,New rule: Press 'space' when you see 2-back (i.e. the same letter as the one that appeared 2 letters ago.),o,None,,,,,,,,,0,12,12,12,0,2,2,2,,,,,,,,,,,,,,,,,,,,,,,,,,,,,,,,,,,,,,,,,,,,,,,,,,,,,,,,,,,,,,,,,,,,,1.8532,1161.8019633999997,None,None,1,1161.8019633999997,None,,P035,FENCOG,1,Pre,2022_Apr_11_1143,N-Back (New Version 2021),2021.1.4,120.063153218133,
,,,,Conditions/Version_1/twoback(4)_v1.xlsx,New rule: Press 'space' when you see 2-back (i.e. the same letter as the one that appeared 2 letters ago.),p,None,,,,,,,,,0,12,12,12,0,3,3,3,,,,,,,,,,,,,,,,,,,,,,,,,,,,,,,,,,,,,,,,,,,,,,,,,,,,,,,,,,,,,,,,,,,,,1.909,1165.7174807999995,None,None,1,1165.7174807999995,None,,P035,FENCOG,1,Pre,2022_Apr_11_1143,N-Back (New Version 2021),2021.1.4,120.063153218133,
,,,,Conditions/Version_1/twoback(4)_v1.xlsx,New rule: Press 'space' when you see 2-back (i.e. the same letter as the one that appeared 2 letters ago.),p,None,,,,,,,,,0,12,12,12,0,4,4,4,,,,,,,,,,,,,,,,,,,,,,,,,,,,,,,,,,,,,,,,,,,,,,,,,,,,,,,,,,,,,,,,,,,,,1.9028,1169.6264661999999,None,None,1,1169.6264661999999,None,,P035,FENCOG,1,Pre,2022_Apr_11_1143,N-Back (New Version 2021),2021.1.4,120.063153218133,
,,,,Conditions/Version_1/twoback(4)_v1.xlsx,New rule: Press 'space' when you see 2-back (i.e. the same letter as the one that appeared 2 letters ago.),y,None,,,,,,,,,0,12,12,12,0,5,5,5,,,,,,,,,,,,,,,,,,,,,,,,,,,,,,,,,,,,,,,,,,,,,,,,,,,,,,,,,,,,,,,,,,,,,1.6362,1173.2763413999996,None,None,1,1173.2763413999996,None,,P035,FENCOG,1,Pre,2022_Apr_11_1143,N-Back (New Version 2021),2021.1.4,120.063153218133,
,,,,Conditions/Version_1/twoback(4)_v1.xlsx,New rule: Press 'space' when you see 2-back (i.e. the same letter as the one that appeared 2 letters ago.),P,space,,,,,,,,,0,12,12,12,0,6,6,6,,,,,,,,,,,,,,,,,,,,,,,,,,,,,,,,,,,,,,,,,,,,,,,,,,,,,,,,,,,,,,,,,,,,,1.0596,1176.3520113999998,None,space,1,1176.3520113999998,None,0.4312491000000591,P035,FENCOG,1,Pre,2022_Apr_11_1143,N-Back (New Version 2021),2021.1.4,120.063153218133,
,,,,Conditions/Version_1/twoback(4)_v1.xlsx,New rule: Press 'space' when you see 2-back (i.e. the same letter as the one that appeared 2 letters ago.),y,None,,,,,,,,,0,12,12,12,0,7,7,7,,,,,,,,,,,,,,,,,,,,,,,,,,,,,,,,,,,,,,,,,,,,,,,,,,,,,,,,,,,,,,,,,,,,,1.4998,1179.8549793999996,None,space,0,1179.8549793999996,None,0.3920605000002979,P035,FENCOG,1,Pre,2022_Apr_11_1143,N-Back (New Version 2021),2021.1.4,120.063153218133,
,,,,Conditions/Version_1/twoback(4)_v1.xlsx,New rule: Press 'space' when you see 2-back (i.e. the same letter as the one that appeared 2 letters ago.),y,space,,,,,,,,,0,12,12,12,0,8,8,8,,,,,,,,,,,,,,,,,,,,,,,,,,,,,,,,,,,,,,,,,,,,,,,,,,,,,,,,,,,,,,,,,,,,,1.413,1183.2709055999999,None,None,0,1183.2709055999999,None,,P035,FENCOG,1,Pre,2022_Apr_11_1143,N-Back (New Version 2021),2021.1.4,120.063153218133,
,,,,Conditions/Version_1/twoback(4)_v1.xlsx,New rule: Press 'space' when you see 2-back (i.e. the same letter as the one that appeared 2 letters ago.),,,,,,,,,,,0,12,12,12,,,,,,,,,,,,,,,,,,,,,,,,,,,,,,,,,,,,,,,,,,,,,,,,,,,,,,,,,,,,,,,,,,,,,,,,,,,,,,,,,P035,FENCOG,1,Pre,2022_Apr_11_1143,N-Back (New Version 2021),2021.1.4,120.063153218133,
,,,,Conditions/Version_1/zeroback(4)_v1.xlsx,New rule: Press 'space' when you see the letter 'x' or 'X'.,o,None,,,,,,,,,0,13,13,13,0,0,0,0,,,,,,,,,,,,,,,,,,,,,,,,,,,,,,,,,,,,,,,,,,,,,,,,,,,,,,,,,,,1185.2883816999997,None,1188.2709388999997,None,space,0.32003589999931137,1188.2709388999997,None,1185.2883816999997,None,1.6176,1190.2481965000002,None,None,1,1190.2481965000002,None,,P035,FENCOG,1,Pre,2022_Apr_11_1143,N-Back (New Version 2021),2021.1.4,120.063153218133,
,,,,Conditions/Version_1/zeroback(4)_v1.xlsx,New rule: Press 'space' when you see the letter 'x' or 'X'.,X,space,,,,,,,,,0,13,13,13,0,1,1,1,,,,,,,,,,,,,,,,,,,,,,,,,,,,,,,,,,,,,,,,,,,,,,,,,,,,,,,,,,,,,,,,,,,,,1.5928,1193.8533710999995,None,space,1,1193.8533710999995,None,0.38567719999991823,P035,FENCOG,1,Pre,2022_Apr_11_1143,N-Back (New Version 2021),2021.1.4,120.063153218133,
,,,,Conditions/Version_1/zeroback(4)_v1.xlsx,New rule: Press 'space' when you see the letter 'x' or 'X'.,p,None,,,,,,,,,0,13,13,13,0,2,2,2,,,,,,,,,,,,,,,,,,,,,,,,,,,,,,,,,,,,,,,,,,,,,,,,,,,,,,,,,,,,,,,,,,,,,1.4564,1197.3165073999994,None,None,1,1197.3165073999994,None,,P035,FENCOG,1,Pre,2022_Apr_11_1143,N-Back (New Version 2021),2021.1.4,120.063153218133,
,,,,Conditions/Version_1/zeroback(4)_v1.xlsx,New rule: Press 'space' when you see the letter 'x' or 'X'.,m,None,,,,,,,,,0,13,13,13,0,3,3,3,,,,,,,,,,,,,,,,,,,,,,,,,,,,,,,,,,,,,,,,,,,,,,,,,,,,,,,,,,,,,,,,,,,,,1.754,1201.0765785999997,None,None,1,1201.0765785999997,None,,P035,FENCOG,1,Pre,2022_Apr_11_1143,N-Back (New Version 2021),2021.1.4,120.063153218133,
,,,,Conditions/Version_1/zeroback(4)_v1.xlsx,New rule: Press 'space' when you see the letter 'x' or 'X'.,n,None,,,,,,,,,0,13,13,13,0,4,4,4,,,,,,,,,,,,,,,,,,,,,,,,,,,,,,,,,,,,,,,,,,,,,,,,,,,,,,,,,,,,,,,,,,,,,1.4378,1204.5248582,None,None,1,1204.5248582,None,,P035,FENCOG,1,Pre,2022_Apr_11_1143,N-Back (New Version 2021),2021.1.4,120.063153218133,
,,,,Conditions/Version_1/zeroback(4)_v1.xlsx,New rule: Press 'space' when you see the letter 'x' or 'X'.,m,None,,,,,,,,,0,13,13,13,0,5,5,5,,,,,,,,,,,,,,,,,,,,,,,,,,,,,,,,,,,,,,,,,,,,,,,,,,,,,,,,,,,,,,,,,,,,,1.6548,1208.1882904,None,None,1,1208.1882904,None,,P035,FENCOG,1,Pre,2022_Apr_11_1143,N-Back (New Version 2021),2021.1.4,120.063153218133,
,,,,Conditions/Version_1/zeroback(4)_v1.xlsx,New rule: Press 'space' when you see the letter 'x' or 'X'.,C,None,,,,,,,,,0,13,13,13,0,6,6,6,,,,,,,,,,,,,,,,,,,,,,,,,,,,,,,,,,,,,,,,,,,,,,,,,,,,,,,,,,,,,,,,,,,,,1.7168,1211.9124652999994,None,None,1,1211.9124652999994,None,,P035,FENCOG,1,Pre,2022_Apr_11_1143,N-Back (New Version 2021),2021.1.4,120.063153218133,
,,,,Conditions/Version_1/zeroback(4)_v1.xlsx,New rule: Press 'space' when you see the letter 'x' or 'X'.,m,None,,,,,,,,,0,13,13,13,0,7,7,7,,,,,,,,,,,,,,,,,,,,,,,,,,,,,,,,,,,,,,,,,,,,,,,,,,,,,,,,,,,,,,,,,,,,,1.6982,1215.6206560999995,None,None,1,1215.6206560999995,None,,P035,FENCOG,1,Pre,2022_Apr_11_1143,N-Back (New Version 2021),2021.1.4,120.063153218133,
,,,,Conditions/Version_1/zeroback(4)_v1.xlsx,New rule: Press 'space' when you see the letter 'x' or 'X'.,p,None,,,,,,,,,0,13,13,13,0,8,8,8,,,,,,,,,,,,,,,,,,,,,,,,,,,,,,,,,,,,,,,,,,,,,,,,,,,,,,,,,,,,,,,,,,,,,1.6858,1219.3101746999996,None,None,1,1219.3101746999996,None,,P035,FENCOG,1,Pre,2022_Apr_11_1143,N-Back (New Version 2021),2021.1.4,120.063153218133,
,,,,Conditions/Version_1/zeroback(4)_v1.xlsx,New rule: Press 'space' when you see the letter 'x' or 'X'.,X,space,,,,,,,,,0,13,13,13,0,9,9,9,,,,,,,,,,,,,,,,,,,,,,,,,,,,,,,,,,,,,,,,,,,,,,,,,,,,,,,,,,,,,,,,,,,,,1.6362,1222.9504305999994,None,space,1,1222.9504305999994,None,0.34481830000004265,P035,FENCOG,1,Pre,2022_Apr_11_1143,N-Back (New Version 2021),2021.1.4,120.063153218133,
,,,,Conditions/Version_1/zeroback(4)_v1.xlsx,New rule: Press 'space' when you see the letter 'x' or 'X'.,,,,,,,,,,,0,13,13,13,,,,,,,,,,,,,,,,,,,,,,,,,,,,,,,,,,,,,,,,,,,,,,,,,,,,,,,,,,,,,,,,,,,,,,,,,,,,,,,,,P035,FENCOG,1,Pre,2022_Apr_11_1143,N-Back (New Version 2021),2021.1.4,120.063153218133,
,,,,Conditions/Version_1/oneback(4)_v1.xlsx,New rule: Press 'space' when you see 1-back (i.e. the same letter as the one that appeared 1 letter ago.),w,None,,,,,,,,,0,14,14,14,0,0,0,0,,,,,,,,,,,,,,,,,,,,,,,,,,,,,,,,,,,,,,,,,,,,,,,,,,,,,,,,,,,1224.9729518999998,None,1227.9594587999995,None,space,0.7754585000002407,1227.9594587999995,None,1224.9729518999998,None,1.351,1230.1172436000002,None,None,1,1230.1172436000002,None,,P035,FENCOG,1,Pre,2022_Apr_11_1143,N-Back (New Version 2021),2021.1.4,120.063153218133,
,,,,Conditions/Version_1/oneback(4)_v1.xlsx,New rule: Press 'space' when you see 1-back (i.e. the same letter as the one that appeared 1 letter ago.),q,None,,,,,,,,,0,14,14,14,0,1,1,1,,,,,,,,,,,,,,,,,,,,,,,,,,,,,,,,,,,,,,,,,,,,,,,,,,,,,,,,,,,,,,,,,,,,,1.4626,1233.5816313999999,None,None,1,1233.5816313999999,None,,P035,FENCOG,1,Pre,2022_Apr_11_1143,N-Back (New Version 2021),2021.1.4,120.063153218133,
,,,,Conditions/Version_1/oneback(4)_v1.xlsx,New rule: Press 'space' when you see 1-back (i.e. the same letter as the one that appeared 1 letter ago.),i,None,,,,,,,,,0,14,14,14,0,2,2,2,,,,,,,,,,,,,,,,,,,,,,,,,,,,,,,,,,,,,,,,,,,,,,,,,,,,,,,,,,,,,,,,,,,,,1.2642,1236.8557956,None,None,1,1236.8557956,None,,P035,FENCOG,1,Pre,2022_Apr_11_1143,N-Back (New Version 2021),2021.1.4,120.063153218133,
,,,,Conditions/Version_1/oneback(4)_v1.xlsx,New rule: Press 'space' when you see 1-back (i.e. the same letter as the one that appeared 1 letter ago.),t,None,,,,,,,,,0,14,14,14,0,3,3,3,,,,,,,,,,,,,,,,,,,,,,,,,,,,,,,,,,,,,,,,,,,,,,,,,,,,,,,,,,,,,,,,,,,,,1.2518,1240.1150349999994,None,None,1,1240.1150349999994,None,,P035,FENCOG,1,Pre,2022_Apr_11_1143,N-Back (New Version 2021),2021.1.4,120.063153218133,
,,,,Conditions/Version_1/oneback(4)_v1.xlsx,New rule: Press 'space' when you see 1-back (i.e. the same letter as the one that appeared 1 letter ago.),v,None,,,,,,,,,0,14,14,14,0,4,4,4,,,,,,,,,,,,,,,,,,,,,,,,,,,,,,,,,,,,,,,,,,,,,,,,,,,,,,,,,,,,,,,,,,,,,1.9462,1244.0697624,None,None,1,1244.0697624,None,,P035,FENCOG,1,Pre,2022_Apr_11_1143,N-Back (New Version 2021),2021.1.4,120.063153218133,
,,,,Conditions/Version_1/oneback(4)_v1.xlsx,New rule: Press 'space' when you see 1-back (i.e. the same letter as the one that appeared 1 letter ago.),V,space,,,,,,,,,0,14,14,14,0,5,5,5,,,,,,,,,,,,,,,,,,,,,,,,,,,,,,,,,,,,,,,,,,,,,,,,,,,,,,,,,,,,,,,,,,,,,1.9028,1247.978477,None,None,0,1247.978477,None,,P035,FENCOG,1,Pre,2022_Apr_11_1143,N-Back (New Version 2021),2021.1.4,120.063153218133,
,,,,Conditions/Version_1/oneback(4)_v1.xlsx,New rule: Press 'space' when you see 1-back (i.e. the same letter as the one that appeared 1 letter ago.),v,space,,,,,,,,,0,14,14,14,0,6,6,6,,,,,,,,,,,,,,,,,,,,,,,,,,,,,,,,,,,,,,,,,,,,,,,,,,,,,,,,,,,,,,,,,,,,,1.6734,1251.6681655999996,None,space,1,1251.6681655999996,None,0.7147742999995899,P035,FENCOG,1,Pre,2022_Apr_11_1143,N-Back (New Version 2021),2021.1.4,120.063153218133,
,,,,Conditions/Version_1/oneback(4)_v1.xlsx,New rule: Press 'space' when you see 1-back (i.e. the same letter as the one that appeared 1 letter ago.),p,None,,,,,,,,,0,14,14,14,0,7,7,7,,,,,,,,,,,,,,,,,,,,,,,,,,,,,,,,,,,,,,,,,,,,,,,,,,,,,,,,,,,,,,,,,,,,,1.3448,1255.0245672999995,None,None,1,1255.0245672999995,None,,P035,FENCOG,1,Pre,2022_Apr_11_1143,N-Back (New Version 2021),2021.1.4,120.063153218133,
,,,,Conditions/Version_1/oneback(4)_v1.xlsx,New rule: Press 'space' when you see 1-back (i.e. the same letter as the one that appeared 1 letter ago.),w,None,,,,,,,,,0,14,14,14,0,8,8,8,,,,,,,,,,,,,,,,,,,,,,,,,,,,,,,,,,,,,,,,,,,,,,,,,,,,,,,,,,,,,,,,,,,,,1.7354,1258.7726435,None,None,1,1258.7726435,None,,P035,FENCOG,1,Pre,2022_Apr_11_1143,N-Back (New Version 2021),2021.1.4,120.063153218133,
,,,,Conditions/Version_1/oneback(4)_v1.xlsx,New rule: Press 'space' when you see 1-back (i.e. the same letter as the one that appeared 1 letter ago.),W,space,,,,,,,,,0,14,14,14,0,9,9,9,,,,,,,,,,,,,,,,,,,,,,,,,,,,,,,,,,,,,,,,,,,,,,,,,,,,,,,,,,,,,,,,,,,,,1.6176,1262.3985411999997,None,space,1,1262.3985411999997,None,0.36043900000004214,P035,FENCOG,1,Pre,2022_Apr_11_1143,N-Back (New Version 2021),2021.1.4,120.063153218133,
,,,,Conditions/Version_1/oneback(4)_v1.xlsx,New rule: Press 'space' when you see 1-back (i.e. the same letter as the one that appeared 1 letter ago.),,,,,,,,,,,0,14,14,14,,,,,,,,,,,,,,,,,,,,,,,,,,,,,,,,,,,,,,,,,,,,,,,,,,,,,,,,,,,,,,,,,,,,,,,,,,,,,,,,,P035,FENCOG,1,Pre,2022_Apr_11_1143,N-Back (New Version 2021),2021.1.4,120.063153218133,
,,,,Conditions/Version_1/threeback(4)_v1.xlsx,New rule: Press 'space' when you see 3-back (i.e. the same letter as the one that appeared 3 letters ago.),A,None,,,,,,,,,0,15,15,15,0,0,0,0,,,,,,,,,,,,,,,,,,,,,,,,,,,,,,,,,,,,,,,,,,,,,,,,,,,,,,,,,,,1264.4284138999997,None,1267.4151378000001,None,space,18.231537100000423,1267.4151378000001,None,1264.4284138999997,None,1.2952,1286.9811968999998,None,None,1,1286.9811968999998,None,,P035,FENCOG,1,Pre,2022_Apr_11_1143,N-Back (New Version 2021),2021.1.4,120.063153218133,
,,,,Conditions/Version_1/threeback(4)_v1.xlsx,New rule: Press 'space' when you see 3-back (i.e. the same letter as the one that appeared 3 letters ago.),n,None,,,,,,,,,0,15,15,15,0,1,1,1,,,,,,,,,,,,,,,,,,,,,,,,,,,,,,,,,,,,,,,,,,,,,,,,,,,,,,,,,,,,,,,,,,,,,1.2518,1290.2393056999995,None,None,1,1290.2393056999995,None,,P035,FENCOG,1,Pre,2022_Apr_11_1143,N-Back (New Version 2021),2021.1.4,120.063153218133,
,,,,Conditions/Version_1/threeback(4)_v1.xlsx,New rule: Press 'space' when you see 3-back (i.e. the same letter as the one that appeared 3 letters ago.),g,None,,,,,,,,,0,15,15,15,0,2,2,2,,,,,,,,,,,,,,,,,,,,,,,,,,,,,,,,,,,,,,,,,,,,,,,,,,,,,,,,,,,,,,,,,,,,,1.4564,1293.6963713999999,None,None,1,1293.6963713999999,None,,P035,FENCOG,1,Pre,2022_Apr_11_1143,N-Back (New Version 2021),2021.1.4,120.063153218133,
,,,,Conditions/Version_1/threeback(4)_v1.xlsx,New rule: Press 'space' when you see 3-back (i.e. the same letter as the one that appeared 3 letters ago.),A,space,,,,,,,,,0,15,15,15,0,3,3,3,,,,,,,,,,,,,,,,,,,,,,,,,,,,,,,,,,,,,,,,,,,,,,,,,,,,,,,,,,,,,,,,,,,,,1.5928,1297.3002768000001,None,space,1,1297.3002768000001,None,0.538687199999913,P035,FENCOG,1,Pre,2022_Apr_11_1143,N-Back (New Version 2021),2021.1.4,120.063153218133,
,,,,Conditions/Version_1/threeback(4)_v1.xlsx,New rule: Press 'space' when you see 3-back (i.e. the same letter as the one that appeared 3 letters ago.),p,None,,,,,,,,,0,15,15,15,0,4,4,4,,,,,,,,,,,,,,,,,,,,,,,,,,,,,,,,,,,,,,,,,,,,,,,,,,,,,,,,,,,,,,,,,,,,,1.0658,1300.3693940999997,None,None,1,1300.3693940999997,None,,P035,FENCOG,1,Pre,2022_Apr_11_1143,N-Back (New Version 2021),2021.1.4,120.063153218133,
,,,,Conditions/Version_1/threeback(4)_v1.xlsx,New rule: Press 'space' when you see 3-back (i.e. the same letter as the one that appeared 3 letters ago.),O,None,,,,,,,,,0,15,15,15,0,5,5,5,,,,,,,,,,,,,,,,,,,,,,,,,,,,,,,,,,,,,,,,,,,,,,,,,,,,,,,,,,,,,,,,,,,,,1.9834,1304.351596,None,None,1,1304.351596,None,,P035,FENCOG,1,Pre,2022_Apr_11_1143,N-Back (New Version 2021),2021.1.4,120.063153218133,
,,,,Conditions/Version_1/threeback(4)_v1.xlsx,New rule: Press 'space' when you see 3-back (i.e. the same letter as the one that appeared 3 letters ago.),a,space,,,,,,,,,0,15,15,15,0,6,6,6,,,,,,,,,,,,,,,,,,,,,,,,,,,,,,,,,,,,,,,,,,,,,,,,,,,,,,,,,,,,,,,,,,,,,1.01,1307.3726384999995,None,space,1,1307.3726384999995,None,0.4740371999996569,P035,FENCOG,1,Pre,2022_Apr_11_1143,N-Back (New Version 2021),2021.1.4,120.063153218133,
,,,,Conditions/Version_1/threeback(4)_v1.xlsx,New rule: Press 'space' when you see 3-back (i.e. the same letter as the one that appeared 3 letters ago.),p,space,,,,,,,,,0,15,15,15,0,7,7,7,,,,,,,,,,,,,,,,,,,,,,,,,,,,,,,,,,,,,,,,,,,,,,,,,,,,,,,,,,,,,,,,,,,,,1.6052,1310.9830218000002,None,space,1,1310.9830218000002,None,0.6719265000001542,P035,FENCOG,1,Pre,2022_Apr_11_1143,N-Back (New Version 2021),2021.1.4,120.063153218133,
,,,,Conditions/Version_1/threeback(4)_v1.xlsx,New rule: Press 'space' when you see 3-back (i.e. the same letter as the one that appeared 3 letters ago.),x,None,,,,,,,,,0,15,15,15,0,8,8,8,,,,,,,,,,,,,,,,,,,,,,,,,,,,,,,,,,,,,,,,,,,,,,,,,,,,,,,,,,,,,,,,,,,,,1.8098,1314.7995821,None,None,1,1314.7995821,None,,P035,FENCOG,1,Pre,2022_Apr_11_1143,N-Back (New Version 2021),2021.1.4,120.063153218133,
,,,,Conditions/Version_1/threeback(4)_v1.xlsx,New rule: Press 'space' when you see 3-back (i.e. the same letter as the one that appeared 3 letters ago.),X,None,,,,,,,,,0,15,15,15,0,9,9,9,,,,,,,,,,,,,,,,,,,,,,,,,,,,,,,,,,,,,,,,,,,,,,,,,,,,,,,,,,,,,,,,,,,,,1.475,1318.2891495999997,None,None,1,1318.2891495999997,None,,P035,FENCOG,1,Pre,2022_Apr_11_1143,N-Back (New Version 2021),2021.1.4,120.063153218133,
,,,,Conditions/Version_1/threeback(4)_v1.xlsx,New rule: Press 'space' when you see 3-back (i.e. the same letter as the one that appeared 3 letters ago.),,,,,,,,,,,0,15,15,15,,,,,,,,,,,,,,,,,,,,,,,,,,,,,,,,,,,,,,,,,,,,,,,,,,,,,,,,,,,,,,,,,,,,,,,,,,,,,,,,,P035,FENCOG,1,Pre,2022_Apr_11_1143,N-Back (New Version 2021),2021.1.4,120.063153218133,
