CondFileP,InstructionsP,LettersDisplayedP,CorrectnessP,CondFile,Instructions,LettersDisplayed,Correctness,practicetrials.thisRepN,practicetrials.thisTrialN,practicetrials.thisN,practicetrials.thisIndex,InnerLoopPractice.thisRepN,InnerLoopPractice.thisTrialN,InnerLoopPractice.thisN,InnerLoopPractice.thisIndex,trials.thisRepN,trials.thisTrialN,trials.thisN,trials.thisIndex,InnerLoop.thisRepN,InnerLoop.thisTrialN,InnerLoop.thisN,InnerLoop.thisIndex,TaskVersionText.started,TaskVersionText.stopped,InstrKey1.keys,InstrKey1.rt,InstrKey1.started,InstrKey1.stopped,text.started,text.stopped,key_resp_4.keys,key_resp_4.rt,key_resp_4.started,key_resp_4.stopped,text_2.started,text_2.stopped,key_resp_3.keys,key_resp_3.rt,key_resp_3.started,key_resp_3.stopped,text_3.started,text_3.stopped,key_resp_2.keys,key_resp_2.rt,key_resp_2.started,key_resp_2.stopped,PractIn1.started,PractIn1.stopped,PractIn2.started,PractIn2.stopped,PractInstructionPass.keys,PractInstructionPass.rt,PractInstructionPass.started,PractInstructionPass.stopped,PractBlock1.started,PractBlock1.stopped,ISIjitterPractice,ISI_Pract_Fixation.started,ISI_Pract_Fixation.stopped,N_backP.started,N_backP.stopped,KeyPractice.keys,KeyPractice.corr,KeyPractice.rt,KeyPractice.started,KeyPractice.stopped,text_4.started,text_4.stopped,TransitionText.started,TransitionText.stopped,key_resp_6.keys,key_resp_6.rt,key_resp_6.started,key_resp_6.stopped,text_5.started,text_5.stopped,key_resp_5.keys,key_resp_5.rt,key_resp_5.started,key_resp_5.stopped,MainInt1.started,MainInt1.stopped,MainInt2.started,MainInt2.stopped,InstructionPass.keys,InstructionPass.rt,InstructionPass.started,InstructionPass.stopped,Blocks1.started,Blocks1.stopped,ISIjitter,N_backD.started,N_backD.stopped,key_resp.keys,key_resp.corr,key_resp.started,key_resp.stopped,key_resp.rt,participant,Study Name,Task Version (required to run),PRE/POST,date,expName,psychopyVersion,frameRate
,,,,,,,,,,,,,,,,,,,,,,,,24.3058239,None,space,277.3813066,24.8023084,None,,,,,,,,,,,,,,,,,,,,,,,,,,,,,,,,,,,,,,,,,,,,,,,,,,,,,,,,,,,,,,,,,,,,,,,P035,FENCOG,2,Post,2022_Apr_19_1211,N-Back (New Version 2021),2021.1.4,120.056955
,,,,,,,,,,,,,,,,,,,,,,,,,,,,,,302.2292951,None,space,18.8469067,302.720931,None,,,,,,,,,,,,,,,,,,,,,,,,,,,,,,,,,,,,,,,,,,,,,,,,,,,,,,,,,,,,,,,,,P035,FENCOG,2,Post,2022_Apr_19_1211,N-Back (New Version 2021),2021.1.4,120.056955
,,,,,,,,,,,,,,,,,,,,,,,,,,,,,,,,,,,,321.6081606,None,space,2.8047976,322.0988579,None,,,,,,,,,,,,,,,,,,,,,,,,,,,,,,,,,,,,,,,,,,,,,,,,,,,,,,,,,,,P035,FENCOG,2,Post,2022_Apr_19_1211,N-Back (New Version 2021),2021.1.4,120.056955
,,,,,,,,,,,,,,,,,,,,,,,,,,,,,,,,,,,,,,,,,,324.9365628,None,space,0.5767712,325.4310937,None,,,,,,,,,,,,,,,,,,,,,,,,,,,,,,,,,,,,,,,,,,,,,,,,,,,,,P035,FENCOG,2,Post,2022_Apr_19_1211,N-Back (New Version 2021),2021.1.4,120.056955
Conditions/Version_2Pr/zeroback(1)_v2.xlsx,Rule: Press 'space' when you see the letter 'x' or 'X'.,x,space,,,,,0,0,0,0,0,0,0,0,,,,,,,,,,,,,,,,,,,,,,,,,,,,,,,,,327.395285,None,330.3805808,None,space,1.011146,330.3805808,None,327.395285,None,1.415,331.4217183,None,332.8391477,None,space,1,0.4326728,332.8391477,None,333.2915559,None,,,,,,,,,,,,,,,,,,,,,,,,,,,,,,,P035,FENCOG,2,Post,2022_Apr_19_1211,N-Back (New Version 2021),2021.1.4,120.056955
Conditions/Version_2Pr/zeroback(1)_v2.xlsx,Rule: Press 'space' when you see the letter 'x' or 'X'.,R,None,,,,,0,0,0,0,0,1,1,1,,,,,,,,,,,,,,,,,,,,,,,,,,,,,,,,,,,,,,,,,,,1.84,334.7946848,None,336.6380366,None,None,1,,336.6380366,None,338.6429828,None,,,,,,,,,,,,,,,,,,,,,,,,,,,,,,,P035,FENCOG,2,Post,2022_Apr_19_1211,N-Back (New Version 2021),2021.1.4,120.056955
Conditions/Version_2Pr/zeroback(1)_v2.xlsx,Rule: Press 'space' when you see the letter 'x' or 'X'.,p,None,,,,,0,0,0,0,0,2,2,2,,,,,,,,,,,,,,,,,,,,,,,,,,,,,,,,,,,,,,,,,,,1.04,340.142592,None,341.189298,None,None,1,,341.189298,None,343.1916436,None,,,,,,,,,,,,,,,,,,,,,,,,,,,,,,,P035,FENCOG,2,Post,2022_Apr_19_1211,N-Back (New Version 2021),2021.1.4,120.056955
Conditions/Version_2Pr/zeroback(1)_v2.xlsx,Rule: Press 'space' when you see the letter 'x' or 'X'.,O,None,,,,,0,0,0,0,0,3,3,3,,,,,,,,,,,,,,,,,,,,,,,,,,,,,,,,,,,,,,,,,,,1.54,344.6911808,None,346.2339536,None,None,1,,346.2339536,None,348.2409469,None,,,,,,,,,,,,,,,,,,,,,,,,,,,,,,,P035,FENCOG,2,Post,2022_Apr_19_1211,N-Back (New Version 2021),2021.1.4,120.056955
Conditions/Version_2Pr/zeroback(1)_v2.xlsx,Rule: Press 'space' when you see the letter 'x' or 'X'.,i,None,,,,,0,0,0,0,0,4,4,4,,,,,,,,,,,,,,,,,,,,,,,,,,,,,,,,,,,,,,,,,,,1.39,349.739745,None,351.1317417,None,None,1,,351.1317417,None,353.1387618,None,,,,,,,,,,,,,,,,,,,,,,,,,,,,,,,P035,FENCOG,2,Post,2022_Apr_19_1211,N-Back (New Version 2021),2021.1.4,120.056955
Conditions/Version_2Pr/zeroback(1)_v2.xlsx,Rule: Press 'space' when you see the letter 'x' or 'X'.,U,None,,,,,0,0,0,0,0,5,5,5,,,,,,,,,,,,,,,,,,,,,,,,,,,,,,,,,,,,,,,,,,,1.765,354.6383115,None,356.406621,None,None,1,,356.406621,None,358.4120299,None,,,,,,,,,,,,,,,,,,,,,,,,,,,,,,,P035,FENCOG,2,Post,2022_Apr_19_1211,N-Back (New Version 2021),2021.1.4,120.056955
Conditions/Version_2Pr/zeroback(1)_v2.xlsx,Rule: Press 'space' when you see the letter 'x' or 'X'.,N,None,,,,,0,0,0,0,0,6,6,6,,,,,,,,,,,,,,,,,,,,,,,,,,,,,,,,,,,,,,,,,,,1.915,359.9117495,None,361.8319029,None,None,1,,361.8319029,None,363.8355962,None,,,,,,,,,,,,,,,,,,,,,,,,,,,,,,,P035,FENCOG,2,Post,2022_Apr_19_1211,N-Back (New Version 2021),2021.1.4,120.056955
Conditions/Version_2Pr/zeroback(1)_v2.xlsx,Rule: Press 'space' when you see the letter 'x' or 'X'.,m,None,,,,,0,0,0,0,0,7,7,7,,,,,,,,,,,,,,,,,,,,,,,,,,,,,,,,,,,,,,,,,,,1.79,365.3351504,None,367.1268578,None,None,1,,367.1268578,None,369.134009,None,,,,,,,,,,,,,,,,,,,,,,,,,,,,,,,P035,FENCOG,2,Post,2022_Apr_19_1211,N-Back (New Version 2021),2021.1.4,120.056955
Conditions/Version_2Pr/zeroback(1)_v2.xlsx,Rule: Press 'space' when you see the letter 'x' or 'X'.,x,space,,,,,0,0,0,0,0,8,8,8,,,,,,,,,,,,,,,,,,,,,,,,,,,,,,,,,,,,,,,,,,,1.09,370.633475,None,371.7246728,None,space,1,0.4031514,371.7246728,None,372.1431779,None,,,,,,,,,,,,,,,,,,,,,,,,,,,,,,,P035,FENCOG,2,Post,2022_Apr_19_1211,N-Back (New Version 2021),2021.1.4,120.056955
Conditions/Version_2Pr/zeroback(1)_v2.xlsx,Rule: Press 'space' when you see the letter 'x' or 'X'.,X,space,,,,,0,0,0,0,0,9,9,9,,,,,,,,,,,,,,,,,,,,,,,,,,,,,,,,,,,,,,,,,,,1.215,373.649309,None,374.8672027,None,space,1,0.4044174,374.8672027,None,375.2824061,None,,,,,,,,,,,,,,,,,,,,,,,,,,,,,,,P035,FENCOG,2,Post,2022_Apr_19_1211,N-Back (New Version 2021),2021.1.4,120.056955
Conditions/Version_2Pr/zeroback(1)_v2.xlsx,Rule: Press 'space' when you see the letter 'x' or 'X'.,,,,,,,0,0,0,0,,,,,,,,,,,,,,,,,,,,,,,,,,,,,,,,,,,,,,,,,,,,,,,,,,,,,,,,,,,,,,,,,,,,,,,,,,,,,,,,,,,,,,,,,P035,FENCOG,2,Post,2022_Apr_19_1211,N-Back (New Version 2021),2021.1.4,120.056955
Conditions/Version_2Pr/oneback(1)_v2.xlsx,New rule: Press 'space' when you see 1-back (i.e. the same letter as the one that appeared 1 letter ago.),r,None,,,,,0,1,1,1,0,0,0,0,,,,,,,,,,,,,,,,,,,,,,,,,,,,,,,,,376.8118917,None,379.7905361,None,space,48.0891303,379.7905361,None,376.8118917,None,1.215,427.9072567,None,429.1263307,None,None,1,,429.1263307,None,431.1324054,None,,,,,,,,,,,,,,,,,,,,,,,,,,,,,,,P035,FENCOG,2,Post,2022_Apr_19_1211,N-Back (New Version 2021),2021.1.4,120.056955
Conditions/Version_2Pr/oneback(1)_v2.xlsx,New rule: Press 'space' when you see 1-back (i.e. the same letter as the one that appeared 1 letter ago.),t,None,,,,,0,1,1,1,0,1,1,1,,,,,,,,,,,,,,,,,,,,,,,,,,,,,,,,,,,,,,,,,,,1.565,432.6319758,None,434.1990459,None,None,1,,434.1990459,None,436.2058721,None,,,,,,,,,,,,,,,,,,,,,,,,,,,,,,,P035,FENCOG,2,Post,2022_Apr_19_1211,N-Back (New Version 2021),2021.1.4,120.056955
Conditions/Version_2Pr/oneback(1)_v2.xlsx,New rule: Press 'space' when you see 1-back (i.e. the same letter as the one that appeared 1 letter ago.),Y,None,,,,,0,1,1,1,0,2,2,2,,,,,,,,,,,,,,,,,,,,,,,,,,,,,,,,,,,,,,,,,,,1.79,437.7052245,None,439.4966666,None,None,1,,439.4966666,None,441.4957653,None,,,,,,,,,,,,,,,,,,,,,,,,,,,,,,,P035,FENCOG,2,Post,2022_Apr_19_1211,N-Back (New Version 2021),2021.1.4,120.056955
Conditions/Version_2Pr/oneback(1)_v2.xlsx,New rule: Press 'space' when you see 1-back (i.e. the same letter as the one that appeared 1 letter ago.),y,space,,,,,0,1,1,1,0,3,3,3,,,,,,,,,,,,,,,,,,,,,,,,,,,,,,,,,,,,,,,,,,,1.315,442.9955134,None,444.3123924,None,space,1,0.2951054,444.3123924,None,444.6202728,None,,,,,,,,,,,,,,,,,,,,,,,,,,,,,,,P035,FENCOG,2,Post,2022_Apr_19_1211,N-Back (New Version 2021),2021.1.4,120.056955
Conditions/Version_2Pr/oneback(1)_v2.xlsx,New rule: Press 'space' when you see 1-back (i.e. the same letter as the one that appeared 1 letter ago.),p,None,,,,,0,1,1,1,0,4,4,4,,,,,,,,,,,,,,,,,,,,,,,,,,,,,,,,,,,,,,,,,,,1.34,446.1195735,None,447.4625605,None,None,1,,447.4625605,None,449.4684375,None,,,,,,,,,,,,,,,,,,,,,,,,,,,,,,,P035,FENCOG,2,Post,2022_Apr_19_1211,N-Back (New Version 2021),2021.1.4,120.056955
Conditions/Version_2Pr/oneback(1)_v2.xlsx,New rule: Press 'space' when you see 1-back (i.e. the same letter as the one that appeared 1 letter ago.),P,space,,,,,0,1,1,1,0,5,5,5,,,,,,,,,,,,,,,,,,,,,,,,,,,,,,,,,,,,,,,,,,,1.29,450.9682302,None,452.2663964,None,space,1,0.3332896,452.2663964,None,452.6109376,None,,,,,,,,,,,,,,,,,,,,,,,,,,,,,,,P035,FENCOG,2,Post,2022_Apr_19_1211,N-Back (New Version 2021),2021.1.4,120.056955
Conditions/Version_2Pr/oneback(1)_v2.xlsx,New rule: Press 'space' when you see 1-back (i.e. the same letter as the one that appeared 1 letter ago.),e,None,,,,,0,1,1,1,0,6,6,6,,,,,,,,,,,,,,,,,,,,,,,,,,,,,,,,,,,,,,,,,,,1.94,454.1172331,None,456.0599989,None,None,1,,456.0599989,None,458.0659745,None,,,,,,,,,,,,,,,,,,,,,,,,,,,,,,,P035,FENCOG,2,Post,2022_Apr_19_1211,N-Back (New Version 2021),2021.1.4,120.056955
Conditions/Version_2Pr/oneback(1)_v2.xlsx,New rule: Press 'space' when you see 1-back (i.e. the same letter as the one that appeared 1 letter ago.),r,None,,,,,0,1,1,1,0,7,7,7,,,,,,,,,,,,,,,,,,,,,,,,,,,,,,,,,,,,,,,,,,,1.415,459.5656884,None,460.9814957,None,None,1,,460.9814957,None,462.981328,None,,,,,,,,,,,,,,,,,,,,,,,,,,,,,,,P035,FENCOG,2,Post,2022_Apr_19_1211,N-Back (New Version 2021),2021.1.4,120.056955
Conditions/Version_2Pr/oneback(1)_v2.xlsx,New rule: Press 'space' when you see 1-back (i.e. the same letter as the one that appeared 1 letter ago.),R,space,,,,,0,1,1,1,0,8,8,8,,,,,,,,,,,,,,,,,,,,,,,,,,,,,,,,,,,,,,,,,,,1.69,464.4809091,None,466.1728977,None,space,1,0.3147776,466.1728977,None,466.4985874,None,,,,,,,,,,,,,,,,,,,,,,,,,,,,,,,P035,FENCOG,2,Post,2022_Apr_19_1211,N-Back (New Version 2021),2021.1.4,120.056955
Conditions/Version_2Pr/oneback(1)_v2.xlsx,New rule: Press 'space' when you see 1-back (i.e. the same letter as the one that appeared 1 letter ago.),p,None,,,,,0,1,1,1,0,9,9,9,,,,,,,,,,,,,,,,,,,,,,,,,,,,,,,,,,,,,,,,,,,1.665,468.004774,None,469.6729332,None,None,1,,469.6729332,None,471.6787142,None,,,,,,,,,,,,,,,,,,,,,,,,,,,,,,,P035,FENCOG,2,Post,2022_Apr_19_1211,N-Back (New Version 2021),2021.1.4,120.056955
Conditions/Version_2Pr/oneback(1)_v2.xlsx,New rule: Press 'space' when you see 1-back (i.e. the same letter as the one that appeared 1 letter ago.),,,,,,,0,1,1,1,,,,,,,,,,,,,,,,,,,,,,,,,,,,,,,,,,,,,,,,,,,,,,,,,,,,,,,,,,,,,,,,,,,,,,,,,,,,,,,,,,,,,,,,,P035,FENCOG,2,Post,2022_Apr_19_1211,N-Back (New Version 2021),2021.1.4,120.056955
Conditions/Version_2Pr/twoback(1)_v2.xlsx,New rule: Press 'space' when you see 2-back (i.e. the same letter as the one that appeared 2 letters ago.),r,None,,,,,0,2,2,2,0,0,0,0,,,,,,,,,,,,,,,,,,,,,,,,,,,,,,,,,473.2046045,None,476.1880588,None,space,0.7475491,476.1880588,None,473.2046045,None,1.215,476.9616495,None,478.177678,None,None,1,,478.177678,None,480.1846194,None,,,,,,,,,,,,,,,,,,,,,,,,,,,,,,,P035,FENCOG,2,Post,2022_Apr_19_1211,N-Back (New Version 2021),2021.1.4,120.056955
Conditions/Version_2Pr/twoback(1)_v2.xlsx,New rule: Press 'space' when you see 2-back (i.e. the same letter as the one that appeared 2 letters ago.),P,None,,,,,0,2,2,2,0,1,1,1,,,,,,,,,,,,,,,,,,,,,,,,,,,,,,,,,,,,,,,,,,,1.09,481.6841552,None,482.7757475,None,None,1,,482.7757475,None,484.7746582,None,,,,,,,,,,,,,,,,,,,,,,,,,,,,,,,P035,FENCOG,2,Post,2022_Apr_19_1211,N-Back (New Version 2021),2021.1.4,120.056955
Conditions/Version_2Pr/twoback(1)_v2.xlsx,New rule: Press 'space' when you see 2-back (i.e. the same letter as the one that appeared 2 letters ago.),o,None,,,,,0,2,2,2,0,2,2,2,,,,,,,,,,,,,,,,,,,,,,,,,,,,,,,,,,,,,,,,,,,1.89,486.2741901,None,488.167926,None,None,1,,488.167926,None,490.1731936,None,,,,,,,,,,,,,,,,,,,,,,,,,,,,,,,P035,FENCOG,2,Post,2022_Apr_19_1211,N-Back (New Version 2021),2021.1.4,120.056955
Conditions/Version_2Pr/twoback(1)_v2.xlsx,New rule: Press 'space' when you see 2-back (i.e. the same letter as the one that appeared 2 letters ago.),p,space,,,,,0,2,2,2,0,3,3,3,,,,,,,,,,,,,,,,,,,,,,,,,,,,,,,,,,,,,,,,,,,1.99,491.6727805,None,493.6654023,None,space,1,0.3020364,493.6654023,None,493.9809637,None,,,,,,,,,,,,,,,,,,,,,,,,,,,,,,,P035,FENCOG,2,Post,2022_Apr_19_1211,N-Back (New Version 2021),2021.1.4,120.056955
Conditions/Version_2Pr/twoback(1)_v2.xlsx,New rule: Press 'space' when you see 2-back (i.e. the same letter as the one that appeared 2 letters ago.),Y,None,,,,,0,2,2,2,0,4,4,4,,,,,,,,,,,,,,,,,,,,,,,,,,,,,,,,,,,,,,,,,,,1.465,495.4800091,None,496.946238,None,None,1,,496.946238,None,498.9455563,None,,,,,,,,,,,,,,,,,,,,,,,,,,,,,,,P035,FENCOG,2,Post,2022_Apr_19_1211,N-Back (New Version 2021),2021.1.4,120.056955
Conditions/Version_2Pr/twoback(1)_v2.xlsx,New rule: Press 'space' when you see 2-back (i.e. the same letter as the one that appeared 2 letters ago.),q,None,,,,,0,2,2,2,0,5,5,5,,,,,,,,,,,,,,,,,,,,,,,,,,,,,,,,,,,,,,,,,,,1.49,500.445284,None,501.9378488,None,None,1,,501.9378488,None,503.9453187,None,,,,,,,,,,,,,,,,,,,,,,,,,,,,,,,P035,FENCOG,2,Post,2022_Apr_19_1211,N-Back (New Version 2021),2021.1.4,120.056955
Conditions/Version_2Pr/twoback(1)_v2.xlsx,New rule: Press 'space' when you see 2-back (i.e. the same letter as the one that appeared 2 letters ago.),m,None,,,,,0,2,2,2,0,6,6,6,,,,,,,,,,,,,,,,,,,,,,,,,,,,,,,,,,,,,,,,,,,2.015,505.4437517,None,507.4596669,None,None,1,,507.4596669,None,509.4592696,None,,,,,,,,,,,,,,,,,,,,,,,,,,,,,,,P035,FENCOG,2,Post,2022_Apr_19_1211,N-Back (New Version 2021),2021.1.4,120.056955
Conditions/Version_2Pr/twoback(1)_v2.xlsx,New rule: Press 'space' when you see 2-back (i.e. the same letter as the one that appeared 2 letters ago.),Q,space,,,,,0,2,2,2,0,7,7,7,,,,,,,,,,,,,,,,,,,,,,,,,,,,,,,,,,,,,,,,,,,1.665,510.9587928,None,512.6288098,None,space,1,0.2831675,512.6288098,None,512.9267163,None,,,,,,,,,,,,,,,,,,,,,,,,,,,,,,,P035,FENCOG,2,Post,2022_Apr_19_1211,N-Back (New Version 2021),2021.1.4,120.056955
Conditions/Version_2Pr/twoback(1)_v2.xlsx,New rule: Press 'space' when you see 2-back (i.e. the same letter as the one that appeared 2 letters ago.),L,None,,,,,0,2,2,2,0,8,8,8,,,,,,,,,,,,,,,,,,,,,,,,,,,,,,,,,,,,,,,,,,,1.615,514.434594,None,516.0550609,None,None,1,,516.0550609,None,518.0567155,None,,,,,,,,,,,,,,,,,,,,,,,,,,,,,,,P035,FENCOG,2,Post,2022_Apr_19_1211,N-Back (New Version 2021),2021.1.4,120.056955
Conditions/Version_2Pr/twoback(1)_v2.xlsx,New rule: Press 'space' when you see 2-back (i.e. the same letter as the one that appeared 2 letters ago.),q,space,,,,,0,2,2,2,0,9,9,9,,,,,,,,,,,,,,,,,,,,,,,,,,,,,,,,,,,,,,,,,,,1.365,519.5562957,None,520.9227501,None,space,1,0.3328583,520.9227501,None,521.2637675,None,,,,,,,,,,,,,,,,,,,,,,,,,,,,,,,P035,FENCOG,2,Post,2022_Apr_19_1211,N-Back (New Version 2021),2021.1.4,120.056955
Conditions/Version_2Pr/twoback(1)_v2.xlsx,New rule: Press 'space' when you see 2-back (i.e. the same letter as the one that appeared 2 letters ago.),,,,,,,0,2,2,2,,,,,,,,,,,,,,,,,,,,,,,,,,,,,,,,,,,,,,,,,,,,,,,,,,,,,,,,,,,,,,,,,,,,,,,,,,,,,,,,,,,,,,,,,P035,FENCOG,2,Post,2022_Apr_19_1211,N-Back (New Version 2021),2021.1.4,120.056955
Conditions/Version_2Pr/threeback(1)_v2.xlsx,New rule: Press 'space' when you see 3-back (i.e. the same letter as the one that appeared 3 letters ago.),u,None,,,,,0,3,3,3,0,0,0,0,,,,,,,,,,,,,,,,,,,,,,,,,,,,,,,,,522.7843585,None,525.7743458,None,space,2.0971192,525.7743458,None,522.7843585,None,1.265,527.8983557,None,529.1736372,None,None,1,,529.1736372,None,531.1778237,None,,,,,,,,,,,,,,,,,,,,,,,,,,,,,,,P035,FENCOG,2,Post,2022_Apr_19_1211,N-Back (New Version 2021),2021.1.4,120.056955
Conditions/Version_2Pr/threeback(1)_v2.xlsx,New rule: Press 'space' when you see 3-back (i.e. the same letter as the one that appeared 3 letters ago.),U,None,,,,,0,3,3,3,0,1,1,1,,,,,,,,,,,,,,,,,,,,,,,,,,,,,,,,,,,,,,,,,,,1.74,532.6774105,None,534.4189396,None,space,0,0.5328917,534.4189396,None,534.9648958,None,,,,,,,,,,,,,,,,,,,,,,,,,,,,,,,P035,FENCOG,2,Post,2022_Apr_19_1211,N-Back (New Version 2021),2021.1.4,120.056955
Conditions/Version_2Pr/threeback(1)_v2.xlsx,New rule: Press 'space' when you see 3-back (i.e. the same letter as the one that appeared 3 letters ago.),p,None,,,,,0,3,3,3,0,2,2,2,,,,,,,,,,,,,,,,,,,,,,,,,,,,,,,,,,,,,,,,,,,1.94,536.4679313,None,538.4088313,None,None,1,,538.4088313,None,540.4189978,None,,,,,,,,,,,,,,,,,,,,,,,,,,,,,,,P035,FENCOG,2,Post,2022_Apr_19_1211,N-Back (New Version 2021),2021.1.4,120.056955
Conditions/Version_2Pr/threeback(1)_v2.xlsx,New rule: Press 'space' when you see 3-back (i.e. the same letter as the one that appeared 3 letters ago.),U,space,,,,,0,3,3,3,0,3,3,3,,,,,,,,,,,,,,,,,,,,,,,,,,,,,,,,,,,,,,,,,,,1.34,541.9163693,None,543.2575174,None,space,1,0.2781885,543.2575174,None,543.5505768,None,,,,,,,,,,,,,,,,,,,,,,,,,,,,,,,P035,FENCOG,2,Post,2022_Apr_19_1211,N-Back (New Version 2021),2021.1.4,120.056955
Conditions/Version_2Pr/threeback(1)_v2.xlsx,New rule: Press 'space' when you see 3-back (i.e. the same letter as the one that appeared 3 letters ago.),e,None,,,,,0,3,3,3,0,4,4,4,,,,,,,,,,,,,,,,,,,,,,,,,,,,,,,,,,,,,,,,,,,1.49,545.0583233,None,546.5499885,None,None,1,,546.5499885,None,548.5561394,None,,,,,,,,,,,,,,,,,,,,,,,,,,,,,,,P035,FENCOG,2,Post,2022_Apr_19_1211,N-Back (New Version 2021),2021.1.4,120.056955
Conditions/Version_2Pr/threeback(1)_v2.xlsx,New rule: Press 'space' when you see 3-back (i.e. the same letter as the one that appeared 3 letters ago.),R,None,,,,,0,3,3,3,0,5,5,5,,,,,,,,,,,,,,,,,,,,,,,,,,,,,,,,,,,,,,,,,,,1.465,550.0555656,None,551.522909,None,None,1,,551.522909,None,553.5296222,None,,,,,,,,,,,,,,,,,,,,,,,,,,,,,,,P035,FENCOG,2,Post,2022_Apr_19_1211,N-Back (New Version 2021),2021.1.4,120.056955
Conditions/Version_2Pr/threeback(1)_v2.xlsx,New rule: Press 'space' when you see 3-back (i.e. the same letter as the one that appeared 3 letters ago.),p,None,,,,,0,3,3,3,0,6,6,6,,,,,,,,,,,,,,,,,,,,,,,,,,,,,,,,,,,,,,,,,,,1.315,555.0291865,None,556.347159,None,None,1,,556.347159,None,558.3532905,None,,,,,,,,,,,,,,,,,,,,,,,,,,,,,,,P035,FENCOG,2,Post,2022_Apr_19_1211,N-Back (New Version 2021),2021.1.4,120.056955
Conditions/Version_2Pr/threeback(1)_v2.xlsx,New rule: Press 'space' when you see 3-back (i.e. the same letter as the one that appeared 3 letters ago.),E,space,,,,,0,3,3,3,0,7,7,7,,,,,,,,,,,,,,,,,,,,,,,,,,,,,,,,,,,,,,,,,,,1.765,559.8526781,None,561.6206344,None,space,1,0.3791515,561.6206344,None,562.0119584,None,,,,,,,,,,,,,,,,,,,,,,,,,,,,,,,P035,FENCOG,2,Post,2022_Apr_19_1211,N-Back (New Version 2021),2021.1.4,120.056955
Conditions/Version_2Pr/threeback(1)_v2.xlsx,New rule: Press 'space' when you see 3-back (i.e. the same letter as the one that appeared 3 letters ago.),k,None,,,,,0,3,3,3,0,8,8,8,,,,,,,,,,,,,,,,,,,,,,,,,,,,,,,,,,,,,,,,,,,1.415,563.5180483,None,564.9352295,None,None,1,,564.9352295,None,566.9419454,None,,,,,,,,,,,,,,,,,,,,,,,,,,,,,,,P035,FENCOG,2,Post,2022_Apr_19_1211,N-Back (New Version 2021),2021.1.4,120.056955
Conditions/Version_2Pr/threeback(1)_v2.xlsx,New rule: Press 'space' when you see 3-back (i.e. the same letter as the one that appeared 3 letters ago.),m,None,,,,,0,3,3,3,0,9,9,9,,,,,,,,,,,,,,,,,,,,,,,,,,,,,,,,,,,,,,,,,,,1.115,568.4418566,None,569.5581378,None,None,1,,569.5581378,None,571.5576517,None,,,,,,,,,,,,,,,,,,,,,,,,,,,,,,,P035,FENCOG,2,Post,2022_Apr_19_1211,N-Back (New Version 2021),2021.1.4,120.056955
Conditions/Version_2Pr/threeback(1)_v2.xlsx,New rule: Press 'space' when you see 3-back (i.e. the same letter as the one that appeared 3 letters ago.),,,,,,,0,3,3,3,,,,,,,,,,,,,,,,,,,,,,,,,,,,,,,,,,,,,,,,,,,,,,,,,,,,,,,,,,,,,,,,,,,,,,,,,,,,,,,,,,,,,,,,,P035,FENCOG,2,Post,2022_Apr_19_1211,N-Back (New Version 2021),2021.1.4,120.056955
,,,,,,,,,,,,,,,,,,,,,,,,,,,,,,,,,,,,,,,,,,,,,,,,,,,,,,,,,,,,,,,,,,,,,,573.0652267,None,space,3.050445,573.557258,None,,,,,,,,,,,,,,,,,,,,,,,,,P035,FENCOG,2,Post,2022_Apr_19_1211,N-Back (New Version 2021),2021.1.4,120.056955
,,,,,,,,,,,,,,,,,,,,,,,,,,,,,,,,,,,,,,,,,,,,,,,,,,,,,,,,,,,,,,,,,,,,,,,,,,,,576.6375385,None,space,0.7158907,577.1315836,None,,,,,,,,,,,,,,,,,,,P035,FENCOG,2,Post,2022_Apr_19_1211,N-Back (New Version 2021),2021.1.4,120.056955
,,,,Conditions/Version_1/zeroback(1)_v1.xlsx,Rule: Press 'space' when you see the letter 'x' or 'X'.,b,None,,,,,,,,,0,0,0,0,0,0,0,0,,,,,,,,,,,,,,,,,,,,,,,,,,,,,,,,,,,,,,,,,,,,,,,,,,,,,,,,,,,577.9591141,None,580.9483261,None,space,0.8912508,580.9483261,None,577.9591141,None,1.413,583.2815693,None,None,1,583.2815693,None,,P035,FENCOG,2,Post,2022_Apr_19_1211,N-Back (New Version 2021),2021.1.4,120.056955
,,,,Conditions/Version_1/zeroback(1)_v1.xlsx,Rule: Press 'space' when you see the letter 'x' or 'X'.,T,None,,,,,,,,,0,0,0,0,0,1,1,1,,,,,,,,,,,,,,,,,,,,,,,,,,,,,,,,,,,,,,,,,,,,,,,,,,,,,,,,,,,,,,,,,,,,,1.5308,586.8236444,None,None,1,586.8236444,None,,P035,FENCOG,2,Post,2022_Apr_19_1211,N-Back (New Version 2021),2021.1.4,120.056955
,,,,Conditions/Version_1/zeroback(1)_v1.xlsx,Rule: Press 'space' when you see the letter 'x' or 'X'.,L,None,,,,,,,,,0,0,0,0,0,2,2,2,,,,,,,,,,,,,,,,,,,,,,,,,,,,,,,,,,,,,,,,,,,,,,,,,,,,,,,,,,,,,,,,,,,,,1.7168,590.5461165,None,None,1,590.5461165,None,,P035,FENCOG,2,Post,2022_Apr_19_1211,N-Back (New Version 2021),2021.1.4,120.056955
,,,,Conditions/Version_1/zeroback(1)_v1.xlsx,Rule: Press 'space' when you see the letter 'x' or 'X'.,x,space,,,,,,,,,0,0,0,0,0,3,3,3,,,,,,,,,,,,,,,,,,,,,,,,,,,,,,,,,,,,,,,,,,,,,,,,,,,,,,,,,,,,,,,,,,,,,1.506,594.0590931,None,space,1,594.0590931,None,0.3085812,P035,FENCOG,2,Post,2022_Apr_19_1211,N-Back (New Version 2021),2021.1.4,120.056955
,,,,Conditions/Version_1/zeroback(1)_v1.xlsx,Rule: Press 'space' when you see the letter 'x' or 'X'.,o,None,,,,,,,,,0,0,0,0,0,4,4,4,,,,,,,,,,,,,,,,,,,,,,,,,,,,,,,,,,,,,,,,,,,,,,,,,,,,,,,,,,,,,,,,,,,,,1.0782,597.1415627,None,None,1,597.1415627,None,,P035,FENCOG,2,Post,2022_Apr_19_1211,N-Back (New Version 2021),2021.1.4,120.056955
,,,,Conditions/Version_1/zeroback(1)_v1.xlsx,Rule: Press 'space' when you see the letter 'x' or 'X'.,P,None,,,,,,,,,0,0,0,0,0,5,5,5,,,,,,,,,,,,,,,,,,,,,,,,,,,,,,,,,,,,,,,,,,,,,,,,,,,,,,,,,,,,,,,,,,,,,1.9338,601.0820844,None,None,1,601.0820844,None,,P035,FENCOG,2,Post,2022_Apr_19_1211,N-Back (New Version 2021),2021.1.4,120.056955
,,,,Conditions/Version_1/zeroback(1)_v1.xlsx,Rule: Press 'space' when you see the letter 'x' or 'X'.,X,space,,,,,,,,,0,0,0,0,0,6,6,6,,,,,,,,,,,,,,,,,,,,,,,,,,,,,,,,,,,,,,,,,,,,,,,,,,,,,,,,,,,,,,,,,,,,,1.9462,605.0308435,None,space,1,605.0308435,None,0.296651,P035,FENCOG,2,Post,2022_Apr_19_1211,N-Back (New Version 2021),2021.1.4,120.056955
,,,,Conditions/Version_1/zeroback(1)_v1.xlsx,Rule: Press 'space' when you see the letter 'x' or 'X'.,n,None,,,,,,,,,0,0,0,0,0,7,7,7,,,,,,,,,,,,,,,,,,,,,,,,,,,,,,,,,,,,,,,,,,,,,,,,,,,,,,,,,,,,,,,,,,,,,1.0844,608.1323478,None,None,1,608.1323478,None,,P035,FENCOG,2,Post,2022_Apr_19_1211,N-Back (New Version 2021),2021.1.4,120.056955
,,,,Conditions/Version_1/zeroback(1)_v1.xlsx,Rule: Press 'space' when you see the letter 'x' or 'X'.,M,None,,,,,,,,,0,0,0,0,0,8,8,8,,,,,,,,,,,,,,,,,,,,,,,,,,,,,,,,,,,,,,,,,,,,,,,,,,,,,,,,,,,,,,,,,,,,,1.0658,611.1979341,None,None,1,611.1979341,None,,P035,FENCOG,2,Post,2022_Apr_19_1211,N-Back (New Version 2021),2021.1.4,120.056955
,,,,Conditions/Version_1/zeroback(1)_v1.xlsx,Rule: Press 'space' when you see the letter 'x' or 'X'.,a,None,,,,,,,,,0,0,0,0,0,9,9,9,,,,,,,,,,,,,,,,,,,,,,,,,,,,,,,,,,,,,,,,,,,,,,,,,,,,,,,,,,,,,,,,,,,,,1.6176,614.8298595,None,None,1,614.8298595,None,,P035,FENCOG,2,Post,2022_Apr_19_1211,N-Back (New Version 2021),2021.1.4,120.056955
,,,,Conditions/Version_1/zeroback(1)_v1.xlsx,Rule: Press 'space' when you see the letter 'x' or 'X'.,,,,,,,,,,,0,0,0,0,,,,,,,,,,,,,,,,,,,,,,,,,,,,,,,,,,,,,,,,,,,,,,,,,,,,,,,,,,,,,,,,,,,,,,,,,,,,,,,,,P035,FENCOG,2,Post,2022_Apr_19_1211,N-Back (New Version 2021),2021.1.4,120.056955
,,,,Conditions/Version_1/oneback(1)_v1.xlsx,New rule: Press 'space' when you see 1-back (i.e. the same letter as the one that appeared 1 letter ago.),b,None,,,,,,,,,0,1,1,1,0,0,0,0,,,,,,,,,,,,,,,,,,,,,,,,,,,,,,,,,,,,,,,,,,,,,,,,,,,,,,,,,,,616.8543034,None,619.8385702,None,space,24.4570836,619.8385702,None,616.8543034,None,1.8098,646.1353842,None,None,1,646.1353842,None,,P035,FENCOG,2,Post,2022_Apr_19_1211,N-Back (New Version 2021),2021.1.4,120.056955
,,,,Conditions/Version_1/oneback(1)_v1.xlsx,New rule: Press 'space' when you see 1-back (i.e. the same letter as the one that appeared 1 letter ago.),p,None,,,,,,,,,0,1,1,1,0,1,1,1,,,,,,,,,,,,,,,,,,,,,,,,,,,,,,,,,,,,,,,,,,,,,,,,,,,,,,,,,,,,,,,,,,,,,1.5122,649.6509778,None,None,1,649.6509778,None,,P035,FENCOG,2,Post,2022_Apr_19_1211,N-Back (New Version 2021),2021.1.4,120.056955
,,,,Conditions/Version_1/oneback(1)_v1.xlsx,New rule: Press 'space' when you see 1-back (i.e. the same letter as the one that appeared 1 letter ago.),M,None,,,,,,,,,0,1,1,1,0,2,2,2,,,,,,,,,,,,,,,,,,,,,,,,,,,,,,,,,,,,,,,,,,,,,,,,,,,,,,,,,,,,,,,,,,,,,1.4316,653.0938927,None,None,1,653.0938927,None,,P035,FENCOG,2,Post,2022_Apr_19_1211,N-Back (New Version 2021),2021.1.4,120.056955
,,,,Conditions/Version_1/oneback(1)_v1.xlsx,New rule: Press 'space' when you see 1-back (i.e. the same letter as the one that appeared 1 letter ago.),M,space,,,,,,,,,0,1,1,1,0,3,3,3,,,,,,,,,,,,,,,,,,,,,,,,,,,,,,,,,,,,,,,,,,,,,,,,,,,,,,,,,,,,,,,,,,,,,1.1402,656.2492585,None,space,1,656.2492585,None,0.3502353,P035,FENCOG,2,Post,2022_Apr_19_1211,N-Back (New Version 2021),2021.1.4,120.056955
,,,,Conditions/Version_1/oneback(1)_v1.xlsx,New rule: Press 'space' when you see 1-back (i.e. the same letter as the one that appeared 1 letter ago.),n,None,,,,,,,,,0,1,1,1,0,4,4,4,,,,,,,,,,,,,,,,,,,,,,,,,,,,,,,,,,,,,,,,,,,,,,,,,,,,,,,,,,,,,,,,,,,,,1.4006,659.6490469,None,None,1,659.6490469,None,,P035,FENCOG,2,Post,2022_Apr_19_1211,N-Back (New Version 2021),2021.1.4,120.056955
,,,,Conditions/Version_1/oneback(1)_v1.xlsx,New rule: Press 'space' when you see 1-back (i.e. the same letter as the one that appeared 1 letter ago.),g,None,,,,,,,,,0,1,1,1,0,5,5,5,,,,,,,,,,,,,,,,,,,,,,,,,,,,,,,,,,,,,,,,,,,,,,,,,,,,,,,,,,,,,,,,,,,,,1.754,663.4180102,None,None,1,663.4180102,None,,P035,FENCOG,2,Post,2022_Apr_19_1211,N-Back (New Version 2021),2021.1.4,120.056955
,,,,Conditions/Version_1/oneback(1)_v1.xlsx,New rule: Press 'space' when you see 1-back (i.e. the same letter as the one that appeared 1 letter ago.),P,None,,,,,,,,,0,1,1,1,0,6,6,6,,,,,,,,,,,,,,,,,,,,,,,,,,,,,,,,,,,,,,,,,,,,,,,,,,,,,,,,,,,,,,,,,,,,,1.3014,666.7298697,None,None,1,666.7298697,None,,P035,FENCOG,2,Post,2022_Apr_19_1211,N-Back (New Version 2021),2021.1.4,120.056955
,,,,Conditions/Version_1/oneback(1)_v1.xlsx,New rule: Press 'space' when you see 1-back (i.e. the same letter as the one that appeared 1 letter ago.),o,None,,,,,,,,,0,1,1,1,0,7,7,7,,,,,,,,,,,,,,,,,,,,,,,,,,,,,,,,,,,,,,,,,,,,,,,,,,,,,,,,,,,,,,,,,,,,,1.382,670.1116209,None,None,1,670.1116209,None,,P035,FENCOG,2,Post,2022_Apr_19_1211,N-Back (New Version 2021),2021.1.4,120.056955
,,,,Conditions/Version_1/oneback(1)_v1.xlsx,New rule: Press 'space' when you see 1-back (i.e. the same letter as the one that appeared 1 letter ago.),f,None,,,,,,,,,0,1,1,1,0,8,8,8,,,,,,,,,,,,,,,,,,,,,,,,,,,,,,,,,,,,,,,,,,,,,,,,,,,,,,,,,,,,,,,,,,,,,1.9462,674.0704927,None,None,1,674.0704927,None,,P035,FENCOG,2,Post,2022_Apr_19_1211,N-Back (New Version 2021),2021.1.4,120.056955
,,,,Conditions/Version_1/oneback(1)_v1.xlsx,New rule: Press 'space' when you see 1-back (i.e. the same letter as the one that appeared 1 letter ago.),F,space,,,,,,,,,0,1,1,1,0,9,9,9,,,,,,,,,,,,,,,,,,,,,,,,,,,,,,,,,,,,,,,,,,,,,,,,,,,,,,,,,,,,,,,,,,,,,1.6362,677.7112756,None,space,1,677.7112756,None,0.2965513,P035,FENCOG,2,Post,2022_Apr_19_1211,N-Back (New Version 2021),2021.1.4,120.056955
,,,,Conditions/Version_1/oneback(1)_v1.xlsx,New rule: Press 'space' when you see 1-back (i.e. the same letter as the one that appeared 1 letter ago.),,,,,,,,,,,0,1,1,1,,,,,,,,,,,,,,,,,,,,,,,,,,,,,,,,,,,,,,,,,,,,,,,,,,,,,,,,,,,,,,,,,,,,,,,,,,,,,,,,,P035,FENCOG,2,Post,2022_Apr_19_1211,N-Back (New Version 2021),2021.1.4,120.056955
,,,,Conditions/Version_1/twoback(1)_v1.xlsx,New rule: Press 'space' when you see 2-back (i.e. the same letter as the one that appeared 2 letters ago.),b,None,,,,,,,,,0,2,2,2,0,0,0,0,,,,,,,,,,,,,,,,,,,,,,,,,,,,,,,,,,,,,,,,,,,,,,,,,,,,,,,,,,,679.7379827,None,682.726881,None,space,19.1446859,682.726881,None,679.7379827,None,1.723,703.6267374,None,None,1,703.6267374,None,,P035,FENCOG,2,Post,2022_Apr_19_1211,N-Back (New Version 2021),2021.1.4,120.056955
,,,,Conditions/Version_1/twoback(1)_v1.xlsx,New rule: Press 'space' when you see 2-back (i.e. the same letter as the one that appeared 2 letters ago.),h,None,,,,,,,,,0,2,2,2,0,1,1,1,,,,,,,,,,,,,,,,,,,,,,,,,,,,,,,,,,,,,,,,,,,,,,,,,,,,,,,,,,,,,,,,,,,,,1.661,707.2928411,None,None,1,707.2928411,None,,P035,FENCOG,2,Post,2022_Apr_19_1211,N-Back (New Version 2021),2021.1.4,120.056955
,,,,Conditions/Version_1/twoback(1)_v1.xlsx,New rule: Press 'space' when you see 2-back (i.e. the same letter as the one that appeared 2 letters ago.),j,None,,,,,,,,,0,2,2,2,0,2,2,2,,,,,,,,,,,,,,,,,,,,,,,,,,,,,,,,,,,,,,,,,,,,,,,,,,,,,,,,,,,,,,,,,,,,,1.289,710.5860274,None,None,1,710.5860274,None,,P035,FENCOG,2,Post,2022_Apr_19_1211,N-Back (New Version 2021),2021.1.4,120.056955
,,,,Conditions/Version_1/twoback(1)_v1.xlsx,New rule: Press 'space' when you see 2-back (i.e. the same letter as the one that appeared 2 letters ago.),H,space,,,,,,,,,0,2,2,2,0,3,3,3,,,,,,,,,,,,,,,,,,,,,,,,,,,,,,,,,,,,,,,,,,,,,,,,,,,,,,,,,,,,,,,,,,,,,1.4874,714.0848728,None,space,1,714.0848728,None,0.2907694,P035,FENCOG,2,Post,2022_Apr_19_1211,N-Back (New Version 2021),2021.1.4,120.056955
,,,,Conditions/Version_1/twoback(1)_v1.xlsx,New rule: Press 'space' when you see 2-back (i.e. the same letter as the one that appeared 2 letters ago.),p,None,,,,,,,,,0,2,2,2,0,4,4,4,,,,,,,,,,,,,,,,,,,,,,,,,,,,,,,,,,,,,,,,,,,,,,,,,,,,,,,,,,,,,,,,,,,,,1.9214,718.015056,None,None,1,718.015056,None,,P035,FENCOG,2,Post,2022_Apr_19_1211,N-Back (New Version 2021),2021.1.4,120.056955
,,,,Conditions/Version_1/twoback(1)_v1.xlsx,New rule: Press 'space' when you see 2-back (i.e. the same letter as the one that appeared 2 letters ago.),p,None,,,,,,,,,0,2,2,2,0,5,5,5,,,,,,,,,,,,,,,,,,,,,,,,,,,,,,,,,,,,,,,,,,,,,,,,,,,,,,,,,,,,,,,,,,,,,1.1216,721.146839,None,None,1,721.146839,None,,P035,FENCOG,2,Post,2022_Apr_19_1211,N-Back (New Version 2021),2021.1.4,120.056955
,,,,Conditions/Version_1/twoback(1)_v1.xlsx,New rule: Press 'space' when you see 2-back (i.e. the same letter as the one that appeared 2 letters ago.),w,None,,,,,,,,,0,2,2,2,0,6,6,6,,,,,,,,,,,,,,,,,,,,,,,,,,,,,,,,,,,,,,,,,,,,,,,,,,,,,,,,,,,,,,,,,,,,,1.444,724.5987301,None,None,1,724.5987301,None,,P035,FENCOG,2,Post,2022_Apr_19_1211,N-Back (New Version 2021),2021.1.4,120.056955
,,,,Conditions/Version_1/twoback(1)_v1.xlsx,New rule: Press 'space' when you see 2-back (i.e. the same letter as the one that appeared 2 letters ago.),R,None,,,,,,,,,0,2,2,2,0,7,7,7,,,,,,,,,,,,,,,,,,,,,,,,,,,,,,,,,,,,,,,,,,,,,,,,,,,,,,,,,,,,,,,,,,,,,1.1898,727.7950445,None,None,1,727.7950445,None,,P035,FENCOG,2,Post,2022_Apr_19_1211,N-Back (New Version 2021),2021.1.4,120.056955
,,,,Conditions/Version_1/twoback(1)_v1.xlsx,New rule: Press 'space' when you see 2-back (i.e. the same letter as the one that appeared 2 letters ago.),a,None,,,,,,,,,0,2,2,2,0,8,8,8,,,,,,,,,,,,,,,,,,,,,,,,,,,,,,,,,,,,,,,,,,,,,,,,,,,,,,,,,,,,,,,,,,,,,1.2394,731.0374479,None,None,1,731.0374479,None,,P035,FENCOG,2,Post,2022_Apr_19_1211,N-Back (New Version 2021),2021.1.4,120.056955
,,,,Conditions/Version_1/twoback(1)_v1.xlsx,New rule: Press 'space' when you see 2-back (i.e. the same letter as the one that appeared 2 letters ago.),r,space,,,,,,,,,0,2,2,2,0,9,9,9,,,,,,,,,,,,,,,,,,,,,,,,,,,,,,,,,,,,,,,,,,,,,,,,,,,,,,,,,,,,,,,,,,,,,1.3262,734.3759487,None,space,1,734.3759487,None,0.367834,P035,FENCOG,2,Post,2022_Apr_19_1211,N-Back (New Version 2021),2021.1.4,120.056955
,,,,Conditions/Version_1/twoback(1)_v1.xlsx,New rule: Press 'space' when you see 2-back (i.e. the same letter as the one that appeared 2 letters ago.),,,,,,,,,,,0,2,2,2,,,,,,,,,,,,,,,,,,,,,,,,,,,,,,,,,,,,,,,,,,,,,,,,,,,,,,,,,,,,,,,,,,,,,,,,,,,,,,,,,P035,FENCOG,2,Post,2022_Apr_19_1211,N-Back (New Version 2021),2021.1.4,120.056955
,,,,Conditions/Version_1/threeback(1)_v1.xlsx,New rule: Press 'space' when you see 3-back (i.e. the same letter as the one that appeared 3 letters ago.),r,None,,,,,,,,,0,3,3,3,0,0,0,0,,,,,,,,,,,,,,,,,,,,,,,,,,,,,,,,,,,,,,,,,,,,,,,,,,,,,,,,,,,736.4004383,None,739.3863074,None,space,6.7093667,739.3863074,None,736.4004383,None,1.444,747.5639687,None,None,1,747.5639687,None,,P035,FENCOG,2,Post,2022_Apr_19_1211,N-Back (New Version 2021),2021.1.4,120.056955
,,,,Conditions/Version_1/threeback(1)_v1.xlsx,New rule: Press 'space' when you see 3-back (i.e. the same letter as the one that appeared 3 letters ago.),o,None,,,,,,,,,0,3,3,3,0,1,1,1,,,,,,,,,,,,,,,,,,,,,,,,,,,,,,,,,,,,,,,,,,,,,,,,,,,,,,,,,,,,,,,,,,,,,1.568,751.1384473,None,None,1,751.1384473,None,,P035,FENCOG,2,Post,2022_Apr_19_1211,N-Back (New Version 2021),2021.1.4,120.056955
,,,,Conditions/Version_1/threeback(1)_v1.xlsx,New rule: Press 'space' when you see 3-back (i.e. the same letter as the one that appeared 3 letters ago.),P,None,,,,,,,,,0,3,3,3,0,2,2,2,,,,,,,,,,,,,,,,,,,,,,,,,,,,,,,,,,,,,,,,,,,,,,,,,,,,,,,,,,,,,,,,,,,,,1.0162,754.1622359,None,None,1,754.1622359,None,,P035,FENCOG,2,Post,2022_Apr_19_1211,N-Back (New Version 2021),2021.1.4,120.056955
,,,,Conditions/Version_1/threeback(1)_v1.xlsx,New rule: Press 'space' when you see 3-back (i.e. the same letter as the one that appeared 3 letters ago.),R,space,,,,,,,,,0,3,3,3,0,3,3,3,,,,,,,,,,,,,,,,,,,,,,,,,,,,,,,,,,,,,,,,,,,,,,,,,,,,,,,,,,,,,,,,,,,,,1.227,757.3944887,None,space,1,757.3944887,None,0.3334938,P035,FENCOG,2,Post,2022_Apr_19_1211,N-Back (New Version 2021),2021.1.4,120.056955
,,,,Conditions/Version_1/threeback(1)_v1.xlsx,New rule: Press 'space' when you see 3-back (i.e. the same letter as the one that appeared 3 letters ago.),p,None,,,,,,,,,0,3,3,3,0,4,4,4,,,,,,,,,,,,,,,,,,,,,,,,,,,,,,,,,,,,,,,,,,,,,,,,,,,,,,,,,,,,,,,,,,,,,1.5742,760.9681931,None,None,1,760.9681931,None,,P035,FENCOG,2,Post,2022_Apr_19_1211,N-Back (New Version 2021),2021.1.4,120.056955
,,,,Conditions/Version_1/threeback(1)_v1.xlsx,New rule: Press 'space' when you see 3-back (i.e. the same letter as the one that appeared 3 letters ago.),E,None,,,,,,,,,0,3,3,3,0,5,5,5,,,,,,,,,,,,,,,,,,,,,,,,,,,,,,,,,,,,,,,,,,,,,,,,,,,,,,,,,,,,,,,,,,,,,1.909,764.876116,None,None,1,764.876116,None,,P035,FENCOG,2,Post,2022_Apr_19_1211,N-Back (New Version 2021),2021.1.4,120.056955
,,,,Conditions/Version_1/threeback(1)_v1.xlsx,New rule: Press 'space' when you see 3-back (i.e. the same letter as the one that appeared 3 letters ago.),e,None,,,,,,,,,0,3,3,3,0,6,6,6,,,,,,,,,,,,,,,,,,,,,,,,,,,,,,,,,,,,,,,,,,,,,,,,,,,,,,,,,,,,,,,,,,,,,1.0534,767.9423304,None,None,1,767.9423304,None,,P035,FENCOG,2,Post,2022_Apr_19_1211,N-Back (New Version 2021),2021.1.4,120.056955
,,,,Conditions/Version_1/threeback(1)_v1.xlsx,New rule: Press 'space' when you see 3-back (i.e. the same letter as the one that appeared 3 letters ago.),m,None,,,,,,,,,0,3,3,3,0,7,7,7,,,,,,,,,,,,,,,,,,,,,,,,,,,,,,,,,,,,,,,,,,,,,,,,,,,,,,,,,,,,,,,,,,,,,1.6734,771.623368,None,None,1,771.623368,None,,P035,FENCOG,2,Post,2022_Apr_19_1211,N-Back (New Version 2021),2021.1.4,120.056955
,,,,Conditions/Version_1/threeback(1)_v1.xlsx,New rule: Press 'space' when you see 3-back (i.e. the same letter as the one that appeared 3 letters ago.),n,None,,,,,,,,,0,3,3,3,0,8,8,8,,,,,,,,,,,,,,,,,,,,,,,,,,,,,,,,,,,,,,,,,,,,,,,,,,,,,,,,,,,,,,,,,,,,,1.2704,774.8978046,None,None,1,774.8978046,None,,P035,FENCOG,2,Post,2022_Apr_19_1211,N-Back (New Version 2021),2021.1.4,120.056955
,,,,Conditions/Version_1/threeback(1)_v1.xlsx,New rule: Press 'space' when you see 3-back (i.e. the same letter as the one that appeared 3 letters ago.),e,space,,,,,,,,,0,3,3,3,0,9,9,9,,,,,,,,,,,,,,,,,,,,,,,,,,,,,,,,,,,,,,,,,,,,,,,,,,,,,,,,,,,,,,,,,,,,,1.9648,778.8628379,None,space,1,778.8628379,None,0.3847349,P035,FENCOG,2,Post,2022_Apr_19_1211,N-Back (New Version 2021),2021.1.4,120.056955
,,,,Conditions/Version_1/threeback(1)_v1.xlsx,New rule: Press 'space' when you see 3-back (i.e. the same letter as the one that appeared 3 letters ago.),,,,,,,,,,,0,3,3,3,,,,,,,,,,,,,,,,,,,,,,,,,,,,,,,,,,,,,,,,,,,,,,,,,,,,,,,,,,,,,,,,,,,,,,,,,,,,,,,,,P035,FENCOG,2,Post,2022_Apr_19_1211,N-Back (New Version 2021),2021.1.4,120.056955
,,,,Conditions/Version_1/oneback(2)_v1.xlsx,New rule: Press 'space' when you see 1-back (i.e. the same letter as the one that appeared 1 letter ago.),q,None,,,,,,,,,0,4,4,4,0,0,0,0,,,,,,,,,,,,,,,,,,,,,,,,,,,,,,,,,,,,,,,,,,,,,,,,,,,,,,,,,,,780.8867377,None,783.8629941,None,space,3.0083934,783.8629941,None,780.8867377,None,1.5122,788.4100285,None,None,1,788.4100285,None,,P035,FENCOG,2,Post,2022_Apr_19_1211,N-Back (New Version 2021),2021.1.4,120.056955
,,,,Conditions/Version_1/oneback(2)_v1.xlsx,New rule: Press 'space' when you see 1-back (i.e. the same letter as the one that appeared 1 letter ago.),Q,space,,,,,,,,,0,4,4,4,0,1,1,1,,,,,,,,,,,,,,,,,,,,,,,,,,,,,,,,,,,,,,,,,,,,,,,,,,,,,,,,,,,,,,,,,,,,,1.9958,792.4097907,None,space,1,792.4097907,None,0.4297863,P035,FENCOG,2,Post,2022_Apr_19_1211,N-Back (New Version 2021),2021.1.4,120.056955
,,,,Conditions/Version_1/oneback(2)_v1.xlsx,New rule: Press 'space' when you see 1-back (i.e. the same letter as the one that appeared 1 letter ago.),P,None,,,,,,,,,0,4,4,4,0,2,2,2,,,,,,,,,,,,,,,,,,,,,,,,,,,,,,,,,,,,,,,,,,,,,,,,,,,,,,,,,,,,,,,,,,,,,1.0968,795.5164052,None,None,1,795.5164052,None,,P035,FENCOG,2,Post,2022_Apr_19_1211,N-Back (New Version 2021),2021.1.4,120.056955
,,,,Conditions/Version_1/oneback(2)_v1.xlsx,New rule: Press 'space' when you see 1-back (i.e. the same letter as the one that appeared 1 letter ago.),o,None,,,,,,,,,0,4,4,4,0,3,3,3,,,,,,,,,,,,,,,,,,,,,,,,,,,,,,,,,,,,,,,,,,,,,,,,,,,,,,,,,,,,,,,,,,,,,1.2704,798.8007782,None,None,1,798.8007782,None,,P035,FENCOG,2,Post,2022_Apr_19_1211,N-Back (New Version 2021),2021.1.4,120.056955
,,,,Conditions/Version_1/oneback(2)_v1.xlsx,New rule: Press 'space' when you see 1-back (i.e. the same letter as the one that appeared 1 letter ago.),m,None,,,,,,,,,0,4,4,4,0,4,4,4,,,,,,,,,,,,,,,,,,,,,,,,,,,,,,,,,,,,,,,,,,,,,,,,,,,,,,,,,,,,,,,,,,,,,1.3572,802.1664024,None,None,1,802.1664024,None,,P035,FENCOG,2,Post,2022_Apr_19_1211,N-Back (New Version 2021),2021.1.4,120.056955
,,,,Conditions/Version_1/oneback(2)_v1.xlsx,New rule: Press 'space' when you see 1-back (i.e. the same letter as the one that appeared 1 letter ago.),Z,None,,,,,,,,,0,4,4,4,0,5,5,5,,,,,,,,,,,,,,,,,,,,,,,,,,,,,,,,,,,,,,,,,,,,,,,,,,,,,,,,,,,,,,,,,,,,,1.6176,805.8007952,None,None,1,805.8007952,None,,P035,FENCOG,2,Post,2022_Apr_19_1211,N-Back (New Version 2021),2021.1.4,120.056955
,,,,Conditions/Version_1/oneback(2)_v1.xlsx,New rule: Press 'space' when you see 1-back (i.e. the same letter as the one that appeared 1 letter ago.),c,None,,,,,,,,,0,4,4,4,0,6,6,6,,,,,,,,,,,,,,,,,,,,,,,,,,,,,,,,,,,,,,,,,,,,,,,,,,,,,,,,,,,,,,,,,,,,,1.5308,809.3395897,None,None,1,809.3395897,None,,P035,FENCOG,2,Post,2022_Apr_19_1211,N-Back (New Version 2021),2021.1.4,120.056955
,,,,Conditions/Version_1/oneback(2)_v1.xlsx,New rule: Press 'space' when you see 1-back (i.e. the same letter as the one that appeared 1 letter ago.),c,space,,,,,,,,,0,4,4,4,0,7,7,7,,,,,,,,,,,,,,,,,,,,,,,,,,,,,,,,,,,,,,,,,,,,,,,,,,,,,,,,,,,,,,,,,,,,,1.7168,813.0622669,None,space,1,813.0622669,None,0.3050498,P035,FENCOG,2,Post,2022_Apr_19_1211,N-Back (New Version 2021),2021.1.4,120.056955
,,,,Conditions/Version_1/oneback(2)_v1.xlsx,New rule: Press 'space' when you see 1-back (i.e. the same letter as the one that appeared 1 letter ago.),P,None,,,,,,,,,0,4,4,4,0,8,8,8,,,,,,,,,,,,,,,,,,,,,,,,,,,,,,,,,,,,,,,,,,,,,,,,,,,,,,,,,,,,,,,,,,,,,1.8284,816.9017654,None,None,1,816.9017654,None,,P035,FENCOG,2,Post,2022_Apr_19_1211,N-Back (New Version 2021),2021.1.4,120.056955
,,,,Conditions/Version_1/oneback(2)_v1.xlsx,New rule: Press 'space' when you see 1-back (i.e. the same letter as the one that appeared 1 letter ago.),p,space,,,,,,,,,0,4,4,4,0,9,9,9,,,,,,,,,,,,,,,,,,,,,,,,,,,,,,,,,,,,,,,,,,,,,,,,,,,,,,,,,,,,,,,,,,,,,1.9648,820.8672485,None,space,1,820.8672485,None,0.3323009,P035,FENCOG,2,Post,2022_Apr_19_1211,N-Back (New Version 2021),2021.1.4,120.056955
,,,,Conditions/Version_1/oneback(2)_v1.xlsx,New rule: Press 'space' when you see 1-back (i.e. the same letter as the one that appeared 1 letter ago.),,,,,,,,,,,0,4,4,4,,,,,,,,,,,,,,,,,,,,,,,,,,,,,,,,,,,,,,,,,,,,,,,,,,,,,,,,,,,,,,,,,,,,,,,,,,,,,,,,,P035,FENCOG,2,Post,2022_Apr_19_1211,N-Back (New Version 2021),2021.1.4,120.056955
,,,,Conditions/Version_1/zeroback(2)_v1.xlsx,New rule: Press 'space' when you see the letter 'x' or 'X'.,p,None,,,,,,,,,0,5,5,5,0,0,0,0,,,,,,,,,,,,,,,,,,,,,,,,,,,,,,,,,,,,,,,,,,,,,,,,,,,,,,,,,,,822.8883547,None,825.8761425,None,space,0.3233405,825.8761425,None,822.8883547,None,1.6858,827.9152757,None,None,1,827.9152757,None,,P035,FENCOG,2,Post,2022_Apr_19_1211,N-Back (New Version 2021),2021.1.4,120.056955
,,,,Conditions/Version_1/zeroback(2)_v1.xlsx,New rule: Press 'space' when you see the letter 'x' or 'X'.,L,None,,,,,,,,,0,5,5,5,0,1,1,1,,,,,,,,,,,,,,,,,,,,,,,,,,,,,,,,,,,,,,,,,,,,,,,,,,,,,,,,,,,,,,,,,,,,,1.0348,830.9558268,None,None,1,830.9558268,None,,P035,FENCOG,2,Post,2022_Apr_19_1211,N-Back (New Version 2021),2021.1.4,120.056955
,,,,Conditions/Version_1/zeroback(2)_v1.xlsx,New rule: Press 'space' when you see the letter 'x' or 'X'.,G,None,,,,,,,,,0,5,5,5,0,2,2,2,,,,,,,,,,,,,,,,,,,,,,,,,,,,,,,,,,,,,,,,,,,,,,,,,,,,,,,,,,,,,,,,,,,,,1.94,834.8988296,None,None,1,834.8988296,None,,P035,FENCOG,2,Post,2022_Apr_19_1211,N-Back (New Version 2021),2021.1.4,120.056955
,,,,Conditions/Version_1/zeroback(2)_v1.xlsx,New rule: Press 'space' when you see the letter 'x' or 'X'.,y,None,,,,,,,,,0,5,5,5,0,3,3,3,,,,,,,,,,,,,,,,,,,,,,,,,,,,,,,,,,,,,,,,,,,,,,,,,,,,,,,,,,,,,,,,,,,,,1.2766,838.1871408,None,None,1,838.1871408,None,,P035,FENCOG,2,Post,2022_Apr_19_1211,N-Back (New Version 2021),2021.1.4,120.056955
,,,,Conditions/Version_1/zeroback(2)_v1.xlsx,New rule: Press 'space' when you see the letter 'x' or 'X'.,Y,None,,,,,,,,,0,5,5,5,0,4,4,4,,,,,,,,,,,,,,,,,,,,,,,,,,,,,,,,,,,,,,,,,,,,,,,,,,,,,,,,,,,,,,,,,,,,,1.6548,841.846212,None,None,1,841.846212,None,,P035,FENCOG,2,Post,2022_Apr_19_1211,N-Back (New Version 2021),2021.1.4,120.056955
,,,,Conditions/Version_1/zeroback(2)_v1.xlsx,New rule: Press 'space' when you see the letter 'x' or 'X'.,W,None,,,,,,,,,0,5,5,5,0,5,5,5,,,,,,,,,,,,,,,,,,,,,,,,,,,,,,,,,,,,,,,,,,,,,,,,,,,,,,,,,,,,,,,,,,,,,1.134,844.9941952,None,None,1,844.9941952,None,,P035,FENCOG,2,Post,2022_Apr_19_1211,N-Back (New Version 2021),2021.1.4,120.056955
,,,,Conditions/Version_1/zeroback(2)_v1.xlsx,New rule: Press 'space' when you see the letter 'x' or 'X'.,x,space,,,,,,,,,0,5,5,5,0,6,6,6,,,,,,,,,,,,,,,,,,,,,,,,,,,,,,,,,,,,,,,,,,,,,,,,,,,,,,,,,,,,,,,,,,,,,1.4812,848.4841148,None,space,1,848.4841148,None,0.331292,P035,FENCOG,2,Post,2022_Apr_19_1211,N-Back (New Version 2021),2021.1.4,120.056955
,,,,Conditions/Version_1/zeroback(2)_v1.xlsx,New rule: Press 'space' when you see the letter 'x' or 'X'.,X,space,,,,,,,,,0,5,5,5,0,7,7,7,,,,,,,,,,,,,,,,,,,,,,,,,,,,,,,,,,,,,,,,,,,,,,,,,,,,,,,,,,,,,,,,,,,,,1.6796,852.1671603,None,space,1,852.1671603,None,0.3281879,P035,FENCOG,2,Post,2022_Apr_19_1211,N-Back (New Version 2021),2021.1.4,120.056955
,,,,Conditions/Version_1/zeroback(2)_v1.xlsx,New rule: Press 'space' when you see the letter 'x' or 'X'.,p,None,,,,,,,,,0,5,5,5,0,8,8,8,,,,,,,,,,,,,,,,,,,,,,,,,,,,,,,,,,,,,,,,,,,,,,,,,,,,,,,,,,,,,,,,,,,,,1.2084,855.3829384,None,None,1,855.3829384,None,,P035,FENCOG,2,Post,2022_Apr_19_1211,N-Back (New Version 2021),2021.1.4,120.056955
,,,,Conditions/Version_1/zeroback(2)_v1.xlsx,New rule: Press 'space' when you see the letter 'x' or 'X'.,h,None,,,,,,,,,0,5,5,5,0,9,9,9,,,,,,,,,,,,,,,,,,,,,,,,,,,,,,,,,,,,,,,,,,,,,,,,,,,,,,,,,,,,,,,,,,,,,1.227,858.6238985,None,None,1,858.6238985,None,,P035,FENCOG,2,Post,2022_Apr_19_1211,N-Back (New Version 2021),2021.1.4,120.056955
,,,,Conditions/Version_1/zeroback(2)_v1.xlsx,New rule: Press 'space' when you see the letter 'x' or 'X'.,,,,,,,,,,,0,5,5,5,,,,,,,,,,,,,,,,,,,,,,,,,,,,,,,,,,,,,,,,,,,,,,,,,,,,,,,,,,,,,,,,,,,,,,,,,,,,,,,,,P035,FENCOG,2,Post,2022_Apr_19_1211,N-Back (New Version 2021),2021.1.4,120.056955
,,,,Conditions/Version_1/threeback(2)_v1.xlsx,New rule: Press 'space' when you see 3-back (i.e. the same letter as the one that appeared 3 letters ago.),q,None,,,,,,,,,0,6,6,6,0,0,0,0,,,,,,,,,,,,,,,,,,,,,,,,,,,,,,,,,,,,,,,,,,,,,,,,,,,,,,,,,,,860.6555312,None,863.6395431,None,space,8.215847,863.6395431,None,860.6555312,None,1.6858,873.579921,None,None,1,873.579921,None,,P035,FENCOG,2,Post,2022_Apr_19_1211,N-Back (New Version 2021),2021.1.4,120.056955
,,,,Conditions/Version_1/threeback(2)_v1.xlsx,New rule: Press 'space' when you see 3-back (i.e. the same letter as the one that appeared 3 letters ago.),Y,None,,,,,,,,,0,6,6,6,0,1,1,1,,,,,,,,,,,,,,,,,,,,,,,,,,,,,,,,,,,,,,,,,,,,,,,,,,,,,,,,,,,,,,,,,,,,,1.9214,877.5087607,None,None,1,877.5087607,None,,P035,FENCOG,2,Post,2022_Apr_19_1211,N-Back (New Version 2021),2021.1.4,120.056955
,,,,Conditions/Version_1/threeback(2)_v1.xlsx,New rule: Press 'space' when you see 3-back (i.e. the same letter as the one that appeared 3 letters ago.),p,None,,,,,,,,,0,6,6,6,0,2,2,2,,,,,,,,,,,,,,,,,,,,,,,,,,,,,,,,,,,,,,,,,,,,,,,,,,,,,,,,,,,,,,,,,,,,,1.3262,880.8424056,None,None,1,880.8424056,None,,P035,FENCOG,2,Post,2022_Apr_19_1211,N-Back (New Version 2021),2021.1.4,120.056955
,,,,Conditions/Version_1/threeback(2)_v1.xlsx,New rule: Press 'space' when you see 3-back (i.e. the same letter as the one that appeared 3 letters ago.),p,None,,,,,,,,,0,6,6,6,0,3,3,3,,,,,,,,,,,,,,,,,,,,,,,,,,,,,,,,,,,,,,,,,,,,,,,,,,,,,,,,,,,,,,,,,,,,,1.6424,884.4982014,None,None,1,884.4982014,None,,P035,FENCOG,2,Post,2022_Apr_19_1211,N-Back (New Version 2021),2021.1.4,120.056955
,,,,Conditions/Version_1/threeback(2)_v1.xlsx,New rule: Press 'space' when you see 3-back (i.e. the same letter as the one that appeared 3 letters ago.),y,space,,,,,,,,,0,6,6,6,0,4,4,4,,,,,,,,,,,,,,,,,,,,,,,,,,,,,,,,,,,,,,,,,,,,,,,,,,,,,,,,,,,,,,,,,,,,,1.9586,888.4576461,None,space,1,888.4576461,None,0.3097195,P035,FENCOG,2,Post,2022_Apr_19_1211,N-Back (New Version 2021),2021.1.4,120.056955
,,,,Conditions/Version_1/threeback(2)_v1.xlsx,New rule: Press 'space' when you see 3-back (i.e. the same letter as the one that appeared 3 letters ago.),u,None,,,,,,,,,0,6,6,6,0,5,5,5,,,,,,,,,,,,,,,,,,,,,,,,,,,,,,,,,,,,,,,,,,,,,,,,,,,,,,,,,,,,,,,,,,,,,1.1526,891.6213236,None,None,1,891.6213236,None,,P035,FENCOG,2,Post,2022_Apr_19_1211,N-Back (New Version 2021),2021.1.4,120.056955
,,,,Conditions/Version_1/threeback(2)_v1.xlsx,New rule: Press 'space' when you see 3-back (i.e. the same letter as the one that appeared 3 letters ago.),P,space,,,,,,,,,0,6,6,6,0,6,6,6,,,,,,,,,,,,,,,,,,,,,,,,,,,,,,,,,,,,,,,,,,,,,,,,,,,,,,,,,,,,,,,,,,,,,1.723,895.3453459,None,space,1,895.3453459,None,0.3503391,P035,FENCOG,2,Post,2022_Apr_19_1211,N-Back (New Version 2021),2021.1.4,120.056955
,,,,Conditions/Version_1/threeback(2)_v1.xlsx,New rule: Press 'space' when you see 3-back (i.e. the same letter as the one that appeared 3 letters ago.),a,None,,,,,,,,,0,6,6,6,0,7,7,7,,,,,,,,,,,,,,,,,,,,,,,,,,,,,,,,,,,,,,,,,,,,,,,,,,,,,,,,,,,,,,,,,,,,,1.537,898.8940048,None,None,1,898.8940048,None,,P035,FENCOG,2,Post,2022_Apr_19_1211,N-Back (New Version 2021),2021.1.4,120.056955
,,,,Conditions/Version_1/threeback(2)_v1.xlsx,New rule: Press 'space' when you see 3-back (i.e. the same letter as the one that appeared 3 letters ago.),U,space,,,,,,,,,0,6,6,6,0,8,8,8,,,,,,,,,,,,,,,,,,,,,,,,,,,,,,,,,,,,,,,,,,,,,,,,,,,,,,,,,,,,,,,,,,,,,1.5494,902.4440005,None,space,1,902.4440005,None,0.339515,P035,FENCOG,2,Post,2022_Apr_19_1211,N-Back (New Version 2021),2021.1.4,120.056955
,,,,Conditions/Version_1/threeback(2)_v1.xlsx,New rule: Press 'space' when you see 3-back (i.e. the same letter as the one that appeared 3 letters ago.),q,None,,,,,,,,,0,6,6,6,0,9,9,9,,,,,,,,,,,,,,,,,,,,,,,,,,,,,,,,,,,,,,,,,,,,,,,,,,,,,,,,,,,,,,,,,,,,,1.0968,905.5504667,None,None,1,905.5504667,None,,P035,FENCOG,2,Post,2022_Apr_19_1211,N-Back (New Version 2021),2021.1.4,120.056955
,,,,Conditions/Version_1/threeback(2)_v1.xlsx,New rule: Press 'space' when you see 3-back (i.e. the same letter as the one that appeared 3 letters ago.),,,,,,,,,,,0,6,6,6,,,,,,,,,,,,,,,,,,,,,,,,,,,,,,,,,,,,,,,,,,,,,,,,,,,,,,,,,,,,,,,,,,,,,,,,,,,,,,,,,P035,FENCOG,2,Post,2022_Apr_19_1211,N-Back (New Version 2021),2021.1.4,120.056955
,,,,Conditions/Version_1/twoback(2)_v1.xlsx,New rule: Press 'space' when you see 2-back (i.e. the same letter as the one that appeared 2 letters ago.),q,None,,,,,,,,,0,7,7,7,0,0,0,0,,,,,,,,,,,,,,,,,,,,,,,,,,,,,,,,,,,,,,,,,,,,,,,,,,,,,,,,,,,907.5741921,None,910.5566742,None,space,3.1386476,910.5566742,None,907.5741921,None,1.475,915.2060137,None,None,1,915.2060137,None,,P035,FENCOG,2,Post,2022_Apr_19_1211,N-Back (New Version 2021),2021.1.4,120.056955
,,,,Conditions/Version_1/twoback(2)_v1.xlsx,New rule: Press 'space' when you see 2-back (i.e. the same letter as the one that appeared 2 letters ago.),r,None,,,,,,,,,0,7,7,7,0,1,1,1,,,,,,,,,,,,,,,,,,,,,,,,,,,,,,,,,,,,,,,,,,,,,,,,,,,,,,,,,,,,,,,,,,,,,1.9214,919.1325084,None,None,1,919.1325084,None,,P035,FENCOG,2,Post,2022_Apr_19_1211,N-Back (New Version 2021),2021.1.4,120.056955
,,,,Conditions/Version_1/twoback(2)_v1.xlsx,New rule: Press 'space' when you see 2-back (i.e. the same letter as the one that appeared 2 letters ago.),q,space,,,,,,,,,0,7,7,7,0,2,2,2,,,,,,,,,,,,,,,,,,,,,,,,,,,,,,,,,,,,,,,,,,,,,,,,,,,,,,,,,,,,,,,,,,,,,1.289,922.4288926,None,space,1,922.4288926,None,0.3386145,P035,FENCOG,2,Post,2022_Apr_19_1211,N-Back (New Version 2021),2021.1.4,120.056955
,,,,Conditions/Version_1/twoback(2)_v1.xlsx,New rule: Press 'space' when you see 2-back (i.e. the same letter as the one that appeared 2 letters ago.),P,None,,,,,,,,,0,7,7,7,0,3,3,3,,,,,,,,,,,,,,,,,,,,,,,,,,,,,,,,,,,,,,,,,,,,,,,,,,,,,,,,,,,,,,,,,,,,,1.4378,925.8713188,None,None,1,925.8713188,None,,P035,FENCOG,2,Post,2022_Apr_19_1211,N-Back (New Version 2021),2021.1.4,120.056955
,,,,Conditions/Version_1/twoback(2)_v1.xlsx,New rule: Press 'space' when you see 2-back (i.e. the same letter as the one that appeared 2 letters ago.),p,None,,,,,,,,,0,7,7,7,0,4,4,4,,,,,,,,,,,,,,,,,,,,,,,,,,,,,,,,,,,,,,,,,,,,,,,,,,,,,,,,,,,,,,,,,,,,,1.4254,929.3039606,None,None,1,929.3039606,None,,P035,FENCOG,2,Post,2022_Apr_19_1211,N-Back (New Version 2021),2021.1.4,120.056955
,,,,Conditions/Version_1/twoback(2)_v1.xlsx,New rule: Press 'space' when you see 2-back (i.e. the same letter as the one that appeared 2 letters ago.),H,None,,,,,,,,,0,7,7,7,0,5,5,5,,,,,,,,,,,,,,,,,,,,,,,,,,,,,,,,,,,,,,,,,,,,,,,,,,,,,,,,,,,,,,,,,,,,,1.9772,933.2922675,None,None,1,933.2922675,None,,P035,FENCOG,2,Post,2022_Apr_19_1211,N-Back (New Version 2021),2021.1.4,120.056955
,,,,Conditions/Version_1/twoback(2)_v1.xlsx,New rule: Press 'space' when you see 2-back (i.e. the same letter as the one that appeared 2 letters ago.),g,None,,,,,,,,,0,7,7,7,0,6,6,6,,,,,,,,,,,,,,,,,,,,,,,,,,,,,,,,,,,,,,,,,,,,,,,,,,,,,,,,,,,,,,,,,,,,,1.3758,936.6747257,None,None,1,936.6747257,None,,P035,FENCOG,2,Post,2022_Apr_19_1211,N-Back (New Version 2021),2021.1.4,120.056955
,,,,Conditions/Version_1/twoback(2)_v1.xlsx,New rule: Press 'space' when you see 2-back (i.e. the same letter as the one that appeared 2 letters ago.),j,None,,,,,,,,,0,7,7,7,0,7,7,7,,,,,,,,,,,,,,,,,,,,,,,,,,,,,,,,,,,,,,,,,,,,,,,,,,,,,,,,,,,,,,,,,,,,,1.4192,940.098583,None,None,1,940.098583,None,,P035,FENCOG,2,Post,2022_Apr_19_1211,N-Back (New Version 2021),2021.1.4,120.056955
,,,,Conditions/Version_1/twoback(2)_v1.xlsx,New rule: Press 'space' when you see 2-back (i.e. the same letter as the one that appeared 2 letters ago.),g,space,,,,,,,,,0,7,7,7,0,8,8,8,,,,,,,,,,,,,,,,,,,,,,,,,,,,,,,,,,,,,,,,,,,,,,,,,,,,,,,,,,,,,,,,,,,,,1.7292,943.8308483,None,space,1,943.8308483,None,0.3204538,P035,FENCOG,2,Post,2022_Apr_19_1211,N-Back (New Version 2021),2021.1.4,120.056955
,,,,Conditions/Version_1/twoback(2)_v1.xlsx,New rule: Press 'space' when you see 2-back (i.e. the same letter as the one that appeared 2 letters ago.),G,None,,,,,,,,,0,7,7,7,0,9,9,9,,,,,,,,,,,,,,,,,,,,,,,,,,,,,,,,,,,,,,,,,,,,,,,,,,,,,,,,,,,,,,,,,,,,,1.3448,947.1819959,None,None,1,947.1819959,None,,P035,FENCOG,2,Post,2022_Apr_19_1211,N-Back (New Version 2021),2021.1.4,120.056955
,,,,Conditions/Version_1/twoback(2)_v1.xlsx,New rule: Press 'space' when you see 2-back (i.e. the same letter as the one that appeared 2 letters ago.),,,,,,,,,,,0,7,7,7,,,,,,,,,,,,,,,,,,,,,,,,,,,,,,,,,,,,,,,,,,,,,,,,,,,,,,,,,,,,,,,,,,,,,,,,,,,,,,,,,P035,FENCOG,2,Post,2022_Apr_19_1211,N-Back (New Version 2021),2021.1.4,120.056955
,,,,Conditions/Version_1/threeback(3)_v1.xlsx,New rule: Press 'space' when you see 3-back (i.e. the same letter as the one that appeared 3 letters ago.),w,None,,,,,,,,,0,8,8,8,0,0,0,0,,,,,,,,,,,,,,,,,,,,,,,,,,,,,,,,,,,,,,,,,,,,,,,,,,,,,,,,,,,949.2110893,None,952.1982593,None,space,2.3292139,952.1982593,None,949.2110893,None,1.8346,956.3856663,None,None,1,956.3856663,None,,P035,FENCOG,2,Post,2022_Apr_19_1211,N-Back (New Version 2021),2021.1.4,120.056955
,,,,Conditions/Version_1/threeback(3)_v1.xlsx,New rule: Press 'space' when you see 3-back (i.e. the same letter as the one that appeared 3 letters ago.),p,None,,,,,,,,,0,8,8,8,0,1,1,1,,,,,,,,,,,,,,,,,,,,,,,,,,,,,,,,,,,,,,,,,,,,,,,,,,,,,,,,,,,,,,,,,,,,,1.4688,959.8604879,None,None,1,959.8604879,None,,P035,FENCOG,2,Post,2022_Apr_19_1211,N-Back (New Version 2021),2021.1.4,120.056955
,,,,Conditions/Version_1/threeback(3)_v1.xlsx,New rule: Press 'space' when you see 3-back (i.e. the same letter as the one that appeared 3 letters ago.),P,None,,,,,,,,,0,8,8,8,0,2,2,2,,,,,,,,,,,,,,,,,,,,,,,,,,,,,,,,,,,,,,,,,,,,,,,,,,,,,,,,,,,,,,,,,,,,,1.8904,963.7595441,None,None,1,963.7595441,None,,P035,FENCOG,2,Post,2022_Apr_19_1211,N-Back (New Version 2021),2021.1.4,120.056955
,,,,Conditions/Version_1/threeback(3)_v1.xlsx,New rule: Press 'space' when you see 3-back (i.e. the same letter as the one that appeared 3 letters ago.),i,None,,,,,,,,,0,8,8,8,0,3,3,3,,,,,,,,,,,,,,,,,,,,,,,,,,,,,,,,,,,,,,,,,,,,,,,,,,,,,,,,,,,,,,,,,,,,,1.0782,966.8505032,None,None,1,966.8505032,None,,P035,FENCOG,2,Post,2022_Apr_19_1211,N-Back (New Version 2021),2021.1.4,120.056955
,,,,Conditions/Version_1/threeback(3)_v1.xlsx,New rule: Press 'space' when you see 3-back (i.e. the same letter as the one that appeared 3 letters ago.),f,None,,,,,,,,,0,8,8,8,0,4,4,4,,,,,,,,,,,,,,,,,,,,,,,,,,,,,,,,,,,,,,,,,,,,,,,,,,,,,,,,,,,,,,,,,,,,,1.0472,969.9065045,None,None,1,969.9065045,None,,P035,FENCOG,2,Post,2022_Apr_19_1211,N-Back (New Version 2021),2021.1.4,120.056955
,,,,Conditions/Version_1/threeback(3)_v1.xlsx,New rule: Press 'space' when you see 3-back (i.e. the same letter as the one that appeared 3 letters ago.),o,None,,,,,,,,,0,8,8,8,0,5,5,5,,,,,,,,,,,,,,,,,,,,,,,,,,,,,,,,,,,,,,,,,,,,,,,,,,,,,,,,,,,,,,,,,,,,,1.1464,973.0557378,None,None,1,973.0557378,None,,P035,FENCOG,2,Post,2022_Apr_19_1211,N-Back (New Version 2021),2021.1.4,120.056955
,,,,Conditions/Version_1/threeback(3)_v1.xlsx,New rule: Press 'space' when you see 3-back (i.e. the same letter as the one that appeared 3 letters ago.),w,None,,,,,,,,,0,8,8,8,0,6,6,6,,,,,,,,,,,,,,,,,,,,,,,,,,,,,,,,,,,,,,,,,,,,,,,,,,,,,,,,,,,,,,,,,,,,,1.196,976.2559694,None,None,1,976.2559694,None,,P035,FENCOG,2,Post,2022_Apr_19_1211,N-Back (New Version 2021),2021.1.4,120.056955
,,,,Conditions/Version_1/threeback(3)_v1.xlsx,New rule: Press 'space' when you see 3-back (i.e. the same letter as the one that appeared 3 letters ago.),F,space,,,,,,,,,0,8,8,8,0,7,7,7,,,,,,,,,,,,,,,,,,,,,,,,,,,,,,,,,,,,,,,,,,,,,,,,,,,,,,,,,,,,,,,,,,,,,1.8656,980.1284868,None,space,1,980.1284868,None,0.3429958,P035,FENCOG,2,Post,2022_Apr_19_1211,N-Back (New Version 2021),2021.1.4,120.056955
,,,,Conditions/Version_1/threeback(3)_v1.xlsx,New rule: Press 'space' when you see 3-back (i.e. the same letter as the one that appeared 3 letters ago.),p,None,,,,,,,,,0,8,8,8,0,8,8,8,,,,,,,,,,,,,,,,,,,,,,,,,,,,,,,,,,,,,,,,,,,,,,,,,,,,,,,,,,,,,,,,,,,,,1.0224,983.152621,None,None,1,983.152621,None,,P035,FENCOG,2,Post,2022_Apr_19_1211,N-Back (New Version 2021),2021.1.4,120.056955
,,,,Conditions/Version_1/threeback(3)_v1.xlsx,New rule: Press 'space' when you see 3-back (i.e. the same letter as the one that appeared 3 letters ago.),W,space,,,,,,,,,0,8,8,8,0,9,9,9,,,,,,,,,,,,,,,,,,,,,,,,,,,,,,,,,,,,,,,,,,,,,,,,,,,,,,,,,,,,,,,,,,,,,1.3944,986.5539282,None,space,1,986.5539282,None,0.293557,P035,FENCOG,2,Post,2022_Apr_19_1211,N-Back (New Version 2021),2021.1.4,120.056955
,,,,Conditions/Version_1/threeback(3)_v1.xlsx,New rule: Press 'space' when you see 3-back (i.e. the same letter as the one that appeared 3 letters ago.),,,,,,,,,,,0,8,8,8,,,,,,,,,,,,,,,,,,,,,,,,,,,,,,,,,,,,,,,,,,,,,,,,,,,,,,,,,,,,,,,,,,,,,,,,,,,,,,,,,P035,FENCOG,2,Post,2022_Apr_19_1211,N-Back (New Version 2021),2021.1.4,120.056955
,,,,Conditions/Version_1/zeroback(3)_v1.xlsx,New rule: Press 'space' when you see the letter 'x' or 'X'.,X,space,,,,,,,,,0,9,9,9,0,0,0,0,,,,,,,,,,,,,,,,,,,,,,,,,,,,,,,,,,,,,,,,,,,,,,,,,,,,,,,,,,,988.5793804,None,991.5682152,None,space,0.2232582,991.5682152,None,988.5793804,None,1.661,993.4745535,None,space,1,993.4745535,None,0.4127281,P035,FENCOG,2,Post,2022_Apr_19_1211,N-Back (New Version 2021),2021.1.4,120.056955
,,,,Conditions/Version_1/zeroback(3)_v1.xlsx,New rule: Press 'space' when you see the letter 'x' or 'X'.,B,None,,,,,,,,,0,9,9,9,0,1,1,1,,,,,,,,,,,,,,,,,,,,,,,,,,,,,,,,,,,,,,,,,,,,,,,,,,,,,,,,,,,,,,,,,,,,,1.6424,997.1174171,None,None,1,997.1174171,None,,P035,FENCOG,2,Post,2022_Apr_19_1211,N-Back (New Version 2021),2021.1.4,120.056955
,,,,Conditions/Version_1/zeroback(3)_v1.xlsx,New rule: Press 'space' when you see the letter 'x' or 'X'.,m,None,,,,,,,,,0,9,9,9,0,2,2,2,,,,,,,,,,,,,,,,,,,,,,,,,,,,,,,,,,,,,,,,,,,,,,,,,,,,,,,,,,,,,,,,,,,,,1.8966,1001.022296,None,None,1,1001.022296,None,,P035,FENCOG,2,Post,2022_Apr_19_1211,N-Back (New Version 2021),2021.1.4,120.056955
,,,,Conditions/Version_1/zeroback(3)_v1.xlsx,New rule: Press 'space' when you see the letter 'x' or 'X'.,m,None,,,,,,,,,0,9,9,9,0,3,3,3,,,,,,,,,,,,,,,,,,,,,,,,,,,,,,,,,,,,,,,,,,,,,,,,,,,,,,,,,,,,,,,,,,,,,1.3634,1004.388186,None,None,1,1004.388186,None,,P035,FENCOG,2,Post,2022_Apr_19_1211,N-Back (New Version 2021),2021.1.4,120.056955
,,,,Conditions/Version_1/zeroback(3)_v1.xlsx,New rule: Press 'space' when you see the letter 'x' or 'X'.,o,None,,,,,,,,,0,9,9,9,0,4,4,4,,,,,,,,,,,,,,,,,,,,,,,,,,,,,,,,,,,,,,,,,,,,,,,,,,,,,,,,,,,,,,,,,,,,,1.6672,1008.055643,None,None,1,1008.055643,None,,P035,FENCOG,2,Post,2022_Apr_19_1211,N-Back (New Version 2021),2021.1.4,120.056955
,,,,Conditions/Version_1/zeroback(3)_v1.xlsx,New rule: Press 'space' when you see the letter 'x' or 'X'.,p,None,,,,,,,,,0,9,9,9,0,5,5,5,,,,,,,,,,,,,,,,,,,,,,,,,,,,,,,,,,,,,,,,,,,,,,,,,,,,,,,,,,,,,,,,,,,,,1.2518,1011.320406,None,None,1,1011.320406,None,,P035,FENCOG,2,Post,2022_Apr_19_1211,N-Back (New Version 2021),2021.1.4,120.056955
,,,,Conditions/Version_1/zeroback(3)_v1.xlsx,New rule: Press 'space' when you see the letter 'x' or 'X'.,G,None,,,,,,,,,0,9,9,9,0,6,6,6,,,,,,,,,,,,,,,,,,,,,,,,,,,,,,,,,,,,,,,,,,,,,,,,,,,,,,,,,,,,,,,,,,,,,1.9028,1015.226434,None,None,1,1015.226434,None,,P035,FENCOG,2,Post,2022_Apr_19_1211,N-Back (New Version 2021),2021.1.4,120.056955
,,,,Conditions/Version_1/zeroback(3)_v1.xlsx,New rule: Press 'space' when you see the letter 'x' or 'X'.,X,space,,,,,,,,,0,9,9,9,0,7,7,7,,,,,,,,,,,,,,,,,,,,,,,,,,,,,,,,,,,,,,,,,,,,,,,,,,,,,,,,,,,,,,,,,,,,,1.847,1019.076387,None,space,1,1019.076387,None,0.4589663,P035,FENCOG,2,Post,2022_Apr_19_1211,N-Back (New Version 2021),2021.1.4,120.056955
,,,,Conditions/Version_1/zeroback(3)_v1.xlsx,New rule: Press 'space' when you see the letter 'x' or 'X'.,p,None,,,,,,,,,0,9,9,9,0,8,8,8,,,,,,,,,,,,,,,,,,,,,,,,,,,,,,,,,,,,,,,,,,,,,,,,,,,,,,,,,,,,,,,,,,,,,1.506,1022.591943,None,None,1,1022.591943,None,,P035,FENCOG,2,Post,2022_Apr_19_1211,N-Back (New Version 2021),2021.1.4,120.056955
,,,,Conditions/Version_1/zeroback(3)_v1.xlsx,New rule: Press 'space' when you see the letter 'x' or 'X'.,x,space,,,,,,,,,0,9,9,9,0,9,9,9,,,,,,,,,,,,,,,,,,,,,,,,,,,,,,,,,,,,,,,,,,,,,,,,,,,,,,,,,,,,,,,,,,,,,1.6734,1026.273218,None,space,1,1026.273218,None,0.3979829,P035,FENCOG,2,Post,2022_Apr_19_1211,N-Back (New Version 2021),2021.1.4,120.056955
,,,,Conditions/Version_1/zeroback(3)_v1.xlsx,New rule: Press 'space' when you see the letter 'x' or 'X'.,,,,,,,,,,,0,9,9,9,,,,,,,,,,,,,,,,,,,,,,,,,,,,,,,,,,,,,,,,,,,,,,,,,,,,,,,,,,,,,,,,,,,,,,,,,,,,,,,,,P035,FENCOG,2,Post,2022_Apr_19_1211,N-Back (New Version 2021),2021.1.4,120.056955
,,,,Conditions/Version_1/twoback(3)_v1.xlsx,New rule: Press 'space' when you see 2-back (i.e. the same letter as the one that appeared 2 letters ago.),e,None,,,,,,,,,0,10,10,10,0,0,0,0,,,,,,,,,,,,,,,,,,,,,,,,,,,,,,,,,,,,,,,,,,,,,,,,,,,,,,,,,,,1028.295644,None,1031.295744,None,space,38.3356819,1031.295744,None,1028.295644,None,1.041,1070.703865,None,None,1,1070.703865,None,,P035,FENCOG,2,Post,2022_Apr_19_1211,N-Back (New Version 2021),2021.1.4,120.056955
,,,,Conditions/Version_1/twoback(3)_v1.xlsx,New rule: Press 'space' when you see 2-back (i.e. the same letter as the one that appeared 2 letters ago.),o,None,,,,,,,,,0,10,10,10,0,1,1,1,,,,,,,,,,,,,,,,,,,,,,,,,,,,,,,,,,,,,,,,,,,,,,,,,,,,,,,,,,,,,,,,,,,,,1.2146,1073.925821,None,None,1,1073.925821,None,,P035,FENCOG,2,Post,2022_Apr_19_1211,N-Back (New Version 2021),2021.1.4,120.056955
,,,,Conditions/Version_1/twoback(3)_v1.xlsx,New rule: Press 'space' when you see 2-back (i.e. the same letter as the one that appeared 2 letters ago.),P,None,,,,,,,,,0,10,10,10,0,2,2,2,,,,,,,,,,,,,,,,,,,,,,,,,,,,,,,,,,,,,,,,,,,,,,,,,,,,,,,,,,,,,,,,,,,,,1.1154,1077.04986,None,None,1,1077.04986,None,,P035,FENCOG,2,Post,2022_Apr_19_1211,N-Back (New Version 2021),2021.1.4,120.056955
,,,,Conditions/Version_1/twoback(3)_v1.xlsx,New rule: Press 'space' when you see 2-back (i.e. the same letter as the one that appeared 2 letters ago.),z,None,,,,,,,,,0,10,10,10,0,3,3,3,,,,,,,,,,,,,,,,,,,,,,,,,,,,,,,,,,,,,,,,,,,,,,,,,,,,,,,,,,,,,,,,,,,,,1.01,1080.069292,None,None,1,1080.069292,None,,P035,FENCOG,2,Post,2022_Apr_19_1211,N-Back (New Version 2021),2021.1.4,120.056955
,,,,Conditions/Version_1/twoback(3)_v1.xlsx,New rule: Press 'space' when you see 2-back (i.e. the same letter as the one that appeared 2 letters ago.),X,None,,,,,,,,,0,10,10,10,0,4,4,4,,,,,,,,,,,,,,,,,,,,,,,,,,,,,,,,,,,,,,,,,,,,,,,,,,,,,,,,,,,,,,,,,,,,,1.692,1083.765104,None,None,1,1083.765104,None,,P035,FENCOG,2,Post,2022_Apr_19_1211,N-Back (New Version 2021),2021.1.4,120.056955
,,,,Conditions/Version_1/twoback(3)_v1.xlsx,New rule: Press 'space' when you see 2-back (i.e. the same letter as the one that appeared 2 letters ago.),z,space,,,,,,,,,0,10,10,10,0,5,5,5,,,,,,,,,,,,,,,,,,,,,,,,,,,,,,,,,,,,,,,,,,,,,,,,,,,,,,,,,,,,,,,,,,,,,1.4688,1087.238809,None,space,1,1087.238809,None,0.3365022,P035,FENCOG,2,Post,2022_Apr_19_1211,N-Back (New Version 2021),2021.1.4,120.056955
,,,,Conditions/Version_1/twoback(3)_v1.xlsx,New rule: Press 'space' when you see 2-back (i.e. the same letter as the one that appeared 2 letters ago.),x,space,,,,,,,,,0,10,10,10,0,6,6,6,,,,,,,,,,,,,,,,,,,,,,,,,,,,,,,,,,,,,,,,,,,,,,,,,,,,,,,,,,,,,,,,,,,,,1.0906,1090.329268,None,space,1,1090.329268,None,0.3339746,P035,FENCOG,2,Post,2022_Apr_19_1211,N-Back (New Version 2021),2021.1.4,120.056955
,,,,Conditions/Version_1/twoback(3)_v1.xlsx,New rule: Press 'space' when you see 2-back (i.e. the same letter as the one that appeared 2 letters ago.),c,None,,,,,,,,,0,10,10,10,0,7,7,7,,,,,,,,,,,,,,,,,,,,,,,,,,,,,,,,,,,,,,,,,,,,,,,,,,,,,,,,,,,,,,,,,,,,,1.9338,1094.265787,None,None,1,1094.265787,None,,P035,FENCOG,2,Post,2022_Apr_19_1211,N-Back (New Version 2021),2021.1.4,120.056955
,,,,Conditions/Version_1/twoback(3)_v1.xlsx,New rule: Press 'space' when you see 2-back (i.e. the same letter as the one that appeared 2 letters ago.),i,None,,,,,,,,,0,10,10,10,0,8,8,8,,,,,,,,,,,,,,,,,,,,,,,,,,,,,,,,,,,,,,,,,,,,,,,,,,,,,,,,,,,,,,,,,,,,,1.0968,1097.368912,None,None,1,1097.368912,None,,P035,FENCOG,2,Post,2022_Apr_19_1211,N-Back (New Version 2021),2021.1.4,120.056955
,,,,Conditions/Version_1/twoback(3)_v1.xlsx,New rule: Press 'space' when you see 2-back (i.e. the same letter as the one that appeared 2 letters ago.),C,space,,,,,,,,,0,10,10,10,0,9,9,9,,,,,,,,,,,,,,,,,,,,,,,,,,,,,,,,,,,,,,,,,,,,,,,,,,,,,,,,,,,,,,,,,,,,,1.3014,1100.678035,None,space,1,1100.678035,None,0.2732838,P035,FENCOG,2,Post,2022_Apr_19_1211,N-Back (New Version 2021),2021.1.4,120.056955
,,,,Conditions/Version_1/twoback(3)_v1.xlsx,New rule: Press 'space' when you see 2-back (i.e. the same letter as the one that appeared 2 letters ago.),,,,,,,,,,,0,10,10,10,,,,,,,,,,,,,,,,,,,,,,,,,,,,,,,,,,,,,,,,,,,,,,,,,,,,,,,,,,,,,,,,,,,,,,,,,,,,,,,,,P035,FENCOG,2,Post,2022_Apr_19_1211,N-Back (New Version 2021),2021.1.4,120.056955
,,,,Conditions/Version_1/oneback(3)_v1.xlsx,New rule: Press 'space' when you see 1-back (i.e. the same letter as the one that appeared 1 letter ago.),o,None,,,,,,,,,0,11,11,11,0,0,0,0,,,,,,,,,,,,,,,,,,,,,,,,,,,,,,,,,,,,,,,,,,,,,,,,,,,,,,,,,,,1102.704639,None,1105.69331,None,space,0.8020117,1105.69331,None,1102.704639,None,1.785,1108.307323,None,None,1,1108.307323,None,,P035,FENCOG,2,Post,2022_Apr_19_1211,N-Back (New Version 2021),2021.1.4,120.056955
,,,,Conditions/Version_1/oneback(3)_v1.xlsx,New rule: Press 'space' when you see 1-back (i.e. the same letter as the one that appeared 1 letter ago.),O,space,,,,,,,,,0,11,11,11,0,1,1,1,,,,,,,,,,,,,,,,,,,,,,,,,,,,,,,,,,,,,,,,,,,,,,,,,,,,,,,,,,,,,,,,,,,,,1.6176,1111.931247,None,space,1,1111.931247,None,0.3241293,P035,FENCOG,2,Post,2022_Apr_19_1211,N-Back (New Version 2021),2021.1.4,120.056955
,,,,Conditions/Version_1/oneback(3)_v1.xlsx,New rule: Press 'space' when you see 1-back (i.e. the same letter as the one that appeared 1 letter ago.),h,None,,,,,,,,,0,11,11,11,0,2,2,2,,,,,,,,,,,,,,,,,,,,,,,,,,,,,,,,,,,,,,,,,,,,,,,,,,,,,,,,,,,,,,,,,,,,,1.1836,1115.122004,None,None,1,1115.122004,None,,P035,FENCOG,2,Post,2022_Apr_19_1211,N-Back (New Version 2021),2021.1.4,120.056955
,,,,Conditions/Version_1/oneback(3)_v1.xlsx,New rule: Press 'space' when you see 1-back (i.e. the same letter as the one that appeared 1 letter ago.),g,None,,,,,,,,,0,11,11,11,0,3,3,3,,,,,,,,,,,,,,,,,,,,,,,,,,,,,,,,,,,,,,,,,,,,,,,,,,,,,,,,,,,,,,,,,,,,,1.0286,1118.159063,None,None,1,1118.159063,None,,P035,FENCOG,2,Post,2022_Apr_19_1211,N-Back (New Version 2021),2021.1.4,120.056955
,,,,Conditions/Version_1/oneback(3)_v1.xlsx,New rule: Press 'space' when you see 1-back (i.e. the same letter as the one that appeared 1 letter ago.),n,None,,,,,,,,,0,11,11,11,0,4,4,4,,,,,,,,,,,,,,,,,,,,,,,,,,,,,,,,,,,,,,,,,,,,,,,,,,,,,,,,,,,,,,,,,,,,,1.4564,1121.620887,None,None,1,1121.620887,None,,P035,FENCOG,2,Post,2022_Apr_19_1211,N-Back (New Version 2021),2021.1.4,120.056955
,,,,Conditions/Version_1/oneback(3)_v1.xlsx,New rule: Press 'space' when you see 1-back (i.e. the same letter as the one that appeared 1 letter ago.),z,None,,,,,,,,,0,11,11,11,0,5,5,5,,,,,,,,,,,,,,,,,,,,,,,,,,,,,,,,,,,,,,,,,,,,,,,,,,,,,,,,,,,,,,,,,,,,,1.413,1125.044192,None,None,1,1125.044192,None,,P035,FENCOG,2,Post,2022_Apr_19_1211,N-Back (New Version 2021),2021.1.4,120.056955
,,,,Conditions/Version_1/oneback(3)_v1.xlsx,New rule: Press 'space' when you see 1-back (i.e. the same letter as the one that appeared 1 letter ago.),X,None,,,,,,,,,0,11,11,11,0,6,6,6,,,,,,,,,,,,,,,,,,,,,,,,,,,,,,,,,,,,,,,,,,,,,,,,,,,,,,,,,,,,,,,,,,,,,1.8842,1128.934538,None,None,1,1128.934538,None,,P035,FENCOG,2,Post,2022_Apr_19_1211,N-Back (New Version 2021),2021.1.4,120.056955
,,,,Conditions/Version_1/oneback(3)_v1.xlsx,New rule: Press 'space' when you see 1-back (i.e. the same letter as the one that appeared 1 letter ago.),r,None,,,,,,,,,0,11,11,11,0,7,7,7,,,,,,,,,,,,,,,,,,,,,,,,,,,,,,,,,,,,,,,,,,,,,,,,,,,,,,,,,,,,,,,,,,,,,1.1588,1132.094445,None,None,1,1132.094445,None,,P035,FENCOG,2,Post,2022_Apr_19_1211,N-Back (New Version 2021),2021.1.4,120.056955
,,,,Conditions/Version_1/oneback(3)_v1.xlsx,New rule: Press 'space' when you see 1-back (i.e. the same letter as the one that appeared 1 letter ago.),r,space,,,,,,,,,0,11,11,11,0,8,8,8,,,,,,,,,,,,,,,,,,,,,,,,,,,,,,,,,,,,,,,,,,,,,,,,,,,,,,,,,,,,,,,,,,,,,1.878,1135.982645,None,space,1,1135.982645,None,0.3847315,P035,FENCOG,2,Post,2022_Apr_19_1211,N-Back (New Version 2021),2021.1.4,120.056955
,,,,Conditions/Version_1/oneback(3)_v1.xlsx,New rule: Press 'space' when you see 1-back (i.e. the same letter as the one that appeared 1 letter ago.),P,None,,,,,,,,,0,11,11,11,0,9,9,9,,,,,,,,,,,,,,,,,,,,,,,,,,,,,,,,,,,,,,,,,,,,,,,,,,,,,,,,,,,,,,,,,,,,,1.4998,1139.521151,None,None,1,1139.521151,None,,P035,FENCOG,2,Post,2022_Apr_19_1211,N-Back (New Version 2021),2021.1.4,120.056955
,,,,Conditions/Version_1/oneback(3)_v1.xlsx,New rule: Press 'space' when you see 1-back (i.e. the same letter as the one that appeared 1 letter ago.),,,,,,,,,,,0,11,11,11,,,,,,,,,,,,,,,,,,,,,,,,,,,,,,,,,,,,,,,,,,,,,,,,,,,,,,,,,,,,,,,,,,,,,,,,,,,,,,,,,P035,FENCOG,2,Post,2022_Apr_19_1211,N-Back (New Version 2021),2021.1.4,120.056955
,,,,Conditions/Version_1/twoback(4)_v1.xlsx,New rule: Press 'space' when you see 2-back (i.e. the same letter as the one that appeared 2 letters ago.),r,None,,,,,,,,,0,12,12,12,0,0,0,0,,,,,,,,,,,,,,,,,,,,,,,,,,,,,,,,,,,,,,,,,,,,,,,,,,,,,,,,,,,1141.510257,None,1144.498981,None,space,0.188432,1144.498981,None,1141.510257,None,1.4378,1146.156608,None,None,1,1146.156608,None,,P035,FENCOG,2,Post,2022_Apr_19_1211,N-Back (New Version 2021),2021.1.4,120.056955
,,,,Conditions/Version_1/twoback(4)_v1.xlsx,New rule: Press 'space' when you see 2-back (i.e. the same letter as the one that appeared 2 letters ago.),T,None,,,,,,,,,0,12,12,12,0,1,1,1,,,,,,,,,,,,,,,,,,,,,,,,,,,,,,,,,,,,,,,,,,,,,,,,,,,,,,,,,,,,,,,,,,,,,1.4502,1149.612463,None,None,1,1149.612463,None,,P035,FENCOG,2,Post,2022_Apr_19_1211,N-Back (New Version 2021),2021.1.4,120.056955
,,,,Conditions/Version_1/twoback(4)_v1.xlsx,New rule: Press 'space' when you see 2-back (i.e. the same letter as the one that appeared 2 letters ago.),o,None,,,,,,,,,0,12,12,12,0,2,2,2,,,,,,,,,,,,,,,,,,,,,,,,,,,,,,,,,,,,,,,,,,,,,,,,,,,,,,,,,,,,,,,,,,,,,1.3696,1152.995095,None,None,1,1152.995095,None,,P035,FENCOG,2,Post,2022_Apr_19_1211,N-Back (New Version 2021),2021.1.4,120.056955
,,,,Conditions/Version_1/twoback(4)_v1.xlsx,New rule: Press 'space' when you see 2-back (i.e. the same letter as the one that appeared 2 letters ago.),p,None,,,,,,,,,0,12,12,12,0,3,3,3,,,,,,,,,,,,,,,,,,,,,,,,,,,,,,,,,,,,,,,,,,,,,,,,,,,,,,,,,,,,,,,,,,,,,1.7912,1156.793065,None,None,1,1156.793065,None,,P035,FENCOG,2,Post,2022_Apr_19_1211,N-Back (New Version 2021),2021.1.4,120.056955
,,,,Conditions/Version_1/twoback(4)_v1.xlsx,New rule: Press 'space' when you see 2-back (i.e. the same letter as the one that appeared 2 letters ago.),p,None,,,,,,,,,0,12,12,12,0,4,4,4,,,,,,,,,,,,,,,,,,,,,,,,,,,,,,,,,,,,,,,,,,,,,,,,,,,,,,,,,,,,,,,,,,,,,1.2208,1160.017177,None,None,1,1160.017177,None,,P035,FENCOG,2,Post,2022_Apr_19_1211,N-Back (New Version 2021),2021.1.4,120.056955
,,,,Conditions/Version_1/twoback(4)_v1.xlsx,New rule: Press 'space' when you see 2-back (i.e. the same letter as the one that appeared 2 letters ago.),y,None,,,,,,,,,0,12,12,12,0,5,5,5,,,,,,,,,,,,,,,,,,,,,,,,,,,,,,,,,,,,,,,,,,,,,,,,,,,,,,,,,,,,,,,,,,,,,1.103,1163.125686,None,None,1,1163.125686,None,,P035,FENCOG,2,Post,2022_Apr_19_1211,N-Back (New Version 2021),2021.1.4,120.056955
,,,,Conditions/Version_1/twoback(4)_v1.xlsx,New rule: Press 'space' when you see 2-back (i.e. the same letter as the one that appeared 2 letters ago.),P,space,,,,,,,,,0,12,12,12,0,6,6,6,,,,,,,,,,,,,,,,,,,,,,,,,,,,,,,,,,,,,,,,,,,,,,,,,,,,,,,,,,,,,,,,,,,,,1.4192,1166.556858,None,space,1,1166.556858,None,0.3063851,P035,FENCOG,2,Post,2022_Apr_19_1211,N-Back (New Version 2021),2021.1.4,120.056955
,,,,Conditions/Version_1/twoback(4)_v1.xlsx,New rule: Press 'space' when you see 2-back (i.e. the same letter as the one that appeared 2 letters ago.),y,None,,,,,,,,,0,12,12,12,0,7,7,7,,,,,,,,,,,,,,,,,,,,,,,,,,,,,,,,,,,,,,,,,,,,,,,,,,,,,,,,,,,,,,,,,,,,,1.0968,1169.655922,None,space,0,1169.655922,None,0.3435399,P035,FENCOG,2,Post,2022_Apr_19_1211,N-Back (New Version 2021),2021.1.4,120.056955
,,,,Conditions/Version_1/twoback(4)_v1.xlsx,New rule: Press 'space' when you see 2-back (i.e. the same letter as the one that appeared 2 letters ago.),y,space,,,,,,,,,0,12,12,12,0,8,8,8,,,,,,,,,,,,,,,,,,,,,,,,,,,,,,,,,,,,,,,,,,,,,,,,,,,,,,,,,,,,,,,,,,,,,1.072,1172.738568,None,None,0,1172.738568,None,,P035,FENCOG,2,Post,2022_Apr_19_1211,N-Back (New Version 2021),2021.1.4,120.056955
,,,,Conditions/Version_1/twoback(4)_v1.xlsx,New rule: Press 'space' when you see 2-back (i.e. the same letter as the one that appeared 2 letters ago.),,,,,,,,,,,0,12,12,12,,,,,,,,,,,,,,,,,,,,,,,,,,,,,,,,,,,,,,,,,,,,,,,,,,,,,,,,,,,,,,,,,,,,,,,,,,,,,,,,,P035,FENCOG,2,Post,2022_Apr_19_1211,N-Back (New Version 2021),2021.1.4,120.056955
,,,,Conditions/Version_1/zeroback(4)_v1.xlsx,New rule: Press 'space' when you see the letter 'x' or 'X'.,o,None,,,,,,,,,0,13,13,13,0,0,0,0,,,,,,,,,,,,,,,,,,,,,,,,,,,,,,,,,,,,,,,,,,,,,,,,,,,,,,,,,,,1174.758002,None,1177.747087,None,space,0.2601971,1177.747087,None,1174.758002,None,1.754,1179.788172,None,None,1,1179.788172,None,,P035,FENCOG,2,Post,2022_Apr_19_1211,N-Back (New Version 2021),2021.1.4,120.056955
,,,,Conditions/Version_1/zeroback(4)_v1.xlsx,New rule: Press 'space' when you see the letter 'x' or 'X'.,X,space,,,,,,,,,0,13,13,13,0,1,1,1,,,,,,,,,,,,,,,,,,,,,,,,,,,,,,,,,,,,,,,,,,,,,,,,,,,,,,,,,,,,,,,,,,,,,1.9152,1183.710871,None,space,1,1183.710871,None,0.384642,P035,FENCOG,2,Post,2022_Apr_19_1211,N-Back (New Version 2021),2021.1.4,120.056955
,,,,Conditions/Version_1/zeroback(4)_v1.xlsx,New rule: Press 'space' when you see the letter 'x' or 'X'.,p,None,,,,,,,,,0,13,13,13,0,2,2,2,,,,,,,,,,,,,,,,,,,,,,,,,,,,,,,,,,,,,,,,,,,,,,,,,,,,,,,,,,,,,,,,,,,,,1.289,1187.008928,None,None,1,1187.008928,None,,P035,FENCOG,2,Post,2022_Apr_19_1211,N-Back (New Version 2021),2021.1.4,120.056955
,,,,Conditions/Version_1/zeroback(4)_v1.xlsx,New rule: Press 'space' when you see the letter 'x' or 'X'.,m,None,,,,,,,,,0,13,13,13,0,3,3,3,,,,,,,,,,,,,,,,,,,,,,,,,,,,,,,,,,,,,,,,,,,,,,,,,,,,,,,,,,,,,,,,,,,,,1.1836,1190.191343,None,None,1,1190.191343,None,,P035,FENCOG,2,Post,2022_Apr_19_1211,N-Back (New Version 2021),2021.1.4,120.056955
,,,,Conditions/Version_1/zeroback(4)_v1.xlsx,New rule: Press 'space' when you see the letter 'x' or 'X'.,n,None,,,,,,,,,0,13,13,13,0,4,4,4,,,,,,,,,,,,,,,,,,,,,,,,,,,,,,,,,,,,,,,,,,,,,,,,,,,,,,,,,,,,,,,,,,,,,1.3014,1193.498871,None,None,1,1193.498871,None,,P035,FENCOG,2,Post,2022_Apr_19_1211,N-Back (New Version 2021),2021.1.4,120.056955
,,,,Conditions/Version_1/zeroback(4)_v1.xlsx,New rule: Press 'space' when you see the letter 'x' or 'X'.,m,None,,,,,,,,,0,13,13,13,0,5,5,5,,,,,,,,,,,,,,,,,,,,,,,,,,,,,,,,,,,,,,,,,,,,,,,,,,,,,,,,,,,,,,,,,,,,,1.8594,1197.364668,None,None,1,1197.364668,None,,P035,FENCOG,2,Post,2022_Apr_19_1211,N-Back (New Version 2021),2021.1.4,120.056955
,,,,Conditions/Version_1/zeroback(4)_v1.xlsx,New rule: Press 'space' when you see the letter 'x' or 'X'.,C,None,,,,,,,,,0,13,13,13,0,6,6,6,,,,,,,,,,,,,,,,,,,,,,,,,,,,,,,,,,,,,,,,,,,,,,,,,,,,,,,,,,,,,,,,,,,,,1.413,1200.78014,None,None,1,1200.78014,None,,P035,FENCOG,2,Post,2022_Apr_19_1211,N-Back (New Version 2021),2021.1.4,120.056955
,,,,Conditions/Version_1/zeroback(4)_v1.xlsx,New rule: Press 'space' when you see the letter 'x' or 'X'.,m,None,,,,,,,,,0,13,13,13,0,7,7,7,,,,,,,,,,,,,,,,,,,,,,,,,,,,,,,,,,,,,,,,,,,,,,,,,,,,,,,,,,,,,,,,,,,,,1.103,1203.887564,None,None,1,1203.887564,None,,P035,FENCOG,2,Post,2022_Apr_19_1211,N-Back (New Version 2021),2021.1.4,120.056955
,,,,Conditions/Version_1/zeroback(4)_v1.xlsx,New rule: Press 'space' when you see the letter 'x' or 'X'.,p,None,,,,,,,,,0,13,13,13,0,8,8,8,,,,,,,,,,,,,,,,,,,,,,,,,,,,,,,,,,,,,,,,,,,,,,,,,,,,,,,,,,,,,,,,,,,,,1.2642,1207.152982,None,None,1,1207.152982,None,,P035,FENCOG,2,Post,2022_Apr_19_1211,N-Back (New Version 2021),2021.1.4,120.056955
,,,,Conditions/Version_1/zeroback(4)_v1.xlsx,New rule: Press 'space' when you see the letter 'x' or 'X'.,X,space,,,,,,,,,0,13,13,13,0,9,9,9,,,,,,,,,,,,,,,,,,,,,,,,,,,,,,,,,,,,,,,,,,,,,,,,,,,,,,,,,,,,,,,,,,,,,1.01,1210.175216,None,space,1,1210.175216,None,0.3280974,P035,FENCOG,2,Post,2022_Apr_19_1211,N-Back (New Version 2021),2021.1.4,120.056955
,,,,Conditions/Version_1/zeroback(4)_v1.xlsx,New rule: Press 'space' when you see the letter 'x' or 'X'.,,,,,,,,,,,0,13,13,13,,,,,,,,,,,,,,,,,,,,,,,,,,,,,,,,,,,,,,,,,,,,,,,,,,,,,,,,,,,,,,,,,,,,,,,,,,,,,,,,,P035,FENCOG,2,Post,2022_Apr_19_1211,N-Back (New Version 2021),2021.1.4,120.056955
,,,,Conditions/Version_1/oneback(4)_v1.xlsx,New rule: Press 'space' when you see 1-back (i.e. the same letter as the one that appeared 1 letter ago.),w,None,,,,,,,,,0,14,14,14,0,0,0,0,,,,,,,,,,,,,,,,,,,,,,,,,,,,,,,,,,,,,,,,,,,,,,,,,,,,,,,,,,,1212.198382,None,1215.186621,None,space,0.6445923,1215.186621,None,1212.198382,None,1.9214,1217.783639,None,None,1,1217.783639,None,,P035,FENCOG,2,Post,2022_Apr_19_1211,N-Back (New Version 2021),2021.1.4,120.056955
,,,,Conditions/Version_1/oneback(4)_v1.xlsx,New rule: Press 'space' when you see 1-back (i.e. the same letter as the one that appeared 1 letter ago.),q,None,,,,,,,,,0,14,14,14,0,1,1,1,,,,,,,,,,,,,,,,,,,,,,,,,,,,,,,,,,,,,,,,,,,,,,,,,,,,,,,,,,,,,,,,,,,,,1.5742,1221.35734,None,None,1,1221.35734,None,,P035,FENCOG,2,Post,2022_Apr_19_1211,N-Back (New Version 2021),2021.1.4,120.056955
,,,,Conditions/Version_1/oneback(4)_v1.xlsx,New rule: Press 'space' when you see 1-back (i.e. the same letter as the one that appeared 1 letter ago.),i,None,,,,,,,,,0,14,14,14,0,2,2,2,,,,,,,,,,,,,,,,,,,,,,,,,,,,,,,,,,,,,,,,,,,,,,,,,,,,,,,,,,,,,,,,,,,,,1.32,1224.682461,None,None,1,1224.682461,None,,P035,FENCOG,2,Post,2022_Apr_19_1211,N-Back (New Version 2021),2021.1.4,120.056955
,,,,Conditions/Version_1/oneback(4)_v1.xlsx,New rule: Press 'space' when you see 1-back (i.e. the same letter as the one that appeared 1 letter ago.),t,None,,,,,,,,,0,14,14,14,0,3,3,3,,,,,,,,,,,,,,,,,,,,,,,,,,,,,,,,,,,,,,,,,,,,,,,,,,,,,,,,,,,,,,,,,,,,,1.9896,1228.683929,None,None,1,1228.683929,None,,P035,FENCOG,2,Post,2022_Apr_19_1211,N-Back (New Version 2021),2021.1.4,120.056955
,,,,Conditions/Version_1/oneback(4)_v1.xlsx,New rule: Press 'space' when you see 1-back (i.e. the same letter as the one that appeared 1 letter ago.),v,None,,,,,,,,,0,14,14,14,0,4,4,4,,,,,,,,,,,,,,,,,,,,,,,,,,,,,,,,,,,,,,,,,,,,,,,,,,,,,,,,,,,,,,,,,,,,,1.6672,1232.355333,None,None,1,1232.355333,None,,P035,FENCOG,2,Post,2022_Apr_19_1211,N-Back (New Version 2021),2021.1.4,120.056955
,,,,Conditions/Version_1/oneback(4)_v1.xlsx,New rule: Press 'space' when you see 1-back (i.e. the same letter as the one that appeared 1 letter ago.),V,space,,,,,,,,,0,14,14,14,0,5,5,5,,,,,,,,,,,,,,,,,,,,,,,,,,,,,,,,,,,,,,,,,,,,,,,,,,,,,,,,,,,,,,,,,,,,,1.0162,1235.381649,None,space,1,1235.381649,None,0.3139513,P035,FENCOG,2,Post,2022_Apr_19_1211,N-Back (New Version 2021),2021.1.4,120.056955
,,,,Conditions/Version_1/oneback(4)_v1.xlsx,New rule: Press 'space' when you see 1-back (i.e. the same letter as the one that appeared 1 letter ago.),v,space,,,,,,,,,0,14,14,14,0,6,6,6,,,,,,,,,,,,,,,,,,,,,,,,,,,,,,,,,,,,,,,,,,,,,,,,,,,,,,,,,,,,,,,,,,,,,1.5246,1238.911706,None,space,1,1238.911706,None,0.4158421,P035,FENCOG,2,Post,2022_Apr_19_1211,N-Back (New Version 2021),2021.1.4,120.056955
,,,,Conditions/Version_1/oneback(4)_v1.xlsx,New rule: Press 'space' when you see 1-back (i.e. the same letter as the one that appeared 1 letter ago.),p,None,,,,,,,,,0,14,14,14,0,7,7,7,,,,,,,,,,,,,,,,,,,,,,,,,,,,,,,,,,,,,,,,,,,,,,,,,,,,,,,,,,,,,,,,,,,,,1.258,1242.178239,None,None,1,1242.178239,None,,P035,FENCOG,2,Post,2022_Apr_19_1211,N-Back (New Version 2021),2021.1.4,120.056955
,,,,Conditions/Version_1/oneback(4)_v1.xlsx,New rule: Press 'space' when you see 1-back (i.e. the same letter as the one that appeared 1 letter ago.),w,None,,,,,,,,,0,14,14,14,0,8,8,8,,,,,,,,,,,,,,,,,,,,,,,,,,,,,,,,,,,,,,,,,,,,,,,,,,,,,,,,,,,,,,,,,,,,,1.4812,1245.667781,None,None,1,1245.667781,None,,P035,FENCOG,2,Post,2022_Apr_19_1211,N-Back (New Version 2021),2021.1.4,120.056955
,,,,Conditions/Version_1/oneback(4)_v1.xlsx,New rule: Press 'space' when you see 1-back (i.e. the same letter as the one that appeared 1 letter ago.),W,space,,,,,,,,,0,14,14,14,0,9,9,9,,,,,,,,,,,,,,,,,,,,,,,,,,,,,,,,,,,,,,,,,,,,,,,,,,,,,,,,,,,,,,,,,,,,,1.723,1249.399165,None,space,1,1249.399165,None,0.4161163,P035,FENCOG,2,Post,2022_Apr_19_1211,N-Back (New Version 2021),2021.1.4,120.056955
,,,,Conditions/Version_1/oneback(4)_v1.xlsx,New rule: Press 'space' when you see 1-back (i.e. the same letter as the one that appeared 1 letter ago.),,,,,,,,,,,0,14,14,14,,,,,,,,,,,,,,,,,,,,,,,,,,,,,,,,,,,,,,,,,,,,,,,,,,,,,,,,,,,,,,,,,,,,,,,,,,,,,,,,,P035,FENCOG,2,Post,2022_Apr_19_1211,N-Back (New Version 2021),2021.1.4,120.056955
,,,,Conditions/Version_1/threeback(4)_v1.xlsx,New rule: Press 'space' when you see 3-back (i.e. the same letter as the one that appeared 3 letters ago.),A,None,,,,,,,,,0,15,15,15,0,0,0,0,,,,,,,,,,,,,,,,,,,,,,,,,,,,,,,,,,,,,,,,,,,,,,,,,,,,,,,,,,,1251.419977,None,1254.422606,None,space,36.7924294,1254.422606,None,1251.419977,None,1.7168,1292.964469,None,None,1,1292.964469,None,,P035,FENCOG,2,Post,2022_Apr_19_1211,N-Back (New Version 2021),2021.1.4,120.056955
,,,,Conditions/Version_1/threeback(4)_v1.xlsx,New rule: Press 'space' when you see 3-back (i.e. the same letter as the one that appeared 3 letters ago.),n,None,,,,,,,,,0,15,15,15,0,1,1,1,,,,,,,,,,,,,,,,,,,,,,,,,,,,,,,,,,,,,,,,,,,,,,,,,,,,,,,,,,,,,,,,,,,,,1.0968,1296.068972,None,None,1,1296.068972,None,,P035,FENCOG,2,Post,2022_Apr_19_1211,N-Back (New Version 2021),2021.1.4,120.056955
,,,,Conditions/Version_1/threeback(4)_v1.xlsx,New rule: Press 'space' when you see 3-back (i.e. the same letter as the one that appeared 3 letters ago.),g,None,,,,,,,,,0,15,15,15,0,2,2,2,,,,,,,,,,,,,,,,,,,,,,,,,,,,,,,,,,,,,,,,,,,,,,,,,,,,,,,,,,,,,,,,,,,,,1.9214,1299.993642,None,None,1,1299.993642,None,,P035,FENCOG,2,Post,2022_Apr_19_1211,N-Back (New Version 2021),2021.1.4,120.056955
,,,,Conditions/Version_1/threeback(4)_v1.xlsx,New rule: Press 'space' when you see 3-back (i.e. the same letter as the one that appeared 3 letters ago.),A,space,,,,,,,,,0,15,15,15,0,3,3,3,,,,,,,,,,,,,,,,,,,,,,,,,,,,,,,,,,,,,,,,,,,,,,,,,,,,,,,,,,,,,,,,,,,,,1.6734,1303.677371,None,space,1,1303.677371,None,0.3219129,P035,FENCOG,2,Post,2022_Apr_19_1211,N-Back (New Version 2021),2021.1.4,120.056955
,,,,Conditions/Version_1/threeback(4)_v1.xlsx,New rule: Press 'space' when you see 3-back (i.e. the same letter as the one that appeared 3 letters ago.),p,None,,,,,,,,,0,15,15,15,0,4,4,4,,,,,,,,,,,,,,,,,,,,,,,,,,,,,,,,,,,,,,,,,,,,,,,,,,,,,,,,,,,,,,,,,,,,,1.1588,1306.840553,None,None,1,1306.840553,None,,P035,FENCOG,2,Post,2022_Apr_19_1211,N-Back (New Version 2021),2021.1.4,120.056955
,,,,Conditions/Version_1/threeback(4)_v1.xlsx,New rule: Press 'space' when you see 3-back (i.e. the same letter as the one that appeared 3 letters ago.),O,None,,,,,,,,,0,15,15,15,0,5,5,5,,,,,,,,,,,,,,,,,,,,,,,,,,,,,,,,,,,,,,,,,,,,,,,,,,,,,,,,,,,,,,,,,,,,,1.8718,1310.715021,None,None,1,1310.715021,None,,P035,FENCOG,2,Post,2022_Apr_19_1211,N-Back (New Version 2021),2021.1.4,120.056955
,,,,Conditions/Version_1/threeback(4)_v1.xlsx,New rule: Press 'space' when you see 3-back (i.e. the same letter as the one that appeared 3 letters ago.),a,space,,,,,,,,,0,15,15,15,0,6,6,6,,,,,,,,,,,,,,,,,,,,,,,,,,,,,,,,,,,,,,,,,,,,,,,,,,,,,,,,,,,,,,,,,,,,,1.8284,1314.5548,None,space,1,1314.5548,None,0.3404375,P035,FENCOG,2,Post,2022_Apr_19_1211,N-Back (New Version 2021),2021.1.4,120.056955
,,,,Conditions/Version_1/threeback(4)_v1.xlsx,New rule: Press 'space' when you see 3-back (i.e. the same letter as the one that appeared 3 letters ago.),p,space,,,,,,,,,0,15,15,15,0,7,7,7,,,,,,,,,,,,,,,,,,,,,,,,,,,,,,,,,,,,,,,,,,,,,,,,,,,,,,,,,,,,,,,,,,,,,1.7726,1318.329426,None,space,1,1318.329426,None,0.3658652,P035,FENCOG,2,Post,2022_Apr_19_1211,N-Back (New Version 2021),2021.1.4,120.056955
,,,,Conditions/Version_1/threeback(4)_v1.xlsx,New rule: Press 'space' when you see 3-back (i.e. the same letter as the one that appeared 3 letters ago.),x,None,,,,,,,,,0,15,15,15,0,8,8,8,,,,,,,,,,,,,,,,,,,,,,,,,,,,,,,,,,,,,,,,,,,,,,,,,,,,,,,,,,,,,,,,,,,,,1.475,1321.811017,None,None,1,1321.811017,None,,P035,FENCOG,2,Post,2022_Apr_19_1211,N-Back (New Version 2021),2021.1.4,120.056955
,,,,Conditions/Version_1/threeback(4)_v1.xlsx,New rule: Press 'space' when you see 3-back (i.e. the same letter as the one that appeared 3 letters ago.),X,None,,,,,,,,,0,15,15,15,0,9,9,9,,,,,,,,,,,,,,,,,,,,,,,,,,,,,,,,,,,,,,,,,,,,,,,,,,,,,,,,,,,,,,,,,,,,,1.8408,1325.651506,None,None,1,1325.651506,None,,P035,FENCOG,2,Post,2022_Apr_19_1211,N-Back (New Version 2021),2021.1.4,120.056955
,,,,Conditions/Version_1/threeback(4)_v1.xlsx,New rule: Press 'space' when you see 3-back (i.e. the same letter as the one that appeared 3 letters ago.),,,,,,,,,,,0,15,15,15,,,,,,,,,,,,,,,,,,,,,,,,,,,,,,,,,,,,,,,,,,,,,,,,,,,,,,,,,,,,,,,,,,,,,,,,,,,,,,,,,P035,FENCOG,2,Post,2022_Apr_19_1211,N-Back (New Version 2021),2021.1.4,120.056955
