CondFileP,InstructionsP,LettersDisplayedP,CorrectnessP,CondFile,Instructions,LettersDisplayed,Correctness,practicetrials.thisRepN,practicetrials.thisTrialN,practicetrials.thisN,practicetrials.thisIndex,InnerLoopPractice.thisRepN,InnerLoopPractice.thisTrialN,InnerLoopPractice.thisN,InnerLoopPractice.thisIndex,trials.thisRepN,trials.thisTrialN,trials.thisN,trials.thisIndex,InnerLoop.thisRepN,InnerLoop.thisTrialN,InnerLoop.thisN,InnerLoop.thisIndex,TaskVersionText.started,TaskVersionText.stopped,InstrKey1.keys,InstrKey1.rt,InstrKey1.started,InstrKey1.stopped,text.started,text.stopped,key_resp_4.keys,key_resp_4.rt,key_resp_4.started,key_resp_4.stopped,text_2.started,text_2.stopped,key_resp_3.keys,key_resp_3.rt,key_resp_3.started,key_resp_3.stopped,text_3.started,text_3.stopped,key_resp_2.keys,key_resp_2.rt,key_resp_2.started,key_resp_2.stopped,PractIn1.started,PractIn1.stopped,PractIn2.started,PractIn2.stopped,PractInstructionPass.keys,PractInstructionPass.rt,PractInstructionPass.started,PractInstructionPass.stopped,PractBlock1.started,PractBlock1.stopped,ISIjitterPractice,ISI_Pract_Fixation.started,ISI_Pract_Fixation.stopped,N_backP.started,N_backP.stopped,KeyPractice.keys,KeyPractice.corr,KeyPractice.rt,KeyPractice.started,KeyPractice.stopped,text_4.started,text_4.stopped,TransitionText.started,TransitionText.stopped,key_resp_6.keys,key_resp_6.rt,key_resp_6.started,key_resp_6.stopped,text_5.started,text_5.stopped,key_resp_5.keys,key_resp_5.rt,key_resp_5.started,key_resp_5.stopped,MainInt1.started,MainInt1.stopped,MainInt2.started,MainInt2.stopped,InstructionPass.keys,InstructionPass.rt,InstructionPass.started,InstructionPass.stopped,Blocks1.started,Blocks1.stopped,ISIjitter,N_backD.started,N_backD.stopped,key_resp.keys,key_resp.corr,key_resp.started,key_resp.stopped,key_resp.rt,participant,Study Name,Task Version (required to run),PRE/POST,date,expName,psychopyVersion,frameRate,
,,,,,,,,,,,,,,,,,,,,,,,,61.17004070000257,None,space,132.2044263999851,61.65835049998714,None,,,,,,,,,,,,,,,,,,,,,,,,,,,,,,,,,,,,,,,,,,,,,,,,,,,,,,,,,,,,,,,,,,,,,,,P036,FENCOG,2,Pre,2022_Apr_13_1119,N-Back (New Version 2021),2021.1.4,120.0163221904142,
,,,,,,,,,,,,,,,,,,,,,,,,,,,,,,193.90163259999827,None,space,8.437931099993875,194.39465189998737,None,,,,,,,,,,,,,,,,,,,,,,,,,,,,,,,,,,,,,,,,,,,,,,,,,,,,,,,,,,,,,,,,,P036,FENCOG,2,Pre,2022_Apr_13_1119,N-Back (New Version 2021),2021.1.4,120.0163221904142,
,,,,,,,,,,,,,,,,,,,,,,,,,,,,,,,,,,,,202.868882699986,None,space,9.137648699979763,203.35893809999106,None,,,,,,,,,,,,,,,,,,,,,,,,,,,,,,,,,,,,,,,,,,,,,,,,,,,,,,,,,,,P036,FENCOG,2,Pre,2022_Apr_13_1119,N-Back (New Version 2021),2021.1.4,120.0163221904142,
,,,,,,,,,,,,,,,,,,,,,,,,,,,,,,,,,,,,,,,,,,212.52311290000216,None,space,9.938619900000049,213.0139921999944,None,,,,,,,,,,,,,,,,,,,,,,,,,,,,,,,,,,,,,,,,,,,,,,,,,,,,,P036,FENCOG,2,Pre,2022_Apr_13_1119,N-Back (New Version 2021),2021.1.4,120.0163221904142,
Conditions/Version_2Pr/zeroback(1)_v2.xlsx,Rule: Press 'space' when you see the letter 'x' or 'X'.,x,space,,,,,0,0,0,0,0,0,0,0,,,,,,,,,,,,,,,,,,,,,,,,,,,,,,,,,224.34054059998016,None,227.32723709999118,None,space,0.7054101999965496,227.32723709999118,None,224.34054059998016,None,1.265,228.06988409999758,None,229.34447919999366,None,space,1,0.35239799998817034,229.34447919999366,None,229.71459129999857,None,,,,,,,,,,,,,,,,,,,,,,,,,,,,,,,P036,FENCOG,2,Pre,2022_Apr_13_1119,N-Back (New Version 2021),2021.1.4,120.0163221904142,
Conditions/Version_2Pr/zeroback(1)_v2.xlsx,Rule: Press 'space' when you see the letter 'x' or 'X'.,R,None,,,,,0,0,0,0,0,1,1,1,,,,,,,,,,,,,,,,,,,,,,,,,,,,,,,,,,,,,,,,,,,1.14,231.2164162999834,None,232.36041459999979,None,None,1,,232.36041459999979,None,234.36551859998144,None,,,,,,,,,,,,,,,,,,,,,,,,,,,,,,,P036,FENCOG,2,Pre,2022_Apr_13_1119,N-Back (New Version 2021),2021.1.4,120.0163221904142,
Conditions/Version_2Pr/zeroback(1)_v2.xlsx,Rule: Press 'space' when you see the letter 'x' or 'X'.,p,None,,,,,0,0,0,0,0,2,2,2,,,,,,,,,,,,,,,,,,,,,,,,,,,,,,,,,,,,,,,,,,,1.915,235.86511309997877,None,237.78495169998496,None,None,1,,237.78495169998496,None,239.7889638999768,None,,,,,,,,,,,,,,,,,,,,,,,,,,,,,,,P036,FENCOG,2,Pre,2022_Apr_13_1119,N-Back (New Version 2021),2021.1.4,120.0163221904142,
Conditions/Version_2Pr/zeroback(1)_v2.xlsx,Rule: Press 'space' when you see the letter 'x' or 'X'.,O,None,,,,,0,0,0,0,0,3,3,3,,,,,,,,,,,,,,,,,,,,,,,,,,,,,,,,,,,,,,,,,,,1.74,241.28855079997447,None,243.03339939998114,None,None,1,,243.03339939998114,None,245.03719299999648,None,,,,,,,,,,,,,,,,,,,,,,,,,,,,,,,P036,FENCOG,2,Pre,2022_Apr_13_1119,N-Back (New Version 2021),2021.1.4,120.0163221904142,
Conditions/Version_2Pr/zeroback(1)_v2.xlsx,Rule: Press 'space' when you see the letter 'x' or 'X'.,i,None,,,,,0,0,0,0,0,4,4,4,,,,,,,,,,,,,,,,,,,,,,,,,,,,,,,,,,,,,,,,,,,1.765,246.53697749998537,None,248.30715949999285,None,None,1,,248.30715949999285,None,250.31086129997857,None,,,,,,,,,,,,,,,,,,,,,,,,,,,,,,,P036,FENCOG,2,Pre,2022_Apr_13_1119,N-Back (New Version 2021),2021.1.4,120.0163221904142,
Conditions/Version_2Pr/zeroback(1)_v2.xlsx,Rule: Press 'space' when you see the letter 'x' or 'X'.,U,None,,,,,0,0,0,0,0,5,5,5,,,,,,,,,,,,,,,,,,,,,,,,,,,,,,,,,,,,,,,,,,,1.79,251.81048379998538,None,253.6053245999792,None,None,1,,253.6053245999792,None,255.60883739998098,None,,,,,,,,,,,,,,,,,,,,,,,,,,,,,,,P036,FENCOG,2,Pre,2022_Apr_13_1119,N-Back (New Version 2021),2021.1.4,120.0163221904142,
Conditions/Version_2Pr/zeroback(1)_v2.xlsx,Rule: Press 'space' when you see the letter 'x' or 'X'.,N,None,,,,,0,0,0,0,0,6,6,6,,,,,,,,,,,,,,,,,,,,,,,,,,,,,,,,,,,,,,,,,,,1.565,257.1088124999951,None,258.67779560000054,None,None,1,,258.67779560000054,None,260.68284199998016,None,,,,,,,,,,,,,,,,,,,,,,,,,,,,,,,P036,FENCOG,2,Pre,2022_Apr_13_1119,N-Back (New Version 2021),2021.1.4,120.0163221904142,
Conditions/Version_2Pr/zeroback(1)_v2.xlsx,Rule: Press 'space' when you see the letter 'x' or 'X'.,m,None,,,,,0,0,0,0,0,7,7,7,,,,,,,,,,,,,,,,,,,,,,,,,,,,,,,,,,,,,,,,,,,1.64,262.18210700000054,None,263.8250827000011,None,None,1,,263.8250827000011,None,265.8312529999821,None,,,,,,,,,,,,,,,,,,,,,,,,,,,,,,,P036,FENCOG,2,Pre,2022_Apr_13_1119,N-Back (New Version 2021),2021.1.4,120.0163221904142,
Conditions/Version_2Pr/zeroback(1)_v2.xlsx,Rule: Press 'space' when you see the letter 'x' or 'X'.,x,space,,,,,0,0,0,0,0,8,8,8,,,,,,,,,,,,,,,,,,,,,,,,,,,,,,,,,,,,,,,,,,,1.24,267.33084929999313,None,268.5729656999756,None,space,1,0.36431780000566505,268.5729656999756,None,268.958292299998,None,,,,,,,,,,,,,,,,,,,,,,,,,,,,,,,P036,FENCOG,2,Pre,2022_Apr_13_1119,N-Back (New Version 2021),2021.1.4,120.0163221904142,
Conditions/Version_2Pr/zeroback(1)_v2.xlsx,Rule: Press 'space' when you see the letter 'x' or 'X'.,X,space,,,,,0,0,0,0,0,9,9,9,,,,,,,,,,,,,,,,,,,,,,,,,,,,,,,,,,,,,,,,,,,1.29,270.4632339999953,None,271.7559103999811,None,space,1,0.36470860001281835,271.7559103999811,None,272.13103229997796,None,,,,,,,,,,,,,,,,,,,,,,,,,,,,,,,P036,FENCOG,2,Pre,2022_Apr_13_1119,N-Back (New Version 2021),2021.1.4,120.0163221904142,
Conditions/Version_2Pr/zeroback(1)_v2.xlsx,Rule: Press 'space' when you see the letter 'x' or 'X'.,,,,,,,0,0,0,0,,,,,,,,,,,,,,,,,,,,,,,,,,,,,,,,,,,,,,,,,,,,,,,,,,,,,,,,,,,,,,,,,,,,,,,,,,,,,,,,,,,,,,,,,P036,FENCOG,2,Pre,2022_Apr_13_1119,N-Back (New Version 2021),2021.1.4,120.0163221904142,
Conditions/Version_2Pr/oneback(1)_v2.xlsx,New rule: Press 'space' when you see 1-back (i.e. the same letter as the one that appeared 1 letter ago.),r,None,,,,,0,1,1,1,0,0,0,0,,,,,,,,,,,,,,,,,,,,,,,,,,,,,,,,,273.662908600003,None,276.64687699999195,None,space,1.8657505000010133,276.64687699999195,None,273.662908600003,None,1.69,278.54553909998504,None,280.23950569998124,None,None,1,,280.23950569998124,None,282.2430683999846,None,,,,,,,,,,,,,,,,,,,,,,,,,,,,,,,P036,FENCOG,2,Pre,2022_Apr_13_1119,N-Back (New Version 2021),2021.1.4,120.0163221904142,
Conditions/Version_2Pr/oneback(1)_v2.xlsx,New rule: Press 'space' when you see 1-back (i.e. the same letter as the one that appeared 1 letter ago.),t,None,,,,,0,1,1,1,0,1,1,1,,,,,,,,,,,,,,,,,,,,,,,,,,,,,,,,,,,,,,,,,,,1.365,283.74267710000277,None,285.1116419000027,None,None,1,,285.1116419000027,None,287.1165193999768,None,,,,,,,,,,,,,,,,,,,,,,,,,,,,,,,P036,FENCOG,2,Pre,2022_Apr_13_1119,N-Back (New Version 2021),2021.1.4,120.0163221904142,
Conditions/Version_2Pr/oneback(1)_v2.xlsx,New rule: Press 'space' when you see 1-back (i.e. the same letter as the one that appeared 1 letter ago.),Y,None,,,,,0,1,1,1,0,2,2,2,,,,,,,,,,,,,,,,,,,,,,,,,,,,,,,,,,,,,,,,,,,1.94,288.6160435999918,None,290.5602308999805,None,None,1,,290.5602308999805,None,292.56504239997594,None,,,,,,,,,,,,,,,,,,,,,,,,,,,,,,,P036,FENCOG,2,Pre,2022_Apr_13_1119,N-Back (New Version 2021),2021.1.4,120.0163221904142,
Conditions/Version_2Pr/oneback(1)_v2.xlsx,New rule: Press 'space' when you see 1-back (i.e. the same letter as the one that appeared 1 letter ago.),y,space,,,,,0,1,1,1,0,3,3,3,,,,,,,,,,,,,,,,,,,,,,,,,,,,,,,,,,,,,,,,,,,1.965,294.06459870000253,None,296.0335963999969,None,space,1,0.3351709999842569,296.0335963999969,None,296.38129599997774,None,,,,,,,,,,,,,,,,,,,,,,,,,,,,,,,P036,FENCOG,2,Pre,2022_Apr_13_1119,N-Back (New Version 2021),2021.1.4,120.0163221904142,
Conditions/Version_2Pr/oneback(1)_v2.xlsx,New rule: Press 'space' when you see 1-back (i.e. the same letter as the one that appeared 1 letter ago.),p,None,,,,,0,1,1,1,0,4,4,4,,,,,,,,,,,,,,,,,,,,,,,,,,,,,,,,,,,,,,,,,,,1.49,297.8884860999824,None,299.3808250000002,None,None,1,,299.3808250000002,None,301.3833195999905,None,,,,,,,,,,,,,,,,,,,,,,,,,,,,,,,P036,FENCOG,2,Pre,2022_Apr_13_1119,N-Back (New Version 2021),2021.1.4,120.0163221904142,
Conditions/Version_2Pr/oneback(1)_v2.xlsx,New rule: Press 'space' when you see 1-back (i.e. the same letter as the one that appeared 1 letter ago.),P,space,,,,,0,1,1,1,0,5,5,5,,,,,,,,,,,,,,,,,,,,,,,,,,,,,,,,,,,,,,,,,,,1.565,302.8870033999847,None,304.45482259997516,None,space,1,0.4018011000007391,304.45482259997516,None,304.8712050000031,None,,,,,,,,,,,,,,,,,,,,,,,,,,,,,,,P036,FENCOG,2,Pre,2022_Apr_13_1119,N-Back (New Version 2021),2021.1.4,120.0163221904142,
Conditions/Version_2Pr/oneback(1)_v2.xlsx,New rule: Press 'space' when you see 1-back (i.e. the same letter as the one that appeared 1 letter ago.),e,None,,,,,0,1,1,1,0,6,6,6,,,,,,,,,,,,,,,,,,,,,,,,,,,,,,,,,,,,,,,,,,,1.765,306.37757889999193,None,308.1455828999751,None,None,1,,308.1455828999751,None,310.15151489997515,None,,,,,,,,,,,,,,,,,,,,,,,,,,,,,,,P036,FENCOG,2,Pre,2022_Apr_13_1119,N-Back (New Version 2021),2021.1.4,120.0163221904142,
Conditions/Version_2Pr/oneback(1)_v2.xlsx,New rule: Press 'space' when you see 1-back (i.e. the same letter as the one that appeared 1 letter ago.),r,None,,,,,0,1,1,1,0,7,7,7,,,,,,,,,,,,,,,,,,,,,,,,,,,,,,,,,,,,,,,,,,,1.915,311.65104460000293,None,313.5671776999952,None,None,1,,313.5671776999952,None,315.5666291999805,None,,,,,,,,,,,,,,,,,,,,,,,,,,,,,,,P036,FENCOG,2,Pre,2022_Apr_13_1119,N-Back (New Version 2021),2021.1.4,120.0163221904142,
Conditions/Version_2Pr/oneback(1)_v2.xlsx,New rule: Press 'space' when you see 1-back (i.e. the same letter as the one that appeared 1 letter ago.),R,space,,,,,0,1,1,1,0,8,8,8,,,,,,,,,,,,,,,,,,,,,,,,,,,,,,,,,,,,,,,,,,,1.315,317.06605759999366,None,318.38357589999214,None,space,1,0.2969028999796137,318.38357589999214,None,318.6923688999959,None,,,,,,,,,,,,,,,,,,,,,,,,,,,,,,,P036,FENCOG,2,Pre,2022_Apr_13_1119,N-Back (New Version 2021),2021.1.4,120.0163221904142,
Conditions/Version_2Pr/oneback(1)_v2.xlsx,New rule: Press 'space' when you see 1-back (i.e. the same letter as the one that appeared 1 letter ago.),p,None,,,,,0,1,1,1,0,9,9,9,,,,,,,,,,,,,,,,,,,,,,,,,,,,,,,,,,,,,,,,,,,1.44,320.19852499998524,None,321.6407077999902,None,None,1,,321.6407077999902,None,323.6474159999925,None,,,,,,,,,,,,,,,,,,,,,,,,,,,,,,,P036,FENCOG,2,Pre,2022_Apr_13_1119,N-Back (New Version 2021),2021.1.4,120.0163221904142,
Conditions/Version_2Pr/oneback(1)_v2.xlsx,New rule: Press 'space' when you see 1-back (i.e. the same letter as the one that appeared 1 letter ago.),,,,,,,0,1,1,1,,,,,,,,,,,,,,,,,,,,,,,,,,,,,,,,,,,,,,,,,,,,,,,,,,,,,,,,,,,,,,,,,,,,,,,,,,,,,,,,,,,,,,,,,P036,FENCOG,2,Pre,2022_Apr_13_1119,N-Back (New Version 2021),2021.1.4,120.0163221904142,
Conditions/Version_2Pr/twoback(1)_v2.xlsx,New rule: Press 'space' when you see 2-back (i.e. the same letter as the one that appeared 2 letters ago.),r,None,,,,,0,2,2,2,0,0,0,0,,,,,,,,,,,,,,,,,,,,,,,,,,,,,,,,,325.17228780000005,None,328.1566171000013,None,space,1.4599279999965802,328.1566171000013,None,325.17228780000005,None,1.515,329.6426093999762,None,331.161952800001,None,None,1,,331.161952800001,None,333.1613607999752,None,,,,,,,,,,,,,,,,,,,,,,,,,,,,,,,P036,FENCOG,2,Pre,2022_Apr_13_1119,N-Back (New Version 2021),2021.1.4,120.0163221904142,
Conditions/Version_2Pr/twoback(1)_v2.xlsx,New rule: Press 'space' when you see 2-back (i.e. the same letter as the one that appeared 2 letters ago.),P,None,,,,,0,2,2,2,0,1,1,1,,,,,,,,,,,,,,,,,,,,,,,,,,,,,,,,,,,,,,,,,,,1.665,334.66091469998355,None,336.3270212999778,None,None,1,,336.3270212999778,None,338.326513899985,None,,,,,,,,,,,,,,,,,,,,,,,,,,,,,,,P036,FENCOG,2,Pre,2022_Apr_13_1119,N-Back (New Version 2021),2021.1.4,120.0163221904142,
Conditions/Version_2Pr/twoback(1)_v2.xlsx,New rule: Press 'space' when you see 2-back (i.e. the same letter as the one that appeared 2 letters ago.),o,None,,,,,0,2,2,2,0,2,2,2,,,,,,,,,,,,,,,,,,,,,,,,,,,,,,,,,,,,,,,,,,,1.69,339.8260406999907,None,341.5195625999768,None,None,1,,341.5195625999768,None,343.5249929999991,None,,,,,,,,,,,,,,,,,,,,,,,,,,,,,,,P036,FENCOG,2,Pre,2022_Apr_13_1119,N-Back (New Version 2021),2021.1.4,120.0163221904142,
Conditions/Version_2Pr/twoback(1)_v2.xlsx,New rule: Press 'space' when you see 2-back (i.e. the same letter as the one that appeared 2 letters ago.),p,space,,,,,0,2,2,2,0,3,3,3,,,,,,,,,,,,,,,,,,,,,,,,,,,,,,,,,,,,,,,,,,,1.44,345.0245600999915,None,346.46659779999754,None,space,1,0.39788589999079704,346.46659779999754,None,346.87557089998154,None,,,,,,,,,,,,,,,,,,,,,,,,,,,,,,,P036,FENCOG,2,Pre,2022_Apr_13_1119,N-Back (New Version 2021),2021.1.4,120.0163221904142,
Conditions/Version_2Pr/twoback(1)_v2.xlsx,New rule: Press 'space' when you see 2-back (i.e. the same letter as the one that appeared 2 letters ago.),Y,None,,,,,0,2,2,2,0,4,4,4,,,,,,,,,,,,,,,,,,,,,,,,,,,,,,,,,,,,,,,,,,,1.815,348.38189160000184,None,350.1989560999791,None,None,1,,350.1989560999791,None,352.20557729998836,None,,,,,,,,,,,,,,,,,,,,,,,,,,,,,,,P036,FENCOG,2,Pre,2022_Apr_13_1119,N-Back (New Version 2021),2021.1.4,120.0163221904142,
Conditions/Version_2Pr/twoback(1)_v2.xlsx,New rule: Press 'space' when you see 2-back (i.e. the same letter as the one that appeared 2 letters ago.),q,None,,,,,0,2,2,2,0,5,5,5,,,,,,,,,,,,,,,,,,,,,,,,,,,,,,,,,,,,,,,,,,,1.99,353.7053073999996,None,355.69829109997954,None,None,1,,355.69829109997954,None,357.7041497999744,None,,,,,,,,,,,,,,,,,,,,,,,,,,,,,,,P036,FENCOG,2,Pre,2022_Apr_13_1119,N-Back (New Version 2021),2021.1.4,120.0163221904142,
Conditions/Version_2Pr/twoback(1)_v2.xlsx,New rule: Press 'space' when you see 2-back (i.e. the same letter as the one that appeared 2 letters ago.),m,None,,,,,0,2,2,2,0,6,6,6,,,,,,,,,,,,,,,,,,,,,,,,,,,,,,,,,,,,,,,,,,,1.24,359.2036949999747,None,360.4448069999926,None,None,1,,360.4448069999926,None,362.44436470000073,None,,,,,,,,,,,,,,,,,,,,,,,,,,,,,,,P036,FENCOG,2,Pre,2022_Apr_13_1119,N-Back (New Version 2021),2021.1.4,120.0163221904142,
Conditions/Version_2Pr/twoback(1)_v2.xlsx,New rule: Press 'space' when you see 2-back (i.e. the same letter as the one that appeared 2 letters ago.),Q,space,,,,,0,2,2,2,0,7,7,7,,,,,,,,,,,,,,,,,,,,,,,,,,,,,,,,,,,,,,,,,,,1.79,363.9443636999931,None,365.73966819999623,None,space,1,0.341732700006105,365.73966819999623,None,366.0941520999768,None,,,,,,,,,,,,,,,,,,,,,,,,,,,,,,,P036,FENCOG,2,Pre,2022_Apr_13_1119,N-Back (New Version 2021),2021.1.4,120.0163221904142,
Conditions/Version_2Pr/twoback(1)_v2.xlsx,New rule: Press 'space' when you see 2-back (i.e. the same letter as the one that appeared 2 letters ago.),L,None,,,,,0,2,2,2,0,8,8,8,,,,,,,,,,,,,,,,,,,,,,,,,,,,,,,,,,,,,,,,,,,1.415,367.601019099995,None,369.0215296999959,None,None,1,,369.0215296999959,None,371.02523449997534,None,,,,,,,,,,,,,,,,,,,,,,,,,,,,,,,P036,FENCOG,2,Pre,2022_Apr_13_1119,N-Back (New Version 2021),2021.1.4,120.0163221904142,
Conditions/Version_2Pr/twoback(1)_v2.xlsx,New rule: Press 'space' when you see 2-back (i.e. the same letter as the one that appeared 2 letters ago.),q,space,,,,,0,2,2,2,0,9,9,9,,,,,,,,,,,,,,,,,,,,,,,,,,,,,,,,,,,,,,,,,,,1.54,372.52480109999306,None,374.06577200000174,None,space,1,0.48677849999512546,374.06577200000174,None,374.56743999998434,None,,,,,,,,,,,,,,,,,,,,,,,,,,,,,,,P036,FENCOG,2,Pre,2022_Apr_13_1119,N-Back (New Version 2021),2021.1.4,120.0163221904142,
Conditions/Version_2Pr/twoback(1)_v2.xlsx,New rule: Press 'space' when you see 2-back (i.e. the same letter as the one that appeared 2 letters ago.),,,,,,,0,2,2,2,,,,,,,,,,,,,,,,,,,,,,,,,,,,,,,,,,,,,,,,,,,,,,,,,,,,,,,,,,,,,,,,,,,,,,,,,,,,,,,,,,,,,,,,,P036,FENCOG,2,Pre,2022_Apr_13_1119,N-Back (New Version 2021),2021.1.4,120.0163221904142,
Conditions/Version_2Pr/threeback(1)_v2.xlsx,New rule: Press 'space' when you see 3-back (i.e. the same letter as the one that appeared 3 letters ago.),u,None,,,,,0,3,3,3,0,0,0,0,,,,,,,,,,,,,,,,,,,,,,,,,,,,,,,,,376.09935029997723,None,379.0833961000026,None,space,1.6049835000012536,379.0833961000026,None,376.09935029997723,None,1.665,380.72001299998374,None,382.3910724000016,None,None,1,,382.3910724000016,None,384.39589230000274,None,,,,,,,,,,,,,,,,,,,,,,,,,,,,,,,P036,FENCOG,2,Pre,2022_Apr_13_1119,N-Back (New Version 2021),2021.1.4,120.0163221904142,
Conditions/Version_2Pr/threeback(1)_v2.xlsx,New rule: Press 'space' when you see 3-back (i.e. the same letter as the one that appeared 3 letters ago.),U,None,,,,,0,3,3,3,0,1,1,1,,,,,,,,,,,,,,,,,,,,,,,,,,,,,,,,,,,,,,,,,,,1.565,385.89580949998344,None,387.46540580000146,None,None,1,,387.46540580000146,None,389.46940909998375,None,,,,,,,,,,,,,,,,,,,,,,,,,,,,,,,P036,FENCOG,2,Pre,2022_Apr_13_1119,N-Back (New Version 2021),2021.1.4,120.0163221904142,
Conditions/Version_2Pr/threeback(1)_v2.xlsx,New rule: Press 'space' when you see 3-back (i.e. the same letter as the one that appeared 3 letters ago.),p,None,,,,,0,3,3,3,0,2,2,2,,,,,,,,,,,,,,,,,,,,,,,,,,,,,,,,,,,,,,,,,,,1.34,390.96932219999144,None,392.3145912999753,None,None,1,,392.3145912999753,None,394.31831989999046,None,,,,,,,,,,,,,,,,,,,,,,,,,,,,,,,P036,FENCOG,2,Pre,2022_Apr_13_1119,N-Back (New Version 2021),2021.1.4,120.0163221904142,
Conditions/Version_2Pr/threeback(1)_v2.xlsx,New rule: Press 'space' when you see 3-back (i.e. the same letter as the one that appeared 3 letters ago.),U,space,,,,,0,3,3,3,0,3,3,3,,,,,,,,,,,,,,,,,,,,,,,,,,,,,,,,,,,,,,,,,,,1.215,395.81788759998744,None,397.0339758999762,None,space,1,0.48631619999650866,397.0339758999762,None,397.53426889999537,None,,,,,,,,,,,,,,,,,,,,,,,,,,,,,,,P036,FENCOG,2,Pre,2022_Apr_13_1119,N-Back (New Version 2021),2021.1.4,120.0163221904142,
Conditions/Version_2Pr/threeback(1)_v2.xlsx,New rule: Press 'space' when you see 3-back (i.e. the same letter as the one that appeared 3 letters ago.),e,None,,,,,0,3,3,3,0,4,4,4,,,,,,,,,,,,,,,,,,,,,,,,,,,,,,,,,,,,,,,,,,,1.79,399.03345239997725,None,400.8284361999831,None,None,1,,400.8284361999831,None,402.8324547999946,None,,,,,,,,,,,,,,,,,,,,,,,,,,,,,,,P036,FENCOG,2,Pre,2022_Apr_13_1119,N-Back (New Version 2021),2021.1.4,120.0163221904142,
Conditions/Version_2Pr/threeback(1)_v2.xlsx,New rule: Press 'space' when you see 3-back (i.e. the same letter as the one that appeared 3 letters ago.),R,None,,,,,0,3,3,3,0,5,5,5,,,,,,,,,,,,,,,,,,,,,,,,,,,,,,,,,,,,,,,,,,,1.29,404.33202899998287,None,405.6241655999911,None,None,1,,405.6241655999911,None,407.631043899979,None,,,,,,,,,,,,,,,,,,,,,,,,,,,,,,,P036,FENCOG,2,Pre,2022_Apr_13_1119,N-Back (New Version 2021),2021.1.4,120.0163221904142,
Conditions/Version_2Pr/threeback(1)_v2.xlsx,New rule: Press 'space' when you see 3-back (i.e. the same letter as the one that appeared 3 letters ago.),p,None,,,,,0,3,3,3,0,6,6,6,,,,,,,,,,,,,,,,,,,,,,,,,,,,,,,,,,,,,,,,,,,1.39,409.1305558999884,None,410.5269188999955,None,None,1,,410.5269188999955,None,412.52967189997435,None,,,,,,,,,,,,,,,,,,,,,,,,,,,,,,,P036,FENCOG,2,Pre,2022_Apr_13_1119,N-Back (New Version 2021),2021.1.4,120.0163221904142,
Conditions/Version_2Pr/threeback(1)_v2.xlsx,New rule: Press 'space' when you see 3-back (i.e. the same letter as the one that appeared 3 letters ago.),E,space,,,,,0,3,3,3,0,7,7,7,,,,,,,,,,,,,,,,,,,,,,,,,,,,,,,,,,,,,,,,,,,1.84,414.02909389999695,None,415.8733663999883,None,space,1,0.3511646999977529,415.8733663999883,None,416.2373663999897,None,,,,,,,,,,,,,,,,,,,,,,,,,,,,,,,P036,FENCOG,2,Pre,2022_Apr_13_1119,N-Back (New Version 2021),2021.1.4,120.0163221904142,
Conditions/Version_2Pr/threeback(1)_v2.xlsx,New rule: Press 'space' when you see 3-back (i.e. the same letter as the one that appeared 3 letters ago.),k,None,,,,,0,3,3,3,0,8,8,8,,,,,,,,,,,,,,,,,,,,,,,,,,,,,,,,,,,,,,,,,,,1.915,417.73618979999446,None,419.6541472999961,None,None,1,,419.6541472999961,None,421.6600372999965,None,,,,,,,,,,,,,,,,,,,,,,,,,,,,,,,P036,FENCOG,2,Pre,2022_Apr_13_1119,N-Back (New Version 2021),2021.1.4,120.0163221904142,
Conditions/Version_2Pr/threeback(1)_v2.xlsx,New rule: Press 'space' when you see 3-back (i.e. the same letter as the one that appeared 3 letters ago.),m,None,,,,,0,3,3,3,0,9,9,9,,,,,,,,,,,,,,,,,,,,,,,,,,,,,,,,,,,,,,,,,,,1.89,423.1598118999973,None,425.05467959999805,None,None,1,,425.05467959999805,None,427.0585797999811,None,,,,,,,,,,,,,,,,,,,,,,,,,,,,,,,P036,FENCOG,2,Pre,2022_Apr_13_1119,N-Back (New Version 2021),2021.1.4,120.0163221904142,
Conditions/Version_2Pr/threeback(1)_v2.xlsx,New rule: Press 'space' when you see 3-back (i.e. the same letter as the one that appeared 3 letters ago.),,,,,,,0,3,3,3,,,,,,,,,,,,,,,,,,,,,,,,,,,,,,,,,,,,,,,,,,,,,,,,,,,,,,,,,,,,,,,,,,,,,,,,,,,,,,,,,,,,,,,,,P036,FENCOG,2,Pre,2022_Apr_13_1119,N-Back (New Version 2021),2021.1.4,120.0163221904142,
,,,,,,,,,,,,,,,,,,,,,,,,,,,,,,,,,,,,,,,,,,,,,,,,,,,,,,,,,,,,,,,,,,,,,,428.5655731000006,None,space,37.230140100000426,429.0582935999846,None,,,,,,,,,,,,,,,,,,,,,,,,,P036,FENCOG,2,Pre,2022_Apr_13_1119,N-Back (New Version 2021),2021.1.4,120.0163221904142,
,,,,,,,,,,,,,,,,,,,,,,,,,,,,,,,,,,,,,,,,,,,,,,,,,,,,,,,,,,,,,,,,,,,,,,,,,,,,466.31344729999546,None,space,2.706756800005678,466.8057751999877,None,,,,,,,,,,,,,,,,,,,P036,FENCOG,2,Pre,2022_Apr_13_1119,N-Back (New Version 2021),2021.1.4,120.0163221904142,
,,,,Conditions/Version_1/zeroback(1)_v1.xlsx,Rule: Press 'space' when you see the letter 'x' or 'X'.,b,None,,,,,,,,,0,0,0,0,0,0,0,0,,,,,,,,,,,,,,,,,,,,,,,,,,,,,,,,,,,,,,,,,,,,,,,,,,,,,,,,,,,469.63227939998615,None,472.6229966999963,None,space,0.7852395999943838,472.6229966999963,None,469.63227939998615,None,1.4936,474.93759399998817,None,None,1,474.93759399998817,None,,P036,FENCOG,2,Pre,2022_Apr_13_1119,N-Back (New Version 2021),2021.1.4,120.0163221904142,
,,,,Conditions/Version_1/zeroback(1)_v1.xlsx,Rule: Press 'space' when you see the letter 'x' or 'X'.,T,None,,,,,,,,,0,0,0,0,0,1,1,1,,,,,,,,,,,,,,,,,,,,,,,,,,,,,,,,,,,,,,,,,,,,,,,,,,,,,,,,,,,,,,,,,,,,,1.4812,478.42964979997487,None,None,1,478.42964979997487,None,,P036,FENCOG,2,Pre,2022_Apr_13_1119,N-Back (New Version 2021),2021.1.4,120.0163221904142,
,,,,Conditions/Version_1/zeroback(1)_v1.xlsx,Rule: Press 'space' when you see the letter 'x' or 'X'.,L,None,,,,,,,,,0,0,0,0,0,2,2,2,,,,,,,,,,,,,,,,,,,,,,,,,,,,,,,,,,,,,,,,,,,,,,,,,,,,,,,,,,,,,,,,,,,,,1.0472,481.483980399993,None,None,1,481.483980399993,None,,P036,FENCOG,2,Pre,2022_Apr_13_1119,N-Back (New Version 2021),2021.1.4,120.0163221904142,
,,,,Conditions/Version_1/zeroback(1)_v1.xlsx,Rule: Press 'space' when you see the letter 'x' or 'X'.,x,space,,,,,,,,,0,0,0,0,0,3,3,3,,,,,,,,,,,,,,,,,,,,,,,,,,,,,,,,,,,,,,,,,,,,,,,,,,,,,,,,,,,,,,,,,,,,,1.1154,484.6010333999875,None,space,1,484.6010333999875,None,1.4157204999937676,P036,FENCOG,2,Pre,2022_Apr_13_1119,N-Back (New Version 2021),2021.1.4,120.0163221904142,
,,,,Conditions/Version_1/zeroback(1)_v1.xlsx,Rule: Press 'space' when you see the letter 'x' or 'X'.,o,None,,,,,,,,,0,0,0,0,0,4,4,4,,,,,,,,,,,,,,,,,,,,,,,,,,,,,,,,,,,,,,,,,,,,,,,,,,,,,,,,,,,,,,,,,,,,,1.6672,488.2737890999997,None,None,1,488.2737890999997,None,,P036,FENCOG,2,Pre,2022_Apr_13_1119,N-Back (New Version 2021),2021.1.4,120.0163221904142,
,,,,Conditions/Version_1/zeroback(1)_v1.xlsx,Rule: Press 'space' when you see the letter 'x' or 'X'.,P,None,,,,,,,,,0,0,0,0,0,5,5,5,,,,,,,,,,,,,,,,,,,,,,,,,,,,,,,,,,,,,,,,,,,,,,,,,,,,,,,,,,,,,,,,,,,,,1.878,492.1559857999964,None,None,1,492.1559857999964,None,,P036,FENCOG,2,Pre,2022_Apr_13_1119,N-Back (New Version 2021),2021.1.4,120.0163221904142,
,,,,Conditions/Version_1/zeroback(1)_v1.xlsx,Rule: Press 'space' when you see the letter 'x' or 'X'.,X,space,,,,,,,,,0,0,0,0,0,6,6,6,,,,,,,,,,,,,,,,,,,,,,,,,,,,,,,,,,,,,,,,,,,,,,,,,,,,,,,,,,,,,,,,,,,,,1.9896,496.14753799999016,None,space,1,496.14753799999016,None,0.788862599991262,P036,FENCOG,2,Pre,2022_Apr_13_1119,N-Back (New Version 2021),2021.1.4,120.0163221904142,
,,,,Conditions/Version_1/zeroback(1)_v1.xlsx,Rule: Press 'space' when you see the letter 'x' or 'X'.,n,None,,,,,,,,,0,0,0,0,0,7,7,7,,,,,,,,,,,,,,,,,,,,,,,,,,,,,,,,,,,,,,,,,,,,,,,,,,,,,,,,,,,,,,,,,,,,,1.0348,499.1965744999761,None,None,1,499.1965744999761,None,,P036,FENCOG,2,Pre,2022_Apr_13_1119,N-Back (New Version 2021),2021.1.4,120.0163221904142,
,,,,Conditions/Version_1/zeroback(1)_v1.xlsx,Rule: Press 'space' when you see the letter 'x' or 'X'.,M,None,,,,,,,,,0,0,0,0,0,8,8,8,,,,,,,,,,,,,,,,,,,,,,,,,,,,,,,,,,,,,,,,,,,,,,,,,,,,,,,,,,,,,,,,,,,,,1.134,502.33868299997994,None,None,1,502.33868299997994,None,,P036,FENCOG,2,Pre,2022_Apr_13_1119,N-Back (New Version 2021),2021.1.4,120.0163221904142,
,,,,Conditions/Version_1/zeroback(1)_v1.xlsx,Rule: Press 'space' when you see the letter 'x' or 'X'.,a,None,,,,,,,,,0,0,0,0,0,9,9,9,,,,,,,,,,,,,,,,,,,,,,,,,,,,,,,,,,,,,,,,,,,,,,,,,,,,,,,,,,,,,,,,,,,,,1.9834,506.3303820999863,None,None,1,506.3303820999863,None,,P036,FENCOG,2,Pre,2022_Apr_13_1119,N-Back (New Version 2021),2021.1.4,120.0163221904142,
,,,,Conditions/Version_1/zeroback(1)_v1.xlsx,Rule: Press 'space' when you see the letter 'x' or 'X'.,,,,,,,,,,,0,0,0,0,,,,,,,,,,,,,,,,,,,,,,,,,,,,,,,,,,,,,,,,,,,,,,,,,,,,,,,,,,,,,,,,,,,,,,,,,,,,,,,,,P036,FENCOG,2,Pre,2022_Apr_13_1119,N-Back (New Version 2021),2021.1.4,120.0163221904142,
,,,,Conditions/Version_1/oneback(1)_v1.xlsx,New rule: Press 'space' when you see 1-back (i.e. the same letter as the one that appeared 1 letter ago.),b,None,,,,,,,,,0,1,1,1,0,0,0,0,,,,,,,,,,,,,,,,,,,,,,,,,,,,,,,,,,,,,,,,,,,,,,,,,,,,,,,,,,,508.3555264000024,None,511.3433990999765,None,space,0.24075919997994788,511.3433990999765,None,508.3555264000024,None,1.8222,513.441359199991,None,None,1,513.441359199991,None,,P036,FENCOG,2,Pre,2022_Apr_13_1119,N-Back (New Version 2021),2021.1.4,120.0163221904142,
,,,,Conditions/Version_1/oneback(1)_v1.xlsx,New rule: Press 'space' when you see 1-back (i.e. the same letter as the one that appeared 1 letter ago.),p,None,,,,,,,,,0,1,1,1,0,1,1,1,,,,,,,,,,,,,,,,,,,,,,,,,,,,,,,,,,,,,,,,,,,,,,,,,,,,,,,,,,,,,,,,,,,,,1.1464,516.590409299999,None,None,1,516.590409299999,None,,P036,FENCOG,2,Pre,2022_Apr_13_1119,N-Back (New Version 2021),2021.1.4,120.0163221904142,
,,,,Conditions/Version_1/oneback(1)_v1.xlsx,New rule: Press 'space' when you see 1-back (i.e. the same letter as the one that appeared 1 letter ago.),M,None,,,,,,,,,0,1,1,1,0,2,2,2,,,,,,,,,,,,,,,,,,,,,,,,,,,,,,,,,,,,,,,,,,,,,,,,,,,,,,,,,,,,,,,,,,,,,1.5618,520.1561014999752,None,None,1,520.1561014999752,None,,P036,FENCOG,2,Pre,2022_Apr_13_1119,N-Back (New Version 2021),2021.1.4,120.0163221904142,
,,,,Conditions/Version_1/oneback(1)_v1.xlsx,New rule: Press 'space' when you see 1-back (i.e. the same letter as the one that appeared 1 letter ago.),M,space,,,,,,,,,0,1,1,1,0,3,3,3,,,,,,,,,,,,,,,,,,,,,,,,,,,,,,,,,,,,,,,,,,,,,,,,,,,,,,,,,,,,,,,,,,,,,1.2518,523.4133149999834,None,space,1,523.4133149999834,None,0.37098730000434443,P036,FENCOG,2,Pre,2022_Apr_13_1119,N-Back (New Version 2021),2021.1.4,120.0163221904142,
,,,,Conditions/Version_1/oneback(1)_v1.xlsx,New rule: Press 'space' when you see 1-back (i.e. the same letter as the one that appeared 1 letter ago.),n,None,,,,,,,,,0,1,1,1,0,4,4,4,,,,,,,,,,,,,,,,,,,,,,,,,,,,,,,,,,,,,,,,,,,,,,,,,,,,,,,,,,,,,,,,,,,,,1.3138,526.7345582999988,None,None,1,526.7345582999988,None,,P036,FENCOG,2,Pre,2022_Apr_13_1119,N-Back (New Version 2021),2021.1.4,120.0163221904142,
,,,,Conditions/Version_1/oneback(1)_v1.xlsx,New rule: Press 'space' when you see 1-back (i.e. the same letter as the one that appeared 1 letter ago.),g,None,,,,,,,,,0,1,1,1,0,5,5,5,,,,,,,,,,,,,,,,,,,,,,,,,,,,,,,,,,,,,,,,,,,,,,,,,,,,,,,,,,,,,,,,,,,,,1.6052,530.3463279999851,None,None,1,530.3463279999851,None,,P036,FENCOG,2,Pre,2022_Apr_13_1119,N-Back (New Version 2021),2021.1.4,120.0163221904142,
,,,,Conditions/Version_1/oneback(1)_v1.xlsx,New rule: Press 'space' when you see 1-back (i.e. the same letter as the one that appeared 1 letter ago.),P,None,,,,,,,,,0,1,1,1,0,6,6,6,,,,,,,,,,,,,,,,,,,,,,,,,,,,,,,,,,,,,,,,,,,,,,,,,,,,,,,,,,,,,,,,,,,,,1.7974,534.155052999995,None,None,1,534.155052999995,None,,P036,FENCOG,2,Pre,2022_Apr_13_1119,N-Back (New Version 2021),2021.1.4,120.0163221904142,
,,,,Conditions/Version_1/oneback(1)_v1.xlsx,New rule: Press 'space' when you see 1-back (i.e. the same letter as the one that appeared 1 letter ago.),o,None,,,,,,,,,0,1,1,1,0,7,7,7,,,,,,,,,,,,,,,,,,,,,,,,,,,,,,,,,,,,,,,,,,,,,,,,,,,,,,,,,,,,,,,,,,,,,1.754,537.9174531999743,None,None,1,537.9174531999743,None,,P036,FENCOG,2,Pre,2022_Apr_13_1119,N-Back (New Version 2021),2021.1.4,120.0163221904142,
,,,,Conditions/Version_1/oneback(1)_v1.xlsx,New rule: Press 'space' when you see 1-back (i.e. the same letter as the one that appeared 1 letter ago.),f,None,,,,,,,,,0,1,1,1,0,8,8,8,,,,,,,,,,,,,,,,,,,,,,,,,,,,,,,,,,,,,,,,,,,,,,,,,,,,,,,,,,,,,,,,,,,,,1.32,541.2418806999922,None,None,1,541.2418806999922,None,,P036,FENCOG,2,Pre,2022_Apr_13_1119,N-Back (New Version 2021),2021.1.4,120.0163221904142,
,,,,Conditions/Version_1/oneback(1)_v1.xlsx,New rule: Press 'space' when you see 1-back (i.e. the same letter as the one that appeared 1 letter ago.),F,space,,,,,,,,,0,1,1,1,0,9,9,9,,,,,,,,,,,,,,,,,,,,,,,,,,,,,,,,,,,,,,,,,,,,,,,,,,,,,,,,,,,,,,,,,,,,,1.227,544.4756019999913,None,space,1,544.4756019999913,None,0.3249606000026688,P036,FENCOG,2,Pre,2022_Apr_13_1119,N-Back (New Version 2021),2021.1.4,120.0163221904142,
,,,,Conditions/Version_1/oneback(1)_v1.xlsx,New rule: Press 'space' when you see 1-back (i.e. the same letter as the one that appeared 1 letter ago.),,,,,,,,,,,0,1,1,1,,,,,,,,,,,,,,,,,,,,,,,,,,,,,,,,,,,,,,,,,,,,,,,,,,,,,,,,,,,,,,,,,,,,,,,,,,,,,,,,,P036,FENCOG,2,Pre,2022_Apr_13_1119,N-Back (New Version 2021),2021.1.4,120.0163221904142,
,,,,Conditions/Version_1/twoback(1)_v1.xlsx,New rule: Press 'space' when you see 2-back (i.e. the same letter as the one that appeared 2 letters ago.),b,None,,,,,,,,,0,2,2,2,0,0,0,0,,,,,,,,,,,,,,,,,,,,,,,,,,,,,,,,,,,,,,,,,,,,,,,,,,,,,,,,,,,546.5021082999883,None,549.4831589999958,None,space,0.485323500004597,549.4831589999958,None,546.5021082999883,None,1.9772,551.9799904999963,None,None,1,551.9799904999963,None,,P036,FENCOG,2,Pre,2022_Apr_13_1119,N-Back (New Version 2021),2021.1.4,120.0163221904142,
,,,,Conditions/Version_1/twoback(1)_v1.xlsx,New rule: Press 'space' when you see 2-back (i.e. the same letter as the one that appeared 2 letters ago.),h,None,,,,,,,,,0,2,2,2,0,1,1,1,,,,,,,,,,,,,,,,,,,,,,,,,,,,,,,,,,,,,,,,,,,,,,,,,,,,,,,,,,,,,,,,,,,,,1.3262,555.3151835000026,None,None,1,555.3151835000026,None,,P036,FENCOG,2,Pre,2022_Apr_13_1119,N-Back (New Version 2021),2021.1.4,120.0163221904142,
,,,,Conditions/Version_1/twoback(1)_v1.xlsx,New rule: Press 'space' when you see 2-back (i.e. the same letter as the one that appeared 2 letters ago.),j,None,,,,,,,,,0,2,2,2,0,2,2,2,,,,,,,,,,,,,,,,,,,,,,,,,,,,,,,,,,,,,,,,,,,,,,,,,,,,,,,,,,,,,,,,,,,,,1.4254,558.7474901999813,None,None,1,558.7474901999813,None,,P036,FENCOG,2,Pre,2022_Apr_13_1119,N-Back (New Version 2021),2021.1.4,120.0163221904142,
,,,,Conditions/Version_1/twoback(1)_v1.xlsx,New rule: Press 'space' when you see 2-back (i.e. the same letter as the one that appeared 2 letters ago.),H,space,,,,,,,,,0,2,2,2,0,3,3,3,,,,,,,,,,,,,,,,,,,,,,,,,,,,,,,,,,,,,,,,,,,,,,,,,,,,,,,,,,,,,,,,,,,,,1.8036,562.5618759999925,None,space,1,562.5618759999925,None,0.3985116000112612,P036,FENCOG,2,Pre,2022_Apr_13_1119,N-Back (New Version 2021),2021.1.4,120.0163221904142,
,,,,Conditions/Version_1/twoback(1)_v1.xlsx,New rule: Press 'space' when you see 2-back (i.e. the same letter as the one that appeared 2 letters ago.),p,None,,,,,,,,,0,2,2,2,0,4,4,4,,,,,,,,,,,,,,,,,,,,,,,,,,,,,,,,,,,,,,,,,,,,,,,,,,,,,,,,,,,,,,,,,,,,,1.4998,566.0674533999991,None,None,1,566.0674533999991,None,,P036,FENCOG,2,Pre,2022_Apr_13_1119,N-Back (New Version 2021),2021.1.4,120.0163221904142,
,,,,Conditions/Version_1/twoback(1)_v1.xlsx,New rule: Press 'space' when you see 2-back (i.e. the same letter as the one that appeared 2 letters ago.),p,None,,,,,,,,,0,2,2,2,0,5,5,5,,,,,,,,,,,,,,,,,,,,,,,,,,,,,,,,,,,,,,,,,,,,,,,,,,,,,,,,,,,,,,,,,,,,,1.1712,569.2418181999819,None,space,0,569.2418181999819,None,0.5346429999917746,P036,FENCOG,2,Pre,2022_Apr_13_1119,N-Back (New Version 2021),2021.1.4,120.0163221904142,
,,,,Conditions/Version_1/twoback(1)_v1.xlsx,New rule: Press 'space' when you see 2-back (i.e. the same letter as the one that appeared 2 letters ago.),w,None,,,,,,,,,0,2,2,2,0,6,6,6,,,,,,,,,,,,,,,,,,,,,,,,,,,,,,,,,,,,,,,,,,,,,,,,,,,,,,,,,,,,,,,,,,,,,1.6238,572.8673778999946,None,None,1,572.8673778999946,None,,P036,FENCOG,2,Pre,2022_Apr_13_1119,N-Back (New Version 2021),2021.1.4,120.0163221904142,
,,,,Conditions/Version_1/twoback(1)_v1.xlsx,New rule: Press 'space' when you see 2-back (i.e. the same letter as the one that appeared 2 letters ago.),R,None,,,,,,,,,0,2,2,2,0,7,7,7,,,,,,,,,,,,,,,,,,,,,,,,,,,,,,,,,,,,,,,,,,,,,,,,,,,,,,,,,,,,,,,,,,,,,1.9648,576.8392064999789,None,None,1,576.8392064999789,None,,P036,FENCOG,2,Pre,2022_Apr_13_1119,N-Back (New Version 2021),2021.1.4,120.0163221904142,
,,,,Conditions/Version_1/twoback(1)_v1.xlsx,New rule: Press 'space' when you see 2-back (i.e. the same letter as the one that appeared 2 letters ago.),a,None,,,,,,,,,0,2,2,2,0,8,8,8,,,,,,,,,,,,,,,,,,,,,,,,,,,,,,,,,,,,,,,,,,,,,,,,,,,,,,,,,,,,,,,,,,,,,1.6796,580.5225047999993,None,None,1,580.5225047999993,None,,P036,FENCOG,2,Pre,2022_Apr_13_1119,N-Back (New Version 2021),2021.1.4,120.0163221904142,
,,,,Conditions/Version_1/twoback(1)_v1.xlsx,New rule: Press 'space' when you see 2-back (i.e. the same letter as the one that appeared 2 letters ago.),r,space,,,,,,,,,0,2,2,2,0,9,9,9,,,,,,,,,,,,,,,,,,,,,,,,,,,,,,,,,,,,,,,,,,,,,,,,,,,,,,,,,,,,,,,,,,,,,1.289,583.8218712999951,None,space,1,583.8218712999951,None,0.4345544000098016,P036,FENCOG,2,Pre,2022_Apr_13_1119,N-Back (New Version 2021),2021.1.4,120.0163221904142,
,,,,Conditions/Version_1/twoback(1)_v1.xlsx,New rule: Press 'space' when you see 2-back (i.e. the same letter as the one that appeared 2 letters ago.),,,,,,,,,,,0,2,2,2,,,,,,,,,,,,,,,,,,,,,,,,,,,,,,,,,,,,,,,,,,,,,,,,,,,,,,,,,,,,,,,,,,,,,,,,,,,,,,,,,P036,FENCOG,2,Pre,2022_Apr_13_1119,N-Back (New Version 2021),2021.1.4,120.0163221904142,
,,,,Conditions/Version_1/threeback(1)_v1.xlsx,New rule: Press 'space' when you see 3-back (i.e. the same letter as the one that appeared 3 letters ago.),r,None,,,,,,,,,0,3,3,3,0,0,0,0,,,,,,,,,,,,,,,,,,,,,,,,,,,,,,,,,,,,,,,,,,,,,,,,,,,,,,,,,,,585.8456929999811,None,588.8298452000017,None,space,0.0824317000224255,588.8298452000017,None,585.8456929999811,None,1.0596,590.0105352999817,None,None,1,590.0105352999817,None,,P036,FENCOG,2,Pre,2022_Apr_13_1119,N-Back (New Version 2021),2021.1.4,120.0163221904142,
,,,,Conditions/Version_1/threeback(1)_v1.xlsx,New rule: Press 'space' when you see 3-back (i.e. the same letter as the one that appeared 3 letters ago.),o,None,,,,,,,,,0,3,3,3,0,1,1,1,,,,,,,,,,,,,,,,,,,,,,,,,,,,,,,,,,,,,,,,,,,,,,,,,,,,,,,,,,,,,,,,,,,,,1.2332,593.2428342999774,None,None,1,593.2428342999774,None,,P036,FENCOG,2,Pre,2022_Apr_13_1119,N-Back (New Version 2021),2021.1.4,120.0163221904142,
,,,,Conditions/Version_1/threeback(1)_v1.xlsx,New rule: Press 'space' when you see 3-back (i.e. the same letter as the one that appeared 3 letters ago.),P,None,,,,,,,,,0,3,3,3,0,2,2,2,,,,,,,,,,,,,,,,,,,,,,,,,,,,,,,,,,,,,,,,,,,,,,,,,,,,,,,,,,,,,,,,,,,,,1.6238,596.877124599996,None,None,1,596.877124599996,None,,P036,FENCOG,2,Pre,2022_Apr_13_1119,N-Back (New Version 2021),2021.1.4,120.0163221904142,
,,,,Conditions/Version_1/threeback(1)_v1.xlsx,New rule: Press 'space' when you see 3-back (i.e. the same letter as the one that appeared 3 letters ago.),R,space,,,,,,,,,0,3,3,3,0,3,3,3,,,,,,,,,,,,,,,,,,,,,,,,,,,,,,,,,,,,,,,,,,,,,,,,,,,,,,,,,,,,,,,,,,,,,1.63,600.515542899986,None,space,1,600.515542899986,None,0.4527638000145089,P036,FENCOG,2,Pre,2022_Apr_13_1119,N-Back (New Version 2021),2021.1.4,120.0163221904142,
,,,,Conditions/Version_1/threeback(1)_v1.xlsx,New rule: Press 'space' when you see 3-back (i.e. the same letter as the one that appeared 3 letters ago.),p,None,,,,,,,,,0,3,3,3,0,4,4,4,,,,,,,,,,,,,,,,,,,,,,,,,,,,,,,,,,,,,,,,,,,,,,,,,,,,,,,,,,,,,,,,,,,,,1.6672,604.189512699988,None,space,0,604.189512699988,None,0.7067171999951825,P036,FENCOG,2,Pre,2022_Apr_13_1119,N-Back (New Version 2021),2021.1.4,120.0163221904142,
,,,,Conditions/Version_1/threeback(1)_v1.xlsx,New rule: Press 'space' when you see 3-back (i.e. the same letter as the one that appeared 3 letters ago.),E,None,,,,,,,,,0,3,3,3,0,5,5,5,,,,,,,,,,,,,,,,,,,,,,,,,,,,,,,,,,,,,,,,,,,,,,,,,,,,,,,,,,,,,,,,,,,,,1.5184,607.7144700999779,None,None,1,607.7144700999779,None,,P036,FENCOG,2,Pre,2022_Apr_13_1119,N-Back (New Version 2021),2021.1.4,120.0163221904142,
,,,,Conditions/Version_1/threeback(1)_v1.xlsx,New rule: Press 'space' when you see 3-back (i.e. the same letter as the one that appeared 3 letters ago.),e,None,,,,,,,,,0,3,3,3,0,6,6,6,,,,,,,,,,,,,,,,,,,,,,,,,,,,,,,,,,,,,,,,,,,,,,,,,,,,,,,,,,,,,,,,,,,,,1.8284,611.5559118999809,None,None,1,611.5559118999809,None,,P036,FENCOG,2,Pre,2022_Apr_13_1119,N-Back (New Version 2021),2021.1.4,120.0163221904142,
,,,,Conditions/Version_1/threeback(1)_v1.xlsx,New rule: Press 'space' when you see 3-back (i.e. the same letter as the one that appeared 3 letters ago.),m,None,,,,,,,,,0,3,3,3,0,7,7,7,,,,,,,,,,,,,,,,,,,,,,,,,,,,,,,,,,,,,,,,,,,,,,,,,,,,,,,,,,,,,,,,,,,,,1.3324,614.8971727000026,None,None,1,614.8971727000026,None,,P036,FENCOG,2,Pre,2022_Apr_13_1119,N-Back (New Version 2021),2021.1.4,120.0163221904142,
,,,,Conditions/Version_1/threeback(1)_v1.xlsx,New rule: Press 'space' when you see 3-back (i.e. the same letter as the one that appeared 3 letters ago.),n,None,,,,,,,,,0,3,3,3,0,8,8,8,,,,,,,,,,,,,,,,,,,,,,,,,,,,,,,,,,,,,,,,,,,,,,,,,,,,,,,,,,,,,,,,,,,,,1.94,618.8455786999839,None,None,1,618.8455786999839,None,,P036,FENCOG,2,Pre,2022_Apr_13_1119,N-Back (New Version 2021),2021.1.4,120.0163221904142,
,,,,Conditions/Version_1/threeback(1)_v1.xlsx,New rule: Press 'space' when you see 3-back (i.e. the same letter as the one that appeared 3 letters ago.),e,space,,,,,,,,,0,3,3,3,0,9,9,9,,,,,,,,,,,,,,,,,,,,,,,,,,,,,,,,,,,,,,,,,,,,,,,,,,,,,,,,,,,,,,,,,,,,,1.7292,622.5840896999871,None,space,1,622.5840896999871,None,0.3762941999884788,P036,FENCOG,2,Pre,2022_Apr_13_1119,N-Back (New Version 2021),2021.1.4,120.0163221904142,
,,,,Conditions/Version_1/threeback(1)_v1.xlsx,New rule: Press 'space' when you see 3-back (i.e. the same letter as the one that appeared 3 letters ago.),,,,,,,,,,,0,3,3,3,,,,,,,,,,,,,,,,,,,,,,,,,,,,,,,,,,,,,,,,,,,,,,,,,,,,,,,,,,,,,,,,,,,,,,,,,,,,,,,,,P036,FENCOG,2,Pre,2022_Apr_13_1119,N-Back (New Version 2021),2021.1.4,120.0163221904142,
,,,,Conditions/Version_1/oneback(2)_v1.xlsx,New rule: Press 'space' when you see 1-back (i.e. the same letter as the one that appeared 1 letter ago.),q,None,,,,,,,,,0,4,4,4,0,0,0,0,,,,,,,,,,,,,,,,,,,,,,,,,,,,,,,,,,,,,,,,,,,,,,,,,,,,,,,,,,,624.6108062999847,None,627.5925985999929,None,space,2.7196044999873266,627.5925985999929,None,624.6108062999847,None,1.2952,631.6409910999937,None,None,1,631.6409910999937,None,,P036,FENCOG,2,Pre,2022_Apr_13_1119,N-Back (New Version 2021),2021.1.4,120.0163221904142,
,,,,Conditions/Version_1/oneback(2)_v1.xlsx,New rule: Press 'space' when you see 1-back (i.e. the same letter as the one that appeared 1 letter ago.),Q,space,,,,,,,,,0,4,4,4,0,1,1,1,,,,,,,,,,,,,,,,,,,,,,,,,,,,,,,,,,,,,,,,,,,,,,,,,,,,,,,,,,,,,,,,,,,,,1.5494,635.197032600001,None,space,1,635.197032600001,None,0.3715303000062704,P036,FENCOG,2,Pre,2022_Apr_13_1119,N-Back (New Version 2021),2021.1.4,120.0163221904142,
,,,,Conditions/Version_1/oneback(2)_v1.xlsx,New rule: Press 'space' when you see 1-back (i.e. the same letter as the one that appeared 1 letter ago.),P,None,,,,,,,,,0,4,4,4,0,2,2,2,,,,,,,,,,,,,,,,,,,,,,,,,,,,,,,,,,,,,,,,,,,,,,,,,,,,,,,,,,,,,,,,,,,,,1.2828,638.4805062999949,None,None,1,638.4805062999949,None,,P036,FENCOG,2,Pre,2022_Apr_13_1119,N-Back (New Version 2021),2021.1.4,120.0163221904142,
,,,,Conditions/Version_1/oneback(2)_v1.xlsx,New rule: Press 'space' when you see 1-back (i.e. the same letter as the one that appeared 1 letter ago.),o,None,,,,,,,,,0,4,4,4,0,3,3,3,,,,,,,,,,,,,,,,,,,,,,,,,,,,,,,,,,,,,,,,,,,,,,,,,,,,,,,,,,,,,,,,,,,,,1.7664,642.2532370999979,None,None,1,642.2532370999979,None,,P036,FENCOG,2,Pre,2022_Apr_13_1119,N-Back (New Version 2021),2021.1.4,120.0163221904142,
,,,,Conditions/Version_1/oneback(2)_v1.xlsx,New rule: Press 'space' when you see 1-back (i.e. the same letter as the one that appeared 1 letter ago.),m,None,,,,,,,,,0,4,4,4,0,4,4,4,,,,,,,,,,,,,,,,,,,,,,,,,,,,,,,,,,,,,,,,,,,,,,,,,,,,,,,,,,,,,,,,,,,,,1.0596,645.3200141999987,None,None,1,645.3200141999987,None,,P036,FENCOG,2,Pre,2022_Apr_13_1119,N-Back (New Version 2021),2021.1.4,120.0163221904142,
,,,,Conditions/Version_1/oneback(2)_v1.xlsx,New rule: Press 'space' when you see 1-back (i.e. the same letter as the one that appeared 1 letter ago.),Z,None,,,,,,,,,0,4,4,4,0,5,5,5,,,,,,,,,,,,,,,,,,,,,,,,,,,,,,,,,,,,,,,,,,,,,,,,,,,,,,,,,,,,,,,,,,,,,1.4998,648.8295100999821,None,None,1,648.8295100999821,None,,P036,FENCOG,2,Pre,2022_Apr_13_1119,N-Back (New Version 2021),2021.1.4,120.0163221904142,
,,,,Conditions/Version_1/oneback(2)_v1.xlsx,New rule: Press 'space' when you see 1-back (i.e. the same letter as the one that appeared 1 letter ago.),c,None,,,,,,,,,0,4,4,4,0,6,6,6,,,,,,,,,,,,,,,,,,,,,,,,,,,,,,,,,,,,,,,,,,,,,,,,,,,,,,,,,,,,,,,,,,,,,1.94,652.7770728999749,None,None,1,652.7770728999749,None,,P036,FENCOG,2,Pre,2022_Apr_13_1119,N-Back (New Version 2021),2021.1.4,120.0163221904142,
,,,,Conditions/Version_1/oneback(2)_v1.xlsx,New rule: Press 'space' when you see 1-back (i.e. the same letter as the one that appeared 1 letter ago.),c,space,,,,,,,,,0,4,4,4,0,7,7,7,,,,,,,,,,,,,,,,,,,,,,,,,,,,,,,,,,,,,,,,,,,,,,,,,,,,,,,,,,,,,,,,,,,,,1.3572,656.140931699978,None,space,1,656.140931699978,None,0.5233401999867056,P036,FENCOG,2,Pre,2022_Apr_13_1119,N-Back (New Version 2021),2021.1.4,120.0163221904142,
,,,,Conditions/Version_1/oneback(2)_v1.xlsx,New rule: Press 'space' when you see 1-back (i.e. the same letter as the one that appeared 1 letter ago.),P,None,,,,,,,,,0,4,4,4,0,8,8,8,,,,,,,,,,,,,,,,,,,,,,,,,,,,,,,,,,,,,,,,,,,,,,,,,,,,,,,,,,,,,,,,,,,,,1.0348,659.1815881999792,None,None,1,659.1815881999792,None,,P036,FENCOG,2,Pre,2022_Apr_13_1119,N-Back (New Version 2021),2021.1.4,120.0163221904142,
,,,,Conditions/Version_1/oneback(2)_v1.xlsx,New rule: Press 'space' when you see 1-back (i.e. the same letter as the one that appeared 1 letter ago.),p,space,,,,,,,,,0,4,4,4,0,9,9,9,,,,,,,,,,,,,,,,,,,,,,,,,,,,,,,,,,,,,,,,,,,,,,,,,,,,,,,,,,,,,,,,,,,,,1.3882,662.5750001999841,None,space,1,662.5750001999841,None,0.3692377000115812,P036,FENCOG,2,Pre,2022_Apr_13_1119,N-Back (New Version 2021),2021.1.4,120.0163221904142,
,,,,Conditions/Version_1/oneback(2)_v1.xlsx,New rule: Press 'space' when you see 1-back (i.e. the same letter as the one that appeared 1 letter ago.),,,,,,,,,,,0,4,4,4,,,,,,,,,,,,,,,,,,,,,,,,,,,,,,,,,,,,,,,,,,,,,,,,,,,,,,,,,,,,,,,,,,,,,,,,,,,,,,,,,P036,FENCOG,2,Pre,2022_Apr_13_1119,N-Back (New Version 2021),2021.1.4,120.0163221904142,
,,,,Conditions/Version_1/zeroback(2)_v1.xlsx,New rule: Press 'space' when you see the letter 'x' or 'X'.,p,None,,,,,,,,,0,5,5,5,0,0,0,0,,,,,,,,,,,,,,,,,,,,,,,,,,,,,,,,,,,,,,,,,,,,,,,,,,,,,,,,,,,664.5991663000023,None,667.5896186999744,None,space,0.6587820000131615,667.5896186999744,None,664.5991663000023,None,1.1402,669.4297184000025,None,None,1,669.4297184000025,None,,P036,FENCOG,2,Pre,2022_Apr_13_1119,N-Back (New Version 2021),2021.1.4,120.0163221904142,
,,,,Conditions/Version_1/zeroback(2)_v1.xlsx,New rule: Press 'space' when you see the letter 'x' or 'X'.,L,None,,,,,,,,,0,5,5,5,0,1,1,1,,,,,,,,,,,,,,,,,,,,,,,,,,,,,,,,,,,,,,,,,,,,,,,,,,,,,,,,,,,,,,,,,,,,,1.5432,672.9858280999761,None,None,1,672.9858280999761,None,,P036,FENCOG,2,Pre,2022_Apr_13_1119,N-Back (New Version 2021),2021.1.4,120.0163221904142,
,,,,Conditions/Version_1/zeroback(2)_v1.xlsx,New rule: Press 'space' when you see the letter 'x' or 'X'.,G,None,,,,,,,,,0,5,5,5,0,2,2,2,,,,,,,,,,,,,,,,,,,,,,,,,,,,,,,,,,,,,,,,,,,,,,,,,,,,,,,,,,,,,,,,,,,,,1.2456,676.2364085000008,None,None,1,676.2364085000008,None,,P036,FENCOG,2,Pre,2022_Apr_13_1119,N-Back (New Version 2021),2021.1.4,120.0163221904142,
,,,,Conditions/Version_1/zeroback(2)_v1.xlsx,New rule: Press 'space' when you see the letter 'x' or 'X'.,y,None,,,,,,,,,0,5,5,5,0,3,3,3,,,,,,,,,,,,,,,,,,,,,,,,,,,,,,,,,,,,,,,,,,,,,,,,,,,,,,,,,,,,,,,,,,,,,1.2828,679.5256198999996,None,None,1,679.5256198999996,None,,P036,FENCOG,2,Pre,2022_Apr_13_1119,N-Back (New Version 2021),2021.1.4,120.0163221904142,
,,,,Conditions/Version_1/zeroback(2)_v1.xlsx,New rule: Press 'space' when you see the letter 'x' or 'X'.,Y,None,,,,,,,,,0,5,5,5,0,4,4,4,,,,,,,,,,,,,,,,,,,,,,,,,,,,,,,,,,,,,,,,,,,,,,,,,,,,,,,,,,,,,,,,,,,,,1.3696,682.899568199995,None,None,1,682.899568199995,None,,P036,FENCOG,2,Pre,2022_Apr_13_1119,N-Back (New Version 2021),2021.1.4,120.0163221904142,
,,,,Conditions/Version_1/zeroback(2)_v1.xlsx,New rule: Press 'space' when you see the letter 'x' or 'X'.,W,None,,,,,,,,,0,5,5,5,0,5,5,5,,,,,,,,,,,,,,,,,,,,,,,,,,,,,,,,,,,,,,,,,,,,,,,,,,,,,,,,,,,,,,,,,,,,,1.971,686.8826051999931,None,None,1,686.8826051999931,None,,P036,FENCOG,2,Pre,2022_Apr_13_1119,N-Back (New Version 2021),2021.1.4,120.0163221904142,
,,,,Conditions/Version_1/zeroback(2)_v1.xlsx,New rule: Press 'space' when you see the letter 'x' or 'X'.,x,space,,,,,,,,,0,5,5,5,0,6,6,6,,,,,,,,,,,,,,,,,,,,,,,,,,,,,,,,,,,,,,,,,,,,,,,,,,,,,,,,,,,,,,,,,,,,,1.2766,690.1641893999767,None,space,1,690.1641893999767,None,0.42002759999013506,P036,FENCOG,2,Pre,2022_Apr_13_1119,N-Back (New Version 2021),2021.1.4,120.0163221904142,
,,,,Conditions/Version_1/zeroback(2)_v1.xlsx,New rule: Press 'space' when you see the letter 'x' or 'X'.,X,space,,,,,,,,,0,5,5,5,0,7,7,7,,,,,,,,,,,,,,,,,,,,,,,,,,,,,,,,,,,,,,,,,,,,,,,,,,,,,,,,,,,,,,,,,,,,,1.9462,694.1132010000001,None,space,1,694.1132010000001,None,0.39913679999881424,P036,FENCOG,2,Pre,2022_Apr_13_1119,N-Back (New Version 2021),2021.1.4,120.0163221904142,
,,,,Conditions/Version_1/zeroback(2)_v1.xlsx,New rule: Press 'space' when you see the letter 'x' or 'X'.,p,None,,,,,,,,,0,5,5,5,0,8,8,8,,,,,,,,,,,,,,,,,,,,,,,,,,,,,,,,,,,,,,,,,,,,,,,,,,,,,,,,,,,,,,,,,,,,,1.4006,697.5119361999969,None,None,1,697.5119361999969,None,,P036,FENCOG,2,Pre,2022_Apr_13_1119,N-Back (New Version 2021),2021.1.4,120.0163221904142,
,,,,Conditions/Version_1/zeroback(2)_v1.xlsx,New rule: Press 'space' when you see the letter 'x' or 'X'.,h,None,,,,,,,,,0,5,5,5,0,9,9,9,,,,,,,,,,,,,,,,,,,,,,,,,,,,,,,,,,,,,,,,,,,,,,,,,,,,,,,,,,,,,,,,,,,,,1.5122,701.0289508999849,None,None,1,701.0289508999849,None,,P036,FENCOG,2,Pre,2022_Apr_13_1119,N-Back (New Version 2021),2021.1.4,120.0163221904142,
,,,,Conditions/Version_1/zeroback(2)_v1.xlsx,New rule: Press 'space' when you see the letter 'x' or 'X'.,,,,,,,,,,,0,5,5,5,,,,,,,,,,,,,,,,,,,,,,,,,,,,,,,,,,,,,,,,,,,,,,,,,,,,,,,,,,,,,,,,,,,,,,,,,,,,,,,,,P036,FENCOG,2,Pre,2022_Apr_13_1119,N-Back (New Version 2021),2021.1.4,120.0163221904142,
,,,,Conditions/Version_1/threeback(2)_v1.xlsx,New rule: Press 'space' when you see 3-back (i.e. the same letter as the one that appeared 3 letters ago.),q,None,,,,,,,,,0,6,6,6,0,0,0,0,,,,,,,,,,,,,,,,,,,,,,,,,,,,,,,,,,,,,,,,,,,,,,,,,,,,,,,,,,,703.058544599975,None,706.0451785999758,None,space,0.466929699992761,706.0451785999758,None,703.058544599975,None,1.475,708.0185868999979,None,None,1,708.0185868999979,None,,P036,FENCOG,2,Pre,2022_Apr_13_1119,N-Back (New Version 2021),2021.1.4,120.0163221904142,
,,,,Conditions/Version_1/threeback(2)_v1.xlsx,New rule: Press 'space' when you see 3-back (i.e. the same letter as the one that appeared 3 letters ago.),Y,None,,,,,,,,,0,6,6,6,0,1,1,1,,,,,,,,,,,,,,,,,,,,,,,,,,,,,,,,,,,,,,,,,,,,,,,,,,,,,,,,,,,,,,,,,,,,,1.6238,711.6515384999802,None,None,1,711.6515384999802,None,,P036,FENCOG,2,Pre,2022_Apr_13_1119,N-Back (New Version 2021),2021.1.4,120.0163221904142,
,,,,Conditions/Version_1/threeback(2)_v1.xlsx,New rule: Press 'space' when you see 3-back (i.e. the same letter as the one that appeared 3 letters ago.),p,None,,,,,,,,,0,6,6,6,0,2,2,2,,,,,,,,,,,,,,,,,,,,,,,,,,,,,,,,,,,,,,,,,,,,,,,,,,,,,,,,,,,,,,,,,,,,,1.4812,715.1400356999948,None,None,1,715.1400356999948,None,,P036,FENCOG,2,Pre,2022_Apr_13_1119,N-Back (New Version 2021),2021.1.4,120.0163221904142,
,,,,Conditions/Version_1/threeback(2)_v1.xlsx,New rule: Press 'space' when you see 3-back (i.e. the same letter as the one that appeared 3 letters ago.),p,None,,,,,,,,,0,6,6,6,0,3,3,3,,,,,,,,,,,,,,,,,,,,,,,,,,,,,,,,,,,,,,,,,,,,,,,,,,,,,,,,,,,,,,,,,,,,,1.1154,718.2560375999892,None,None,1,718.2560375999892,None,,P036,FENCOG,2,Pre,2022_Apr_13_1119,N-Back (New Version 2021),2021.1.4,120.0163221904142,
,,,,Conditions/Version_1/threeback(2)_v1.xlsx,New rule: Press 'space' when you see 3-back (i.e. the same letter as the one that appeared 3 letters ago.),y,space,,,,,,,,,0,6,6,6,0,4,4,4,,,,,,,,,,,,,,,,,,,,,,,,,,,,,,,,,,,,,,,,,,,,,,,,,,,,,,,,,,,,,,,,,,,,,1.2022,721.4632092999818,None,space,1,721.4632092999818,None,0.40901400000439025,P036,FENCOG,2,Pre,2022_Apr_13_1119,N-Back (New Version 2021),2021.1.4,120.0163221904142,
,,,,Conditions/Version_1/threeback(2)_v1.xlsx,New rule: Press 'space' when you see 3-back (i.e. the same letter as the one that appeared 3 letters ago.),u,None,,,,,,,,,0,6,6,6,0,5,5,5,,,,,,,,,,,,,,,,,,,,,,,,,,,,,,,,,,,,,,,,,,,,,,,,,,,,,,,,,,,,,,,,,,,,,1.2084,724.6708342999918,None,None,1,724.6708342999918,None,,P036,FENCOG,2,Pre,2022_Apr_13_1119,N-Back (New Version 2021),2021.1.4,120.0163221904142,
,,,,Conditions/Version_1/threeback(2)_v1.xlsx,New rule: Press 'space' when you see 3-back (i.e. the same letter as the one that appeared 3 letters ago.),P,space,,,,,,,,,0,6,6,6,0,6,6,6,,,,,,,,,,,,,,,,,,,,,,,,,,,,,,,,,,,,,,,,,,,,,,,,,,,,,,,,,,,,,,,,,,,,,1.3076,727.9791732000012,None,None,0,727.9791732000012,None,,P036,FENCOG,2,Pre,2022_Apr_13_1119,N-Back (New Version 2021),2021.1.4,120.0163221904142,
,,,,Conditions/Version_1/threeback(2)_v1.xlsx,New rule: Press 'space' when you see 3-back (i.e. the same letter as the one that appeared 3 letters ago.),a,None,,,,,,,,,0,6,6,6,0,7,7,7,,,,,,,,,,,,,,,,,,,,,,,,,,,,,,,,,,,,,,,,,,,,,,,,,,,,,,,,,,,,,,,,,,,,,1.8594,731.8525060999964,None,None,1,731.8525060999964,None,,P036,FENCOG,2,Pre,2022_Apr_13_1119,N-Back (New Version 2021),2021.1.4,120.0163221904142,
,,,,Conditions/Version_1/threeback(2)_v1.xlsx,New rule: Press 'space' when you see 3-back (i.e. the same letter as the one that appeared 3 letters ago.),U,space,,,,,,,,,0,6,6,6,0,8,8,8,,,,,,,,,,,,,,,,,,,,,,,,,,,,,,,,,,,,,,,,,,,,,,,,,,,,,,,,,,,,,,,,,,,,,1.816,735.6756684999855,None,space,1,735.6756684999855,None,0.9814140000089537,P036,FENCOG,2,Pre,2022_Apr_13_1119,N-Back (New Version 2021),2021.1.4,120.0163221904142,
,,,,Conditions/Version_1/threeback(2)_v1.xlsx,New rule: Press 'space' when you see 3-back (i.e. the same letter as the one that appeared 3 letters ago.),q,None,,,,,,,,,0,6,6,6,0,9,9,9,,,,,,,,,,,,,,,,,,,,,,,,,,,,,,,,,,,,,,,,,,,,,,,,,,,,,,,,,,,,,,,,,,,,,1.4564,739.13378069998,None,None,1,739.13378069998,None,,P036,FENCOG,2,Pre,2022_Apr_13_1119,N-Back (New Version 2021),2021.1.4,120.0163221904142,
,,,,Conditions/Version_1/threeback(2)_v1.xlsx,New rule: Press 'space' when you see 3-back (i.e. the same letter as the one that appeared 3 letters ago.),,,,,,,,,,,0,6,6,6,,,,,,,,,,,,,,,,,,,,,,,,,,,,,,,,,,,,,,,,,,,,,,,,,,,,,,,,,,,,,,,,,,,,,,,,,,,,,,,,,P036,FENCOG,2,Pre,2022_Apr_13_1119,N-Back (New Version 2021),2021.1.4,120.0163221904142,
,,,,Conditions/Version_1/twoback(2)_v1.xlsx,New rule: Press 'space' when you see 2-back (i.e. the same letter as the one that appeared 2 letters ago.),q,None,,,,,,,,,0,7,7,7,0,0,0,0,,,,,,,,,,,,,,,,,,,,,,,,,,,,,,,,,,,,,,,,,,,,,,,,,,,,,,,,,,,741.1561634999816,None,744.141690199991,None,space,0.6986290999921039,744.141690199991,None,741.1561634999816,None,1.5184,746.3894170999993,None,None,1,746.3894170999993,None,,P036,FENCOG,2,Pre,2022_Apr_13_1119,N-Back (New Version 2021),2021.1.4,120.0163221904142,
,,,,Conditions/Version_1/twoback(2)_v1.xlsx,New rule: Press 'space' when you see 2-back (i.e. the same letter as the one that appeared 2 letters ago.),r,None,,,,,,,,,0,7,7,7,0,1,1,1,,,,,,,,,,,,,,,,,,,,,,,,,,,,,,,,,,,,,,,,,,,,,,,,,,,,,,,,,,,,,,,,,,,,,1.9772,750.373025399982,None,None,1,750.373025399982,None,,P036,FENCOG,2,Pre,2022_Apr_13_1119,N-Back (New Version 2021),2021.1.4,120.0163221904142,
,,,,Conditions/Version_1/twoback(2)_v1.xlsx,New rule: Press 'space' when you see 2-back (i.e. the same letter as the one that appeared 2 letters ago.),q,space,,,,,,,,,0,7,7,7,0,2,2,2,,,,,,,,,,,,,,,,,,,,,,,,,,,,,,,,,,,,,,,,,,,,,,,,,,,,,,,,,,,,,,,,,,,,,1.134,753.5120145999826,None,space,1,753.5120145999826,None,0.6804141000029631,P036,FENCOG,2,Pre,2022_Apr_13_1119,N-Back (New Version 2021),2021.1.4,120.0163221904142,
,,,,Conditions/Version_1/twoback(2)_v1.xlsx,New rule: Press 'space' when you see 2-back (i.e. the same letter as the one that appeared 2 letters ago.),P,None,,,,,,,,,0,7,7,7,0,3,3,3,,,,,,,,,,,,,,,,,,,,,,,,,,,,,,,,,,,,,,,,,,,,,,,,,,,,,,,,,,,,,,,,,,,,,1.289,756.8028370999964,None,None,1,756.8028370999964,None,,P036,FENCOG,2,Pre,2022_Apr_13_1119,N-Back (New Version 2021),2021.1.4,120.0163221904142,
,,,,Conditions/Version_1/twoback(2)_v1.xlsx,New rule: Press 'space' when you see 2-back (i.e. the same letter as the one that appeared 2 letters ago.),p,None,,,,,,,,,0,7,7,7,0,4,4,4,,,,,,,,,,,,,,,,,,,,,,,,,,,,,,,,,,,,,,,,,,,,,,,,,,,,,,,,,,,,,,,,,,,,,1.9462,760.7515904999746,None,None,1,760.7515904999746,None,,P036,FENCOG,2,Pre,2022_Apr_13_1119,N-Back (New Version 2021),2021.1.4,120.0163221904142,
,,,,Conditions/Version_1/twoback(2)_v1.xlsx,New rule: Press 'space' when you see 2-back (i.e. the same letter as the one that appeared 2 letters ago.),H,None,,,,,,,,,0,7,7,7,0,5,5,5,,,,,,,,,,,,,,,,,,,,,,,,,,,,,,,,,,,,,,,,,,,,,,,,,,,,,,,,,,,,,,,,,,,,,1.4378,764.1925624999858,None,None,1,764.1925624999858,None,,P036,FENCOG,2,Pre,2022_Apr_13_1119,N-Back (New Version 2021),2021.1.4,120.0163221904142,
,,,,Conditions/Version_1/twoback(2)_v1.xlsx,New rule: Press 'space' when you see 2-back (i.e. the same letter as the one that appeared 2 letters ago.),g,None,,,,,,,,,0,7,7,7,0,6,6,6,,,,,,,,,,,,,,,,,,,,,,,,,,,,,,,,,,,,,,,,,,,,,,,,,,,,,,,,,,,,,,,,,,,,,1.3014,767.499667600001,None,None,1,767.499667600001,None,,P036,FENCOG,2,Pre,2022_Apr_13_1119,N-Back (New Version 2021),2021.1.4,120.0163221904142,
,,,,Conditions/Version_1/twoback(2)_v1.xlsx,New rule: Press 'space' when you see 2-back (i.e. the same letter as the one that appeared 2 letters ago.),j,None,,,,,,,,,0,7,7,7,0,7,7,7,,,,,,,,,,,,,,,,,,,,,,,,,,,,,,,,,,,,,,,,,,,,,,,,,,,,,,,,,,,,,,,,,,,,,1.909,771.415101999999,None,None,1,771.415101999999,None,,P036,FENCOG,2,Pre,2022_Apr_13_1119,N-Back (New Version 2021),2021.1.4,120.0163221904142,
,,,,Conditions/Version_1/twoback(2)_v1.xlsx,New rule: Press 'space' when you see 2-back (i.e. the same letter as the one that appeared 2 letters ago.),g,space,,,,,,,,,0,7,7,7,0,8,8,8,,,,,,,,,,,,,,,,,,,,,,,,,,,,,,,,,,,,,,,,,,,,,,,,,,,,,,,,,,,,,,,,,,,,,1.9028,775.324420799996,None,space,1,775.324420799996,None,0.50790440000128,P036,FENCOG,2,Pre,2022_Apr_13_1119,N-Back (New Version 2021),2021.1.4,120.0163221904142,
,,,,Conditions/Version_1/twoback(2)_v1.xlsx,New rule: Press 'space' when you see 2-back (i.e. the same letter as the one that appeared 2 letters ago.),G,None,,,,,,,,,0,7,7,7,0,9,9,9,,,,,,,,,,,,,,,,,,,,,,,,,,,,,,,,,,,,,,,,,,,,,,,,,,,,,,,,,,,,,,,,,,,,,1.2394,778.5720460999873,None,None,1,778.5720460999873,None,,P036,FENCOG,2,Pre,2022_Apr_13_1119,N-Back (New Version 2021),2021.1.4,120.0163221904142,
,,,,Conditions/Version_1/twoback(2)_v1.xlsx,New rule: Press 'space' when you see 2-back (i.e. the same letter as the one that appeared 2 letters ago.),,,,,,,,,,,0,7,7,7,,,,,,,,,,,,,,,,,,,,,,,,,,,,,,,,,,,,,,,,,,,,,,,,,,,,,,,,,,,,,,,,,,,,,,,,,,,,,,,,,P036,FENCOG,2,Pre,2022_Apr_13_1119,N-Back (New Version 2021),2021.1.4,120.0163221904142,
,,,,Conditions/Version_1/threeback(3)_v1.xlsx,New rule: Press 'space' when you see 3-back (i.e. the same letter as the one that appeared 3 letters ago.),w,None,,,,,,,,,0,8,8,8,0,0,0,0,,,,,,,,,,,,,,,,,,,,,,,,,,,,,,,,,,,,,,,,,,,,,,,,,,,,,,,,,,,780.6019915999786,None,783.5886339999852,None,space,0.875615500001004,783.5886339999852,None,780.6019915999786,None,1.5308,786.0288184999954,None,None,1,786.0288184999954,None,,P036,FENCOG,2,Pre,2022_Apr_13_1119,N-Back (New Version 2021),2021.1.4,120.0163221904142,
,,,,Conditions/Version_1/threeback(3)_v1.xlsx,New rule: Press 'space' when you see 3-back (i.e. the same letter as the one that appeared 3 letters ago.),p,None,,,,,,,,,0,8,8,8,0,1,1,1,,,,,,,,,,,,,,,,,,,,,,,,,,,,,,,,,,,,,,,,,,,,,,,,,,,,,,,,,,,,,,,,,,,,,1.0596,789.1015868999821,None,None,1,789.1015868999821,None,,P036,FENCOG,2,Pre,2022_Apr_13_1119,N-Back (New Version 2021),2021.1.4,120.0163221904142,
,,,,Conditions/Version_1/threeback(3)_v1.xlsx,New rule: Press 'space' when you see 3-back (i.e. the same letter as the one that appeared 3 letters ago.),P,None,,,,,,,,,0,8,8,8,0,2,2,2,,,,,,,,,,,,,,,,,,,,,,,,,,,,,,,,,,,,,,,,,,,,,,,,,,,,,,,,,,,,,,,,,,,,,1.289,792.3932227999903,None,None,1,792.3932227999903,None,,P036,FENCOG,2,Pre,2022_Apr_13_1119,N-Back (New Version 2021),2021.1.4,120.0163221904142,
,,,,Conditions/Version_1/threeback(3)_v1.xlsx,New rule: Press 'space' when you see 3-back (i.e. the same letter as the one that appeared 3 letters ago.),i,None,,,,,,,,,0,8,8,8,0,3,3,3,,,,,,,,,,,,,,,,,,,,,,,,,,,,,,,,,,,,,,,,,,,,,,,,,,,,,,,,,,,,,,,,,,,,,1.7478,796.1554862999765,None,None,1,796.1554862999765,None,,P036,FENCOG,2,Pre,2022_Apr_13_1119,N-Back (New Version 2021),2021.1.4,120.0163221904142,
,,,,Conditions/Version_1/threeback(3)_v1.xlsx,New rule: Press 'space' when you see 3-back (i.e. the same letter as the one that appeared 3 letters ago.),f,None,,,,,,,,,0,8,8,8,0,4,4,4,,,,,,,,,,,,,,,,,,,,,,,,,,,,,,,,,,,,,,,,,,,,,,,,,,,,,,,,,,,,,,,,,,,,,1.165,799.3236726000032,None,None,1,799.3236726000032,None,,P036,FENCOG,2,Pre,2022_Apr_13_1119,N-Back (New Version 2021),2021.1.4,120.0163221904142,
,,,,Conditions/Version_1/threeback(3)_v1.xlsx,New rule: Press 'space' when you see 3-back (i.e. the same letter as the one that appeared 3 letters ago.),o,None,,,,,,,,,0,8,8,8,0,5,5,5,,,,,,,,,,,,,,,,,,,,,,,,,,,,,,,,,,,,,,,,,,,,,,,,,,,,,,,,,,,,,,,,,,,,,1.7912,803.1140770999773,None,None,1,803.1140770999773,None,,P036,FENCOG,2,Pre,2022_Apr_13_1119,N-Back (New Version 2021),2021.1.4,120.0163221904142,
,,,,Conditions/Version_1/threeback(3)_v1.xlsx,New rule: Press 'space' when you see 3-back (i.e. the same letter as the one that appeared 3 letters ago.),w,None,,,,,,,,,0,8,8,8,0,6,6,6,,,,,,,,,,,,,,,,,,,,,,,,,,,,,,,,,,,,,,,,,,,,,,,,,,,,,,,,,,,,,,,,,,,,,1.599,806.7151677999937,None,None,1,806.7151677999937,None,,P036,FENCOG,2,Pre,2022_Apr_13_1119,N-Back (New Version 2021),2021.1.4,120.0163221904142,
,,,,Conditions/Version_1/threeback(3)_v1.xlsx,New rule: Press 'space' when you see 3-back (i.e. the same letter as the one that appeared 3 letters ago.),F,space,,,,,,,,,0,8,8,8,0,7,7,7,,,,,,,,,,,,,,,,,,,,,,,,,,,,,,,,,,,,,,,,,,,,,,,,,,,,,,,,,,,,,,,,,,,,,1.3262,810.0546350999794,None,space,1,810.0546350999794,None,0.9455814000102691,P036,FENCOG,2,Pre,2022_Apr_13_1119,N-Back (New Version 2021),2021.1.4,120.0163221904142,
,,,,Conditions/Version_1/threeback(3)_v1.xlsx,New rule: Press 'space' when you see 3-back (i.e. the same letter as the one that appeared 3 letters ago.),p,None,,,,,,,,,0,8,8,8,0,8,8,8,,,,,,,,,,,,,,,,,,,,,,,,,,,,,,,,,,,,,,,,,,,,,,,,,,,,,,,,,,,,,,,,,,,,,1.2518,813.320246599993,None,None,1,813.320246599993,None,,P036,FENCOG,2,Pre,2022_Apr_13_1119,N-Back (New Version 2021),2021.1.4,120.0163221904142,
,,,,Conditions/Version_1/threeback(3)_v1.xlsx,New rule: Press 'space' when you see 3-back (i.e. the same letter as the one that appeared 3 letters ago.),W,space,,,,,,,,,0,8,8,8,0,9,9,9,,,,,,,,,,,,,,,,,,,,,,,,,,,,,,,,,,,,,,,,,,,,,,,,,,,,,,,,,,,,,,,,,,,,,1.6424,816.978421399981,None,space,1,816.978421399981,None,0.7659068999928422,P036,FENCOG,2,Pre,2022_Apr_13_1119,N-Back (New Version 2021),2021.1.4,120.0163221904142,
,,,,Conditions/Version_1/threeback(3)_v1.xlsx,New rule: Press 'space' when you see 3-back (i.e. the same letter as the one that appeared 3 letters ago.),,,,,,,,,,,0,8,8,8,,,,,,,,,,,,,,,,,,,,,,,,,,,,,,,,,,,,,,,,,,,,,,,,,,,,,,,,,,,,,,,,,,,,,,,,,,,,,,,,,P036,FENCOG,2,Pre,2022_Apr_13_1119,N-Back (New Version 2021),2021.1.4,120.0163221904142,
,,,,Conditions/Version_1/zeroback(3)_v1.xlsx,New rule: Press 'space' when you see the letter 'x' or 'X'.,X,space,,,,,,,,,0,9,9,9,0,0,0,0,,,,,,,,,,,,,,,,,,,,,,,,,,,,,,,,,,,,,,,,,,,,,,,,,,,,,,,,,,,819.0032587999885,None,821.9855996999831,None,space,0.8386758000124246,821.9855996999831,None,819.0032587999885,None,1.4068,824.2684004999755,None,space,1,824.2684004999755,None,0.45246230001794174,P036,FENCOG,2,Pre,2022_Apr_13_1119,N-Back (New Version 2021),2021.1.4,120.0163221904142,
,,,,Conditions/Version_1/zeroback(3)_v1.xlsx,New rule: Press 'space' when you see the letter 'x' or 'X'.,B,None,,,,,,,,,0,9,9,9,0,1,1,1,,,,,,,,,,,,,,,,,,,,,,,,,,,,,,,,,,,,,,,,,,,,,,,,,,,,,,,,,,,,,,,,,,,,,1.3634,827.6421096999838,None,None,1,827.6421096999838,None,,P036,FENCOG,2,Pre,2022_Apr_13_1119,N-Back (New Version 2021),2021.1.4,120.0163221904142,
,,,,Conditions/Version_1/zeroback(3)_v1.xlsx,New rule: Press 'space' when you see the letter 'x' or 'X'.,m,None,,,,,,,,,0,9,9,9,0,2,2,2,,,,,,,,,,,,,,,,,,,,,,,,,,,,,,,,,,,,,,,,,,,,,,,,,,,,,,,,,,,,,,,,,,,,,1.7664,831.415251999977,None,None,1,831.415251999977,None,,P036,FENCOG,2,Pre,2022_Apr_13_1119,N-Back (New Version 2021),2021.1.4,120.0163221904142,
,,,,Conditions/Version_1/zeroback(3)_v1.xlsx,New rule: Press 'space' when you see the letter 'x' or 'X'.,m,None,,,,,,,,,0,9,9,9,0,3,3,3,,,,,,,,,,,,,,,,,,,,,,,,,,,,,,,,,,,,,,,,,,,,,,,,,,,,,,,,,,,,,,,,,,,,,1.2704,834.6966758999915,None,None,1,834.6966758999915,None,,P036,FENCOG,2,Pre,2022_Apr_13_1119,N-Back (New Version 2021),2021.1.4,120.0163221904142,
,,,,Conditions/Version_1/zeroback(3)_v1.xlsx,New rule: Press 'space' when you see the letter 'x' or 'X'.,o,None,,,,,,,,,0,9,9,9,0,4,4,4,,,,,,,,,,,,,,,,,,,,,,,,,,,,,,,,,,,,,,,,,,,,,,,,,,,,,,,,,,,,,,,,,,,,,1.3262,838.0286110999878,None,None,1,838.0286110999878,None,,P036,FENCOG,2,Pre,2022_Apr_13_1119,N-Back (New Version 2021),2021.1.4,120.0163221904142,
,,,,Conditions/Version_1/zeroback(3)_v1.xlsx,New rule: Press 'space' when you see the letter 'x' or 'X'.,p,None,,,,,,,,,0,9,9,9,0,5,5,5,,,,,,,,,,,,,,,,,,,,,,,,,,,,,,,,,,,,,,,,,,,,,,,,,,,,,,,,,,,,,,,,,,,,,1.3944,841.4342629000021,None,None,1,841.4342629000021,None,,P036,FENCOG,2,Pre,2022_Apr_13_1119,N-Back (New Version 2021),2021.1.4,120.0163221904142,
,,,,Conditions/Version_1/zeroback(3)_v1.xlsx,New rule: Press 'space' when you see the letter 'x' or 'X'.,G,None,,,,,,,,,0,9,9,9,0,6,6,6,,,,,,,,,,,,,,,,,,,,,,,,,,,,,,,,,,,,,,,,,,,,,,,,,,,,,,,,,,,,,,,,,,,,,1.1712,844.6111556999967,None,None,1,844.6111556999967,None,,P036,FENCOG,2,Pre,2022_Apr_13_1119,N-Back (New Version 2021),2021.1.4,120.0163221904142,
,,,,Conditions/Version_1/zeroback(3)_v1.xlsx,New rule: Press 'space' when you see the letter 'x' or 'X'.,X,space,,,,,,,,,0,9,9,9,0,7,7,7,,,,,,,,,,,,,,,,,,,,,,,,,,,,,,,,,,,,,,,,,,,,,,,,,,,,,,,,,,,,,,,,,,,,,1.7974,848.4176516000007,None,space,1,848.4176516000007,None,0.36668820001068525,P036,FENCOG,2,Pre,2022_Apr_13_1119,N-Back (New Version 2021),2021.1.4,120.0163221904142,
,,,,Conditions/Version_1/zeroback(3)_v1.xlsx,New rule: Press 'space' when you see the letter 'x' or 'X'.,p,None,,,,,,,,,0,9,9,9,0,8,8,8,,,,,,,,,,,,,,,,,,,,,,,,,,,,,,,,,,,,,,,,,,,,,,,,,,,,,,,,,,,,,,,,,,,,,1.9462,852.3673141999752,None,None,1,852.3673141999752,None,,P036,FENCOG,2,Pre,2022_Apr_13_1119,N-Back (New Version 2021),2021.1.4,120.0163221904142,
,,,,Conditions/Version_1/zeroback(3)_v1.xlsx,New rule: Press 'space' when you see the letter 'x' or 'X'.,x,space,,,,,,,,,0,9,9,9,0,9,9,9,,,,,,,,,,,,,,,,,,,,,,,,,,,,,,,,,,,,,,,,,,,,,,,,,,,,,,,,,,,,,,,,,,,,,1.413,855.7944126999937,None,space,1,855.7944126999937,None,0.3658935999847017,P036,FENCOG,2,Pre,2022_Apr_13_1119,N-Back (New Version 2021),2021.1.4,120.0163221904142,
,,,,Conditions/Version_1/zeroback(3)_v1.xlsx,New rule: Press 'space' when you see the letter 'x' or 'X'.,,,,,,,,,,,0,9,9,9,,,,,,,,,,,,,,,,,,,,,,,,,,,,,,,,,,,,,,,,,,,,,,,,,,,,,,,,,,,,,,,,,,,,,,,,,,,,,,,,,P036,FENCOG,2,Pre,2022_Apr_13_1119,N-Back (New Version 2021),2021.1.4,120.0163221904142,
,,,,Conditions/Version_1/twoback(3)_v1.xlsx,New rule: Press 'space' when you see 2-back (i.e. the same letter as the one that appeared 2 letters ago.),e,None,,,,,,,,,0,10,10,10,0,0,0,0,,,,,,,,,,,,,,,,,,,,,,,,,,,,,,,,,,,,,,,,,,,,,,,,,,,,,,,,,,,857.8199490999978,None,860.807834599982,None,space,0.5761851999850478,860.807834599982,None,857.8199490999978,None,1.4192,862.8309219999937,None,None,1,862.8309219999937,None,,P036,FENCOG,2,Pre,2022_Apr_13_1119,N-Back (New Version 2021),2021.1.4,120.0163221904142,
,,,,Conditions/Version_1/twoback(3)_v1.xlsx,New rule: Press 'space' when you see 2-back (i.e. the same letter as the one that appeared 2 letters ago.),o,None,,,,,,,,,0,10,10,10,0,1,1,1,,,,,,,,,,,,,,,,,,,,,,,,,,,,,,,,,,,,,,,,,,,,,,,,,,,,,,,,,,,,,,,,,,,,,1.7416,866.5823395999905,None,None,1,866.5823395999905,None,,P036,FENCOG,2,Pre,2022_Apr_13_1119,N-Back (New Version 2021),2021.1.4,120.0163221904142,
,,,,Conditions/Version_1/twoback(3)_v1.xlsx,New rule: Press 'space' when you see 2-back (i.e. the same letter as the one that appeared 2 letters ago.),P,None,,,,,,,,,0,10,10,10,0,2,2,2,,,,,,,,,,,,,,,,,,,,,,,,,,,,,,,,,,,,,,,,,,,,,,,,,,,,,,,,,,,,,,,,,,,,,1.0286,869.6206383999961,None,None,1,869.6206383999961,None,,P036,FENCOG,2,Pre,2022_Apr_13_1119,N-Back (New Version 2021),2021.1.4,120.0163221904142,
,,,,Conditions/Version_1/twoback(3)_v1.xlsx,New rule: Press 'space' when you see 2-back (i.e. the same letter as the one that appeared 2 letters ago.),z,None,,,,,,,,,0,10,10,10,0,3,3,3,,,,,,,,,,,,,,,,,,,,,,,,,,,,,,,,,,,,,,,,,,,,,,,,,,,,,,,,,,,,,,,,,,,,,1.8408,873.4711201999744,None,None,1,873.4711201999744,None,,P036,FENCOG,2,Pre,2022_Apr_13_1119,N-Back (New Version 2021),2021.1.4,120.0163221904142,
,,,,Conditions/Version_1/twoback(3)_v1.xlsx,New rule: Press 'space' when you see 2-back (i.e. the same letter as the one that appeared 2 letters ago.),X,None,,,,,,,,,0,10,10,10,0,4,4,4,,,,,,,,,,,,,,,,,,,,,,,,,,,,,,,,,,,,,,,,,,,,,,,,,,,,,,,,,,,,,,,,,,,,,1.134,876.6132648999919,None,None,1,876.6132648999919,None,,P036,FENCOG,2,Pre,2022_Apr_13_1119,N-Back (New Version 2021),2021.1.4,120.0163221904142,
,,,,Conditions/Version_1/twoback(3)_v1.xlsx,New rule: Press 'space' when you see 2-back (i.e. the same letter as the one that appeared 2 letters ago.),z,space,,,,,,,,,0,10,10,10,0,5,5,5,,,,,,,,,,,,,,,,,,,,,,,,,,,,,,,,,,,,,,,,,,,,,,,,,,,,,,,,,,,,,,,,,,,,,1.103,879.7254106999899,None,space,1,879.7254106999899,None,0.5067775000061374,P036,FENCOG,2,Pre,2022_Apr_13_1119,N-Back (New Version 2021),2021.1.4,120.0163221904142,
,,,,Conditions/Version_1/twoback(3)_v1.xlsx,New rule: Press 'space' when you see 2-back (i.e. the same letter as the one that appeared 2 letters ago.),x,space,,,,,,,,,0,10,10,10,0,6,6,6,,,,,,,,,,,,,,,,,,,,,,,,,,,,,,,,,,,,,,,,,,,,,,,,,,,,,,,,,,,,,,,,,,,,,1.3758,883.1000190999766,None,space,1,883.1000190999766,None,0.34813369999756105,P036,FENCOG,2,Pre,2022_Apr_13_1119,N-Back (New Version 2021),2021.1.4,120.0163221904142,
,,,,Conditions/Version_1/twoback(3)_v1.xlsx,New rule: Press 'space' when you see 2-back (i.e. the same letter as the one that appeared 2 letters ago.),c,None,,,,,,,,,0,10,10,10,0,7,7,7,,,,,,,,,,,,,,,,,,,,,,,,,,,,,,,,,,,,,,,,,,,,,,,,,,,,,,,,,,,,,,,,,,,,,1.072,886.185971400002,None,None,1,886.185971400002,None,,P036,FENCOG,2,Pre,2022_Apr_13_1119,N-Back (New Version 2021),2021.1.4,120.0163221904142,
,,,,Conditions/Version_1/twoback(3)_v1.xlsx,New rule: Press 'space' when you see 2-back (i.e. the same letter as the one that appeared 2 letters ago.),i,None,,,,,,,,,0,10,10,10,0,8,8,8,,,,,,,,,,,,,,,,,,,,,,,,,,,,,,,,,,,,,,,,,,,,,,,,,,,,,,,,,,,,,,,,,,,,,1.754,889.946785099979,None,None,1,889.946785099979,None,,P036,FENCOG,2,Pre,2022_Apr_13_1119,N-Back (New Version 2021),2021.1.4,120.0163221904142,
,,,,Conditions/Version_1/twoback(3)_v1.xlsx,New rule: Press 'space' when you see 2-back (i.e. the same letter as the one that appeared 2 letters ago.),C,space,,,,,,,,,0,10,10,10,0,9,9,9,,,,,,,,,,,,,,,,,,,,,,,,,,,,,,,,,,,,,,,,,,,,,,,,,,,,,,,,,,,,,,,,,,,,,1.63,893.5814947999897,None,space,1,893.5814947999897,None,0.34676369998487644,P036,FENCOG,2,Pre,2022_Apr_13_1119,N-Back (New Version 2021),2021.1.4,120.0163221904142,
,,,,Conditions/Version_1/twoback(3)_v1.xlsx,New rule: Press 'space' when you see 2-back (i.e. the same letter as the one that appeared 2 letters ago.),,,,,,,,,,,0,10,10,10,,,,,,,,,,,,,,,,,,,,,,,,,,,,,,,,,,,,,,,,,,,,,,,,,,,,,,,,,,,,,,,,,,,,,,,,,,,,,,,,,P036,FENCOG,2,Pre,2022_Apr_13_1119,N-Back (New Version 2021),2021.1.4,120.0163221904142,
,,,,Conditions/Version_1/oneback(3)_v1.xlsx,New rule: Press 'space' when you see 1-back (i.e. the same letter as the one that appeared 1 letter ago.),o,None,,,,,,,,,0,11,11,11,0,0,0,0,,,,,,,,,,,,,,,,,,,,,,,,,,,,,,,,,,,,,,,,,,,,,,,,,,,,,,,,,,,895.6107789999805,None,898.5959511999972,None,space,0.42803249999997206,898.5959511999972,None,895.6107789999805,None,1.2022,900.2542843999981,None,None,1,900.2542843999981,None,,P036,FENCOG,2,Pre,2022_Apr_13_1119,N-Back (New Version 2021),2021.1.4,120.0163221904142,
,,,,Conditions/Version_1/oneback(3)_v1.xlsx,New rule: Press 'space' when you see 1-back (i.e. the same letter as the one that appeared 1 letter ago.),O,space,,,,,,,,,0,11,11,11,0,1,1,1,,,,,,,,,,,,,,,,,,,,,,,,,,,,,,,,,,,,,,,,,,,,,,,,,,,,,,,,,,,,,,,,,,,,,1.4626,903.7260448999878,None,space,1,903.7260448999878,None,0.3461113999946974,P036,FENCOG,2,Pre,2022_Apr_13_1119,N-Back (New Version 2021),2021.1.4,120.0163221904142,
,,,,Conditions/Version_1/oneback(3)_v1.xlsx,New rule: Press 'space' when you see 1-back (i.e. the same letter as the one that appeared 1 letter ago.),h,None,,,,,,,,,0,11,11,11,0,2,2,2,,,,,,,,,,,,,,,,,,,,,,,,,,,,,,,,,,,,,,,,,,,,,,,,,,,,,,,,,,,,,,,,,,,,,1.258,906.9834640999907,None,None,1,906.9834640999907,None,,P036,FENCOG,2,Pre,2022_Apr_13_1119,N-Back (New Version 2021),2021.1.4,120.0163221904142,
,,,,Conditions/Version_1/oneback(3)_v1.xlsx,New rule: Press 'space' when you see 1-back (i.e. the same letter as the one that appeared 1 letter ago.),g,None,,,,,,,,,0,11,11,11,0,3,3,3,,,,,,,,,,,,,,,,,,,,,,,,,,,,,,,,,,,,,,,,,,,,,,,,,,,,,,,,,,,,,,,,,,,,,1.9338,910.9243567999802,None,None,1,910.9243567999802,None,,P036,FENCOG,2,Pre,2022_Apr_13_1119,N-Back (New Version 2021),2021.1.4,120.0163221904142,
,,,,Conditions/Version_1/oneback(3)_v1.xlsx,New rule: Press 'space' when you see 1-back (i.e. the same letter as the one that appeared 1 letter ago.),n,None,,,,,,,,,0,11,11,11,0,4,4,4,,,,,,,,,,,,,,,,,,,,,,,,,,,,,,,,,,,,,,,,,,,,,,,,,,,,,,,,,,,,,,,,,,,,,1.3882,914.3147286000021,None,None,1,914.3147286000021,None,,P036,FENCOG,2,Pre,2022_Apr_13_1119,N-Back (New Version 2021),2021.1.4,120.0163221904142,
,,,,Conditions/Version_1/oneback(3)_v1.xlsx,New rule: Press 'space' when you see 1-back (i.e. the same letter as the one that appeared 1 letter ago.),z,None,,,,,,,,,0,11,11,11,0,5,5,5,,,,,,,,,,,,,,,,,,,,,,,,,,,,,,,,,,,,,,,,,,,,,,,,,,,,,,,,,,,,,,,,,,,,,1.94,918.2574939999904,None,None,1,918.2574939999904,None,,P036,FENCOG,2,Pre,2022_Apr_13_1119,N-Back (New Version 2021),2021.1.4,120.0163221904142,
,,,,Conditions/Version_1/oneback(3)_v1.xlsx,New rule: Press 'space' when you see 1-back (i.e. the same letter as the one that appeared 1 letter ago.),X,None,,,,,,,,,0,11,11,11,0,6,6,6,,,,,,,,,,,,,,,,,,,,,,,,,,,,,,,,,,,,,,,,,,,,,,,,,,,,,,,,,,,,,,,,,,,,,1.4192,921.6874135999824,None,None,1,921.6874135999824,None,,P036,FENCOG,2,Pre,2022_Apr_13_1119,N-Back (New Version 2021),2021.1.4,120.0163221904142,
,,,,Conditions/Version_1/oneback(3)_v1.xlsx,New rule: Press 'space' when you see 1-back (i.e. the same letter as the one that appeared 1 letter ago.),r,None,,,,,,,,,0,11,11,11,0,7,7,7,,,,,,,,,,,,,,,,,,,,,,,,,,,,,,,,,,,,,,,,,,,,,,,,,,,,,,,,,,,,,,,,,,,,,1.3944,925.0867313999915,None,None,1,925.0867313999915,None,,P036,FENCOG,2,Pre,2022_Apr_13_1119,N-Back (New Version 2021),2021.1.4,120.0163221904142,
,,,,Conditions/Version_1/oneback(3)_v1.xlsx,New rule: Press 'space' when you see 1-back (i.e. the same letter as the one that appeared 1 letter ago.),r,space,,,,,,,,,0,11,11,11,0,8,8,8,,,,,,,,,,,,,,,,,,,,,,,,,,,,,,,,,,,,,,,,,,,,,,,,,,,,,,,,,,,,,,,,,,,,,1.6858,928.7772157999862,None,space,1,928.7772157999862,None,0.37526910001179203,P036,FENCOG,2,Pre,2022_Apr_13_1119,N-Back (New Version 2021),2021.1.4,120.0163221904142,
,,,,Conditions/Version_1/oneback(3)_v1.xlsx,New rule: Press 'space' when you see 1-back (i.e. the same letter as the one that appeared 1 letter ago.),P,None,,,,,,,,,0,11,11,11,0,9,9,9,,,,,,,,,,,,,,,,,,,,,,,,,,,,,,,,,,,,,,,,,,,,,,,,,,,,,,,,,,,,,,,,,,,,,1.0162,931.7935924999765,None,None,1,931.7935924999765,None,,P036,FENCOG,2,Pre,2022_Apr_13_1119,N-Back (New Version 2021),2021.1.4,120.0163221904142,
,,,,Conditions/Version_1/oneback(3)_v1.xlsx,New rule: Press 'space' when you see 1-back (i.e. the same letter as the one that appeared 1 letter ago.),,,,,,,,,,,0,11,11,11,,,,,,,,,,,,,,,,,,,,,,,,,,,,,,,,,,,,,,,,,,,,,,,,,,,,,,,,,,,,,,,,,,,,,,,,,,,,,,,,,P036,FENCOG,2,Pre,2022_Apr_13_1119,N-Back (New Version 2021),2021.1.4,120.0163221904142,
,,,,Conditions/Version_1/twoback(4)_v1.xlsx,New rule: Press 'space' when you see 2-back (i.e. the same letter as the one that appeared 2 letters ago.),r,None,,,,,,,,,0,12,12,12,0,0,0,0,,,,,,,,,,,,,,,,,,,,,,,,,,,,,,,,,,,,,,,,,,,,,,,,,,,,,,,,,,,933.8223455999978,None,936.8106914999953,None,space,0.741299200017238,936.8106914999953,None,933.8223455999978,None,1.2704,938.89367759999,None,None,1,938.89367759999,None,,P036,FENCOG,2,Pre,2022_Apr_13_1119,N-Back (New Version 2021),2021.1.4,120.0163221904142,
,,,,Conditions/Version_1/twoback(4)_v1.xlsx,New rule: Press 'space' when you see 2-back (i.e. the same letter as the one that appeared 2 letters ago.),T,None,,,,,,,,,0,12,12,12,0,1,1,1,,,,,,,,,,,,,,,,,,,,,,,,,,,,,,,,,,,,,,,,,,,,,,,,,,,,,,,,,,,,,,,,,,,,,1.3324,942.2315514999791,None,None,1,942.2315514999791,None,,P036,FENCOG,2,Pre,2022_Apr_13_1119,N-Back (New Version 2021),2021.1.4,120.0163221904142,
,,,,Conditions/Version_1/twoback(4)_v1.xlsx,New rule: Press 'space' when you see 2-back (i.e. the same letter as the one that appeared 2 letters ago.),o,None,,,,,,,,,0,12,12,12,0,2,2,2,,,,,,,,,,,,,,,,,,,,,,,,,,,,,,,,,,,,,,,,,,,,,,,,,,,,,,,,,,,,,,,,,,,,,1.165,945.39718119998,None,None,1,945.39718119998,None,,P036,FENCOG,2,Pre,2022_Apr_13_1119,N-Back (New Version 2021),2021.1.4,120.0163221904142,
,,,,Conditions/Version_1/twoback(4)_v1.xlsx,New rule: Press 'space' when you see 2-back (i.e. the same letter as the one that appeared 2 letters ago.),p,None,,,,,,,,,0,12,12,12,0,3,3,3,,,,,,,,,,,,,,,,,,,,,,,,,,,,,,,,,,,,,,,,,,,,,,,,,,,,,,,,,,,,,,,,,,,,,1.9276,949.331323499995,None,None,1,949.331323499995,None,,P036,FENCOG,2,Pre,2022_Apr_13_1119,N-Back (New Version 2021),2021.1.4,120.0163221904142,
,,,,Conditions/Version_1/twoback(4)_v1.xlsx,New rule: Press 'space' when you see 2-back (i.e. the same letter as the one that appeared 2 letters ago.),p,None,,,,,,,,,0,12,12,12,0,4,4,4,,,,,,,,,,,,,,,,,,,,,,,,,,,,,,,,,,,,,,,,,,,,,,,,,,,,,,,,,,,,,,,,,,,,,1.3138,952.6534812999889,None,None,1,952.6534812999889,None,,P036,FENCOG,2,Pre,2022_Apr_13_1119,N-Back (New Version 2021),2021.1.4,120.0163221904142,
,,,,Conditions/Version_1/twoback(4)_v1.xlsx,New rule: Press 'space' when you see 2-back (i.e. the same letter as the one that appeared 2 letters ago.),y,None,,,,,,,,,0,12,12,12,0,5,5,5,,,,,,,,,,,,,,,,,,,,,,,,,,,,,,,,,,,,,,,,,,,,,,,,,,,,,,,,,,,,,,,,,,,,,1.754,956.4108808999881,None,None,1,956.4108808999881,None,,P036,FENCOG,2,Pre,2022_Apr_13_1119,N-Back (New Version 2021),2021.1.4,120.0163221904142,
,,,,Conditions/Version_1/twoback(4)_v1.xlsx,New rule: Press 'space' when you see 2-back (i.e. the same letter as the one that appeared 2 letters ago.),P,space,,,,,,,,,0,12,12,12,0,6,6,6,,,,,,,,,,,,,,,,,,,,,,,,,,,,,,,,,,,,,,,,,,,,,,,,,,,,,,,,,,,,,,,,,,,,,1.8718,960.2856284999871,None,space,1,960.2856284999871,None,0.33029420001548715,P036,FENCOG,2,Pre,2022_Apr_13_1119,N-Back (New Version 2021),2021.1.4,120.0163221904142,
,,,,Conditions/Version_1/twoback(4)_v1.xlsx,New rule: Press 'space' when you see 2-back (i.e. the same letter as the one that appeared 2 letters ago.),y,None,,,,,,,,,0,12,12,12,0,7,7,7,,,,,,,,,,,,,,,,,,,,,,,,,,,,,,,,,,,,,,,,,,,,,,,,,,,,,,,,,,,,,,,,,,,,,1.9462,964.242400099989,None,space,0,964.242400099989,None,0.33378580000135116,P036,FENCOG,2,Pre,2022_Apr_13_1119,N-Back (New Version 2021),2021.1.4,120.0163221904142,
,,,,Conditions/Version_1/twoback(4)_v1.xlsx,New rule: Press 'space' when you see 2-back (i.e. the same letter as the one that appeared 2 letters ago.),y,space,,,,,,,,,0,12,12,12,0,8,8,8,,,,,,,,,,,,,,,,,,,,,,,,,,,,,,,,,,,,,,,,,,,,,,,,,,,,,,,,,,,,,,,,,,,,,1.1526,967.4074432999769,None,None,0,967.4074432999769,None,,P036,FENCOG,2,Pre,2022_Apr_13_1119,N-Back (New Version 2021),2021.1.4,120.0163221904142,
,,,,Conditions/Version_1/twoback(4)_v1.xlsx,New rule: Press 'space' when you see 2-back (i.e. the same letter as the one that appeared 2 letters ago.),,,,,,,,,,,0,12,12,12,,,,,,,,,,,,,,,,,,,,,,,,,,,,,,,,,,,,,,,,,,,,,,,,,,,,,,,,,,,,,,,,,,,,,,,,,,,,,,,,,P036,FENCOG,2,Pre,2022_Apr_13_1119,N-Back (New Version 2021),2021.1.4,120.0163221904142,
,,,,Conditions/Version_1/zeroback(4)_v1.xlsx,New rule: Press 'space' when you see the letter 'x' or 'X'.,o,None,,,,,,,,,0,13,13,13,0,0,0,0,,,,,,,,,,,,,,,,,,,,,,,,,,,,,,,,,,,,,,,,,,,,,,,,,,,,,,,,,,,969.4261347999854,None,972.416361599986,None,space,0.5118361999921035,972.416361599986,None,969.4261347999854,None,1.3634,974.331257199985,None,None,1,974.331257199985,None,,P036,FENCOG,2,Pre,2022_Apr_13_1119,N-Back (New Version 2021),2021.1.4,120.0163221904142,
,,,,Conditions/Version_1/zeroback(4)_v1.xlsx,New rule: Press 'space' when you see the letter 'x' or 'X'.,X,space,,,,,,,,,0,13,13,13,0,1,1,1,,,,,,,,,,,,,,,,,,,,,,,,,,,,,,,,,,,,,,,,,,,,,,,,,,,,,,,,,,,,,,,,,,,,,1.0348,977.3805339999963,None,space,1,977.3805339999963,None,0.34764520000317134,P036,FENCOG,2,Pre,2022_Apr_13_1119,N-Back (New Version 2021),2021.1.4,120.0163221904142,
,,,,Conditions/Version_1/zeroback(4)_v1.xlsx,New rule: Press 'space' when you see the letter 'x' or 'X'.,p,None,,,,,,,,,0,13,13,13,0,2,2,2,,,,,,,,,,,,,,,,,,,,,,,,,,,,,,,,,,,,,,,,,,,,,,,,,,,,,,,,,,,,,,,,,,,,,1.2208,980.6129031000019,None,None,1,980.6129031000019,None,,P036,FENCOG,2,Pre,2022_Apr_13_1119,N-Back (New Version 2021),2021.1.4,120.0163221904142,
,,,,Conditions/Version_1/zeroback(4)_v1.xlsx,New rule: Press 'space' when you see the letter 'x' or 'X'.,m,None,,,,,,,,,0,13,13,13,0,3,3,3,,,,,,,,,,,,,,,,,,,,,,,,,,,,,,,,,,,,,,,,,,,,,,,,,,,,,,,,,,,,,,,,,,,,,1.3076,983.9274809999915,None,None,1,983.9274809999915,None,,P036,FENCOG,2,Pre,2022_Apr_13_1119,N-Back (New Version 2021),2021.1.4,120.0163221904142,
,,,,Conditions/Version_1/zeroback(4)_v1.xlsx,New rule: Press 'space' when you see the letter 'x' or 'X'.,n,None,,,,,,,,,0,13,13,13,0,4,4,4,,,,,,,,,,,,,,,,,,,,,,,,,,,,,,,,,,,,,,,,,,,,,,,,,,,,,,,,,,,,,,,,,,,,,1.4316,987.3619106999831,None,None,1,987.3619106999831,None,,P036,FENCOG,2,Pre,2022_Apr_13_1119,N-Back (New Version 2021),2021.1.4,120.0163221904142,
,,,,Conditions/Version_1/zeroback(4)_v1.xlsx,New rule: Press 'space' when you see the letter 'x' or 'X'.,m,None,,,,,,,,,0,13,13,13,0,5,5,5,,,,,,,,,,,,,,,,,,,,,,,,,,,,,,,,,,,,,,,,,,,,,,,,,,,,,,,,,,,,,,,,,,,,,1.351,990.7275471999892,None,None,1,990.7275471999892,None,,P036,FENCOG,2,Pre,2022_Apr_13_1119,N-Back (New Version 2021),2021.1.4,120.0163221904142,
,,,,Conditions/Version_1/zeroback(4)_v1.xlsx,New rule: Press 'space' when you see the letter 'x' or 'X'.,C,None,,,,,,,,,0,13,13,13,0,6,6,6,,,,,,,,,,,,,,,,,,,,,,,,,,,,,,,,,,,,,,,,,,,,,,,,,,,,,,,,,,,,,,,,,,,,,1.0224,993.7618186999753,None,None,1,993.7618186999753,None,,P036,FENCOG,2,Pre,2022_Apr_13_1119,N-Back (New Version 2021),2021.1.4,120.0163221904142,
,,,,Conditions/Version_1/zeroback(4)_v1.xlsx,New rule: Press 'space' when you see the letter 'x' or 'X'.,m,None,,,,,,,,,0,13,13,13,0,7,7,7,,,,,,,,,,,,,,,,,,,,,,,,,,,,,,,,,,,,,,,,,,,,,,,,,,,,,,,,,,,,,,,,,,,,,1.4006,997.174292199983,None,None,1,997.174292199983,None,,P036,FENCOG,2,Pre,2022_Apr_13_1119,N-Back (New Version 2021),2021.1.4,120.0163221904142,
,,,,Conditions/Version_1/zeroback(4)_v1.xlsx,New rule: Press 'space' when you see the letter 'x' or 'X'.,p,None,,,,,,,,,0,13,13,13,0,8,8,8,,,,,,,,,,,,,,,,,,,,,,,,,,,,,,,,,,,,,,,,,,,,,,,,,,,,,,,,,,,,,,,,,,,,,1.0534,1000.2448203999957,None,None,1,1000.2448203999957,None,,P036,FENCOG,2,Pre,2022_Apr_13_1119,N-Back (New Version 2021),2021.1.4,120.0163221904142,
,,,,Conditions/Version_1/zeroback(4)_v1.xlsx,New rule: Press 'space' when you see the letter 'x' or 'X'.,X,space,,,,,,,,,0,13,13,13,0,9,9,9,,,,,,,,,,,,,,,,,,,,,,,,,,,,,,,,,,,,,,,,,,,,,,,,,,,,,,,,,,,,,,,,,,,,,1.537,1003.7901067999774,None,space,1,1003.7901067999774,None,0.4341396999952849,P036,FENCOG,2,Pre,2022_Apr_13_1119,N-Back (New Version 2021),2021.1.4,120.0163221904142,
,,,,Conditions/Version_1/zeroback(4)_v1.xlsx,New rule: Press 'space' when you see the letter 'x' or 'X'.,,,,,,,,,,,0,13,13,13,,,,,,,,,,,,,,,,,,,,,,,,,,,,,,,,,,,,,,,,,,,,,,,,,,,,,,,,,,,,,,,,,,,,,,,,,,,,,,,,,P036,FENCOG,2,Pre,2022_Apr_13_1119,N-Back (New Version 2021),2021.1.4,120.0163221904142,
,,,,Conditions/Version_1/oneback(4)_v1.xlsx,New rule: Press 'space' when you see 1-back (i.e. the same letter as the one that appeared 1 letter ago.),w,None,,,,,,,,,0,14,14,14,0,0,0,0,,,,,,,,,,,,,,,,,,,,,,,,,,,,,,,,,,,,,,,,,,,,,,,,,,,,,,,,,,,1005.817908899975,None,1008.8056914999906,None,space,1.0192273999855388,1008.8056914999906,None,1005.817908899975,None,1.6052,1011.4691910999827,None,None,1,1011.4691910999827,None,,P036,FENCOG,2,Pre,2022_Apr_13_1119,N-Back (New Version 2021),2021.1.4,120.0163221904142,
,,,,Conditions/Version_1/oneback(4)_v1.xlsx,New rule: Press 'space' when you see 1-back (i.e. the same letter as the one that appeared 1 letter ago.),q,None,,,,,,,,,0,14,14,14,0,1,1,1,,,,,,,,,,,,,,,,,,,,,,,,,,,,,,,,,,,,,,,,,,,,,,,,,,,,,,,,,,,,,,,,,,,,,1.413,1014.8852264999878,None,None,1,1014.8852264999878,None,,P036,FENCOG,2,Pre,2022_Apr_13_1119,N-Back (New Version 2021),2021.1.4,120.0163221904142,
,,,,Conditions/Version_1/oneback(4)_v1.xlsx,New rule: Press 'space' when you see 1-back (i.e. the same letter as the one that appeared 1 letter ago.),i,None,,,,,,,,,0,14,14,14,0,2,2,2,,,,,,,,,,,,,,,,,,,,,,,,,,,,,,,,,,,,,,,,,,,,,,,,,,,,,,,,,,,,,,,,,,,,,1.4998,1018.3839292999764,None,None,1,1018.3839292999764,None,,P036,FENCOG,2,Pre,2022_Apr_13_1119,N-Back (New Version 2021),2021.1.4,120.0163221904142,
,,,,Conditions/Version_1/oneback(4)_v1.xlsx,New rule: Press 'space' when you see 1-back (i.e. the same letter as the one that appeared 1 letter ago.),t,None,,,,,,,,,0,14,14,14,0,3,3,3,,,,,,,,,,,,,,,,,,,,,,,,,,,,,,,,,,,,,,,,,,,,,,,,,,,,,,,,,,,,,,,,,,,,,1.1588,1021.541287799977,None,None,1,1021.541287799977,None,,P036,FENCOG,2,Pre,2022_Apr_13_1119,N-Back (New Version 2021),2021.1.4,120.0163221904142,
,,,,Conditions/Version_1/oneback(4)_v1.xlsx,New rule: Press 'space' when you see 1-back (i.e. the same letter as the one that appeared 1 letter ago.),v,None,,,,,,,,,0,14,14,14,0,4,4,4,,,,,,,,,,,,,,,,,,,,,,,,,,,,,,,,,,,,,,,,,,,,,,,,,,,,,,,,,,,,,,,,,,,,,1.1154,1024.658190199989,None,None,1,1024.658190199989,None,,P036,FENCOG,2,Pre,2022_Apr_13_1119,N-Back (New Version 2021),2021.1.4,120.0163221904142,
,,,,Conditions/Version_1/oneback(4)_v1.xlsx,New rule: Press 'space' when you see 1-back (i.e. the same letter as the one that appeared 1 letter ago.),V,space,,,,,,,,,0,14,14,14,0,5,5,5,,,,,,,,,,,,,,,,,,,,,,,,,,,,,,,,,,,,,,,,,,,,,,,,,,,,,,,,,,,,,,,,,,,,,1.2828,1027.9497094999824,None,space,1,1027.9497094999824,None,0.34626489999936894,P036,FENCOG,2,Pre,2022_Apr_13_1119,N-Back (New Version 2021),2021.1.4,120.0163221904142,
,,,,Conditions/Version_1/oneback(4)_v1.xlsx,New rule: Press 'space' when you see 1-back (i.e. the same letter as the one that appeared 1 letter ago.),v,space,,,,,,,,,0,14,14,14,0,6,6,6,,,,,,,,,,,,,,,,,,,,,,,,,,,,,,,,,,,,,,,,,,,,,,,,,,,,,,,,,,,,,,,,,,,,,1.1402,1031.1007565999753,None,space,1,1031.1007565999753,None,0.5233892999822274,P036,FENCOG,2,Pre,2022_Apr_13_1119,N-Back (New Version 2021),2021.1.4,120.0163221904142,
,,,,Conditions/Version_1/oneback(4)_v1.xlsx,New rule: Press 'space' when you see 1-back (i.e. the same letter as the one that appeared 1 letter ago.),p,None,,,,,,,,,0,14,14,14,0,7,7,7,,,,,,,,,,,,,,,,,,,,,,,,,,,,,,,,,,,,,,,,,,,,,,,,,,,,,,,,,,,,,,,,,,,,,1.3634,1034.4708576999838,None,None,1,1034.4708576999838,None,,P036,FENCOG,2,Pre,2022_Apr_13_1119,N-Back (New Version 2021),2021.1.4,120.0163221904142,
,,,,Conditions/Version_1/oneback(4)_v1.xlsx,New rule: Press 'space' when you see 1-back (i.e. the same letter as the one that appeared 1 letter ago.),w,None,,,,,,,,,0,14,14,14,0,8,8,8,,,,,,,,,,,,,,,,,,,,,,,,,,,,,,,,,,,,,,,,,,,,,,,,,,,,,,,,,,,,,,,,,,,,,1.0472,1037.519908999995,None,None,1,1037.519908999995,None,,P036,FENCOG,2,Pre,2022_Apr_13_1119,N-Back (New Version 2021),2021.1.4,120.0163221904142,
,,,,Conditions/Version_1/oneback(4)_v1.xlsx,New rule: Press 'space' when you see 1-back (i.e. the same letter as the one that appeared 1 letter ago.),W,space,,,,,,,,,0,14,14,14,0,9,9,9,,,,,,,,,,,,,,,,,,,,,,,,,,,,,,,,,,,,,,,,,,,,,,,,,,,,,,,,,,,,,,,,,,,,,1.8036,1041.3291908999963,None,space,1,1041.3291908999963,None,0.3429848999949172,P036,FENCOG,2,Pre,2022_Apr_13_1119,N-Back (New Version 2021),2021.1.4,120.0163221904142,
,,,,Conditions/Version_1/oneback(4)_v1.xlsx,New rule: Press 'space' when you see 1-back (i.e. the same letter as the one that appeared 1 letter ago.),,,,,,,,,,,0,14,14,14,,,,,,,,,,,,,,,,,,,,,,,,,,,,,,,,,,,,,,,,,,,,,,,,,,,,,,,,,,,,,,,,,,,,,,,,,,,,,,,,,P036,FENCOG,2,Pre,2022_Apr_13_1119,N-Back (New Version 2021),2021.1.4,120.0163221904142,
,,,,Conditions/Version_1/threeback(4)_v1.xlsx,New rule: Press 'space' when you see 3-back (i.e. the same letter as the one that appeared 3 letters ago.),A,None,,,,,,,,,0,15,15,15,0,0,0,0,,,,,,,,,,,,,,,,,,,,,,,,,,,,,,,,,,,,,,,,,,,,,,,,,,,,,,,,,,,1043.3561289999925,None,1046.343965899985,None,space,0.7680872999771964,1046.343965899985,None,1043.3561289999925,None,1.5928,1048.7361107000033,None,None,1,1048.7361107000033,None,,P036,FENCOG,2,Pre,2022_Apr_13_1119,N-Back (New Version 2021),2021.1.4,120.0163221904142,
,,,,Conditions/Version_1/threeback(4)_v1.xlsx,New rule: Press 'space' when you see 3-back (i.e. the same letter as the one that appeared 3 letters ago.),n,None,,,,,,,,,0,15,15,15,0,1,1,1,,,,,,,,,,,,,,,,,,,,,,,,,,,,,,,,,,,,,,,,,,,,,,,,,,,,,,,,,,,,,,,,,,,,,1.8284,1052.5772410999925,None,None,1,1052.5772410999925,None,,P036,FENCOG,2,Pre,2022_Apr_13_1119,N-Back (New Version 2021),2021.1.4,120.0163221904142,
,,,,Conditions/Version_1/threeback(4)_v1.xlsx,New rule: Press 'space' when you see 3-back (i.e. the same letter as the one that appeared 3 letters ago.),g,None,,,,,,,,,0,15,15,15,0,2,2,2,,,,,,,,,,,,,,,,,,,,,,,,,,,,,,,,,,,,,,,,,,,,,,,,,,,,,,,,,,,,,,,,,,,,,1.01,1055.5990624999977,None,None,1,1055.5990624999977,None,,P036,FENCOG,2,Pre,2022_Apr_13_1119,N-Back (New Version 2021),2021.1.4,120.0163221904142,
,,,,Conditions/Version_1/threeback(4)_v1.xlsx,New rule: Press 'space' when you see 3-back (i.e. the same letter as the one that appeared 3 letters ago.),A,space,,,,,,,,,0,15,15,15,0,3,3,3,,,,,,,,,,,,,,,,,,,,,,,,,,,,,,,,,,,,,,,,,,,,,,,,,,,,,,,,,,,,,,,,,,,,,1.3076,1058.9140751999803,None,space,1,1058.9140751999803,None,0.6138654000242241,P036,FENCOG,2,Pre,2022_Apr_13_1119,N-Back (New Version 2021),2021.1.4,120.0163221904142,
,,,,Conditions/Version_1/threeback(4)_v1.xlsx,New rule: Press 'space' when you see 3-back (i.e. the same letter as the one that appeared 3 letters ago.),p,None,,,,,,,,,0,15,15,15,0,4,4,4,,,,,,,,,,,,,,,,,,,,,,,,,,,,,,,,,,,,,,,,,,,,,,,,,,,,,,,,,,,,,,,,,,,,,1.2518,1062.1737109999813,None,None,1,1062.1737109999813,None,,P036,FENCOG,2,Pre,2022_Apr_13_1119,N-Back (New Version 2021),2021.1.4,120.0163221904142,
,,,,Conditions/Version_1/threeback(4)_v1.xlsx,New rule: Press 'space' when you see 3-back (i.e. the same letter as the one that appeared 3 letters ago.),O,None,,,,,,,,,0,15,15,15,0,5,5,5,,,,,,,,,,,,,,,,,,,,,,,,,,,,,,,,,,,,,,,,,,,,,,,,,,,,,,,,,,,,,,,,,,,,,1.1464,1065.3283615999972,None,None,1,1065.3283615999972,None,,P036,FENCOG,2,Pre,2022_Apr_13_1119,N-Back (New Version 2021),2021.1.4,120.0163221904142,
,,,,Conditions/Version_1/threeback(4)_v1.xlsx,New rule: Press 'space' when you see 3-back (i.e. the same letter as the one that appeared 3 letters ago.),a,space,,,,,,,,,0,15,15,15,0,6,6,6,,,,,,,,,,,,,,,,,,,,,,,,,,,,,,,,,,,,,,,,,,,,,,,,,,,,,,,,,,,,,,,,,,,,,1.6362,1068.96908119999,None,space,1,1068.96908119999,None,0.4391448000096716,P036,FENCOG,2,Pre,2022_Apr_13_1119,N-Back (New Version 2021),2021.1.4,120.0163221904142,
,,,,Conditions/Version_1/threeback(4)_v1.xlsx,New rule: Press 'space' when you see 3-back (i.e. the same letter as the one that appeared 3 letters ago.),p,space,,,,,,,,,0,15,15,15,0,7,7,7,,,,,,,,,,,,,,,,,,,,,,,,,,,,,,,,,,,,,,,,,,,,,,,,,,,,,,,,,,,,,,,,,,,,,1.3882,1072.3597014999832,None,space,1,1072.3597014999832,None,0.8004122999846004,P036,FENCOG,2,Pre,2022_Apr_13_1119,N-Back (New Version 2021),2021.1.4,120.0163221904142,
,,,,Conditions/Version_1/threeback(4)_v1.xlsx,New rule: Press 'space' when you see 3-back (i.e. the same letter as the one that appeared 3 letters ago.),x,None,,,,,,,,,0,15,15,15,0,8,8,8,,,,,,,,,,,,,,,,,,,,,,,,,,,,,,,,,,,,,,,,,,,,,,,,,,,,,,,,,,,,,,,,,,,,,1.8408,1076.2001422999892,None,None,1,1076.2001422999892,None,,P036,FENCOG,2,Pre,2022_Apr_13_1119,N-Back (New Version 2021),2021.1.4,120.0163221904142,
,,,,Conditions/Version_1/threeback(4)_v1.xlsx,New rule: Press 'space' when you see 3-back (i.e. the same letter as the one that appeared 3 letters ago.),X,None,,,,,,,,,0,15,15,15,0,9,9,9,,,,,,,,,,,,,,,,,,,,,,,,,,,,,,,,,,,,,,,,,,,,,,,,,,,,,,,,,,,,,,,,,,,,,1.7974,1079.9990070999775,None,None,1,1079.9990070999775,None,,P036,FENCOG,2,Pre,2022_Apr_13_1119,N-Back (New Version 2021),2021.1.4,120.0163221904142,
,,,,Conditions/Version_1/threeback(4)_v1.xlsx,New rule: Press 'space' when you see 3-back (i.e. the same letter as the one that appeared 3 letters ago.),,,,,,,,,,,0,15,15,15,,,,,,,,,,,,,,,,,,,,,,,,,,,,,,,,,,,,,,,,,,,,,,,,,,,,,,,,,,,,,,,,,,,,,,,,,,,,,,,,,P036,FENCOG,2,Pre,2022_Apr_13_1119,N-Back (New Version 2021),2021.1.4,120.0163221904142,
