CondFileP,InstructionsP,LettersDisplayedP,CorrectnessP,CondFile,Instructions,LettersDisplayed,Correctness,practicetrials.thisRepN,practicetrials.thisTrialN,practicetrials.thisN,practicetrials.thisIndex,InnerLoopPractice.thisRepN,InnerLoopPractice.thisTrialN,InnerLoopPractice.thisN,InnerLoopPractice.thisIndex,trials.thisRepN,trials.thisTrialN,trials.thisN,trials.thisIndex,InnerLoop.thisRepN,InnerLoop.thisTrialN,InnerLoop.thisN,InnerLoop.thisIndex,TaskVersionText.started,TaskVersionText.stopped,InstrKey1.keys,InstrKey1.rt,InstrKey1.started,InstrKey1.stopped,text.started,text.stopped,key_resp_4.keys,key_resp_4.rt,key_resp_4.started,key_resp_4.stopped,text_2.started,text_2.stopped,key_resp_3.keys,key_resp_3.rt,key_resp_3.started,key_resp_3.stopped,text_3.started,text_3.stopped,key_resp_2.keys,key_resp_2.rt,key_resp_2.started,key_resp_2.stopped,PractIn1.started,PractIn1.stopped,PractIn2.started,PractIn2.stopped,PractInstructionPass.keys,PractInstructionPass.rt,PractInstructionPass.started,PractInstructionPass.stopped,PractBlock1.started,PractBlock1.stopped,ISIjitterPractice,ISI_Pract_Fixation.started,ISI_Pract_Fixation.stopped,N_backP.started,N_backP.stopped,KeyPractice.keys,KeyPractice.corr,KeyPractice.started,KeyPractice.stopped,text_4.started,text_4.stopped,KeyPractice.rt,TransitionText.started,TransitionText.stopped,key_resp_6.keys,key_resp_6.rt,key_resp_6.started,key_resp_6.stopped,text_5.started,text_5.stopped,key_resp_5.keys,key_resp_5.rt,key_resp_5.started,key_resp_5.stopped,MainInt1.started,MainInt1.stopped,MainInt2.started,MainInt2.stopped,InstructionPass.keys,InstructionPass.rt,InstructionPass.started,InstructionPass.stopped,Blocks1.started,Blocks1.stopped,ISIjitter,N_backD.started,N_backD.stopped,key_resp.keys,key_resp.corr,key_resp.started,key_resp.stopped,key_resp.rt,participant,Study Name,Task Version (required to run),PRE/POST,date,expName,psychopyVersion,frameRate
,,,,,,,,,,,,,,,,,,,,,,,,35.8817446,None,space,37.3462252,36.3782352,None,,,,,,,,,,,,,,,,,,,,,,,,,,,,,,,,,,,,,,,,,,,,,,,,,,,,,,,,,,,,,,,,,,,,,,,P036,fencog,1,Post,2022_Apr_21_1219,N-Back (New Version 2021),2021.1.4,120.214848
,,,,,,,,,,,,,,,,,,,,,,,,,,,,,,73.7595047,None,space,9.4092775,74.2510254,None,,,,,,,,,,,,,,,,,,,,,,,,,,,,,,,,,,,,,,,,,,,,,,,,,,,,,,,,,,,,,,,,,P036,fencog,1,Post,2022_Apr_21_1219,N-Back (New Version 2021),2021.1.4,120.214848
,,,,,,,,,,,,,,,,,,,,,,,,,,,,,,,,,,,,83.6980661,None,space,4.2866334,84.1899306,None,,,,,,,,,,,,,,,,,,,,,,,,,,,,,,,,,,,,,,,,,,,,,,,,,,,,,,,,,,,P036,fencog,1,Post,2022_Apr_21_1219,N-Back (New Version 2021),2021.1.4,120.214848
,,,,,,,,,,,,,,,,,,,,,,,,,,,,,,,,,,,,,,,,,,88.5069042,None,space,0.399985,88.9966994,None,,,,,,,,,,,,,,,,,,,,,,,,,,,,,,,,,,,,,,,,,,,,,,,,,,,,,P036,fencog,1,Post,2022_Apr_21_1219,N-Back (New Version 2021),2021.1.4,120.214848
Conditions/Version_1Pr/zeroback(1)_v1.xlsx,Rule: Press 'space' when you see the letter 'x' or 'X'.,Z,None,,,,,0,0,0,0,0,0,0,0,,,,,,,,,,,,,,,,,,,,,,,,,,,,,,,,,90.828461,None,93.8128912,None,space,0.3996494,93.8128912,None,90.828461,None,1.64,94.2419043,None,95.8889033,None,None,1,95.8889033,None,97.8935278,None,,,,,,,,,,,,,,,,,,,,,,,,,,,,,,,,P036,fencog,1,Post,2022_Apr_21_1219,N-Back (New Version 2021),2021.1.4,120.214848
Conditions/Version_1Pr/zeroback(1)_v1.xlsx,Rule: Press 'space' when you see the letter 'x' or 'X'.,r,None,,,,,0,0,0,0,0,1,1,1,,,,,,,,,,,,,,,,,,,,,,,,,,,,,,,,,,,,,,,,,,,1.565,99.3928196,None,100.9645121,None,None,1,100.9645121,None,102.9668613,None,,,,,,,,,,,,,,,,,,,,,,,,,,,,,,,,P036,fencog,1,Post,2022_Apr_21_1219,N-Back (New Version 2021),2021.1.4,120.214848
Conditions/Version_1Pr/zeroback(1)_v1.xlsx,Rule: Press 'space' when you see the letter 'x' or 'X'.,X,space,,,,,0,0,0,0,0,2,2,2,,,,,,,,,,,,,,,,,,,,,,,,,,,,,,,,,,,,,,,,,,,1.19,104.4663343,None,105.6589503,None,space,1,105.6589503,None,106.0268639,None,0.3533208,,,,,,,,,,,,,,,,,,,,,,,,,,,,,,,P036,fencog,1,Post,2022_Apr_21_1219,N-Back (New Version 2021),2021.1.4,120.214848
Conditions/Version_1Pr/zeroback(1)_v1.xlsx,Rule: Press 'space' when you see the letter 'x' or 'X'.,p,None,,,,,0,0,0,0,0,3,3,3,,,,,,,,,,,,,,,,,,,,,,,,,,,,,,,,,,,,,,,,,,,1.29,107.53307,None,108.8251329,None,None,1,108.8251329,None,110.8311925,None,,,,,,,,,,,,,,,,,,,,,,,,,,,,,,,,P036,fencog,1,Post,2022_Apr_21_1219,N-Back (New Version 2021),2021.1.4,120.214848
Conditions/Version_1Pr/zeroback(1)_v1.xlsx,Rule: Press 'space' when you see the letter 'x' or 'X'.,w,None,,,,,0,0,0,0,0,4,4,4,,,,,,,,,,,,,,,,,,,,,,,,,,,,,,,,,,,,,,,,,,,1.715,112.33082,None,114.0482442,None,None,1,114.0482442,None,116.0490147,None,,,,,,,,,,,,,,,,,,,,,,,,,,,,,,,,P036,fencog,1,Post,2022_Apr_21_1219,N-Back (New Version 2021),2021.1.4,120.214848
Conditions/Version_1Pr/zeroback(1)_v1.xlsx,Rule: Press 'space' when you see the letter 'x' or 'X'.,e,None,,,,,0,0,0,0,0,5,5,5,,,,,,,,,,,,,,,,,,,,,,,,,,,,,,,,,,,,,,,,,,,1.69,117.5542045,None,119.2471249,None,None,1,119.2471249,None,121.2531598,None,,,,,,,,,,,,,,,,,,,,,,,,,,,,,,,,P036,fencog,1,Post,2022_Apr_21_1219,N-Back (New Version 2021),2021.1.4,120.214848
Conditions/Version_1Pr/zeroback(1)_v1.xlsx,Rule: Press 'space' when you see the letter 'x' or 'X'.,X,space,,,,,0,0,0,0,0,6,6,6,,,,,,,,,,,,,,,,,,,,,,,,,,,,,,,,,,,,,,,,,,,1.465,122.7522615,None,124.218809,None,space,1,124.218809,None,124.6804899,None,0.4497787,,,,,,,,,,,,,,,,,,,,,,,,,,,,,,,P036,fencog,1,Post,2022_Apr_21_1219,N-Back (New Version 2021),2021.1.4,120.214848
Conditions/Version_1Pr/zeroback(1)_v1.xlsx,Rule: Press 'space' when you see the letter 'x' or 'X'.,x,space,,,,,0,0,0,0,0,7,7,7,,,,,,,,,,,,,,,,,,,,,,,,,,,,,,,,,,,,,,,,,,,1.265,126.1882089,None,127.4601093,None,space,1,127.4601093,None,127.9011974,None,0.43225,,,,,,,,,,,,,,,,,,,,,,,,,,,,,,,P036,fencog,1,Post,2022_Apr_21_1219,N-Back (New Version 2021),2021.1.4,120.214848
Conditions/Version_1Pr/zeroback(1)_v1.xlsx,Rule: Press 'space' when you see the letter 'x' or 'X'.,p,None,,,,,0,0,0,0,0,8,8,8,,,,,,,,,,,,,,,,,,,,,,,,,,,,,,,,,,,,,,,,,,,1.115,129.400317,None,130.5166645,None,None,1,130.5166645,None,132.5160995,None,,,,,,,,,,,,,,,,,,,,,,,,,,,,,,,,P036,fencog,1,Post,2022_Apr_21_1219,N-Back (New Version 2021),2021.1.4,120.214848
Conditions/Version_1Pr/zeroback(1)_v1.xlsx,Rule: Press 'space' when you see the letter 'x' or 'X'.,r,None,,,,,0,0,0,0,0,9,9,9,,,,,,,,,,,,,,,,,,,,,,,,,,,,,,,,,,,,,,,,,,,1.59,134.015613,None,135.6068695,None,None,1,135.6068695,None,137.6062417,None,,,,,,,,,,,,,,,,,,,,,,,,,,,,,,,,P036,fencog,1,Post,2022_Apr_21_1219,N-Back (New Version 2021),2021.1.4,120.214848
Conditions/Version_1Pr/zeroback(1)_v1.xlsx,Rule: Press 'space' when you see the letter 'x' or 'X'.,,,,,,,0,0,0,0,,,,,,,,,,,,,,,,,,,,,,,,,,,,,,,,,,,,,,,,,,,,,,,,,,,,,,,,,,,,,,,,,,,,,,,,,,,,,,,,,,,,,,,,,P036,fencog,1,Post,2022_Apr_21_1219,N-Back (New Version 2021),2021.1.4,120.214848
Conditions/Version_1Pr/oneback(1)_v1.xlsx,New rule: Press 'space' when you see 1-back (i.e. the same letter as the one that appeared 1 letter ago.),a,None,,,,,0,1,1,1,0,0,0,0,,,,,,,,,,,,,,,,,,,,,,,,,,,,,,,,,139.1282245,None,142.1154097,None,space,4.2248592,142.1154097,None,139.1282245,None,1.49,146.3730516,None,147.8712334,None,None,1,147.8712334,None,149.877613,None,,,,,,,,,,,,,,,,,,,,,,,,,,,,,,,,P036,fencog,1,Post,2022_Apr_21_1219,N-Back (New Version 2021),2021.1.4,120.214848
Conditions/Version_1Pr/oneback(1)_v1.xlsx,New rule: Press 'space' when you see 1-back (i.e. the same letter as the one that appeared 1 letter ago.),x,None,,,,,0,1,1,1,0,1,1,1,,,,,,,,,,,,,,,,,,,,,,,,,,,,,,,,,,,,,,,,,,,1.415,151.3771471,None,152.7934254,None,None,1,152.7934254,None,154.7928438,None,,,,,,,,,,,,,,,,,,,,,,,,,,,,,,,,P036,fencog,1,Post,2022_Apr_21_1219,N-Back (New Version 2021),2021.1.4,120.214848
Conditions/Version_1Pr/oneback(1)_v1.xlsx,New rule: Press 'space' when you see 1-back (i.e. the same letter as the one that appeared 1 letter ago.),g,None,,,,,0,1,1,1,0,2,2,2,,,,,,,,,,,,,,,,,,,,,,,,,,,,,,,,,,,,,,,,,,,1.765,156.2924423,None,158.0592852,None,None,1,158.0592852,None,160.0662877,None,,,,,,,,,,,,,,,,,,,,,,,,,,,,,,,,P036,fencog,1,Post,2022_Apr_21_1219,N-Back (New Version 2021),2021.1.4,120.214848
Conditions/Version_1Pr/oneback(1)_v1.xlsx,New rule: Press 'space' when you see 1-back (i.e. the same letter as the one that appeared 1 letter ago.),G,space,,,,,0,1,1,1,0,3,3,3,,,,,,,,,,,,,,,,,,,,,,,,,,,,,,,,,,,,,,,,,,,1.84,161.5658284,None,163.4073315,None,space,1,163.4073315,None,163.7656702,None,0.3489508,,,,,,,,,,,,,,,,,,,,,,,,,,,,,,,P036,fencog,1,Post,2022_Apr_21_1219,N-Back (New Version 2021),2021.1.4,120.214848
Conditions/Version_1Pr/oneback(1)_v1.xlsx,New rule: Press 'space' when you see 1-back (i.e. the same letter as the one that appeared 1 letter ago.),u,None,,,,,0,1,1,1,0,4,4,4,,,,,,,,,,,,,,,,,,,,,,,,,,,,,,,,,,,,,,,,,,,1.09,165.2647338,None,166.3565645,None,None,1,166.3565645,None,168.3638397,None,,,,,,,,,,,,,,,,,,,,,,,,,,,,,,,,P036,fencog,1,Post,2022_Apr_21_1219,N-Back (New Version 2021),2021.1.4,120.214848
Conditions/Version_1Pr/oneback(1)_v1.xlsx,New rule: Press 'space' when you see 1-back (i.e. the same letter as the one that appeared 1 letter ago.),y,None,,,,,0,1,1,1,0,5,5,5,,,,,,,,,,,,,,,,,,,,,,,,,,,,,,,,,,,,,,,,,,,1.44,169.8634107,None,171.3048355,None,None,1,171.3048355,None,173.3040653,None,,,,,,,,,,,,,,,,,,,,,,,,,,,,,,,,P036,fencog,1,Post,2022_Apr_21_1219,N-Back (New Version 2021),2021.1.4,120.214848
Conditions/Version_1Pr/oneback(1)_v1.xlsx,New rule: Press 'space' when you see 1-back (i.e. the same letter as the one that appeared 1 letter ago.),y,space,,,,,0,1,1,1,0,6,6,6,,,,,,,,,,,,,,,,,,,,,,,,,,,,,,,,,,,,,,,,,,,1.14,174.8038235,None,175.9449199,None,space,1,175.9449199,None,176.520443,None,0.5633477,,,,,,,,,,,,,,,,,,,,,,,,,,,,,,,P036,fencog,1,Post,2022_Apr_21_1219,N-Back (New Version 2021),2021.1.4,120.214848
Conditions/Version_1Pr/oneback(1)_v1.xlsx,New rule: Press 'space' when you see 1-back (i.e. the same letter as the one that appeared 1 letter ago.),k,None,,,,,0,1,1,1,0,7,7,7,,,,,,,,,,,,,,,,,,,,,,,,,,,,,,,,,,,,,,,,,,,1.315,178.0276132,None,179.3438547,None,None,1,179.3438547,None,181.3433548,None,,,,,,,,,,,,,,,,,,,,,,,,,,,,,,,,P036,fencog,1,Post,2022_Apr_21_1219,N-Back (New Version 2021),2021.1.4,120.214848
Conditions/Version_1Pr/oneback(1)_v1.xlsx,New rule: Press 'space' when you see 1-back (i.e. the same letter as the one that appeared 1 letter ago.),c,None,,,,,0,1,1,1,0,8,8,8,,,,,,,,,,,,,,,,,,,,,,,,,,,,,,,,,,,,,,,,,,,1.465,182.8428852,None,184.3102621,None,None,1,184.3102621,None,186.3168696,None,,,,,,,,,,,,,,,,,,,,,,,,,,,,,,,,P036,fencog,1,Post,2022_Apr_21_1219,N-Back (New Version 2021),2021.1.4,120.214848
Conditions/Version_1Pr/oneback(1)_v1.xlsx,New rule: Press 'space' when you see 1-back (i.e. the same letter as the one that appeared 1 letter ago.),r,None,,,,,0,1,1,1,0,9,9,9,,,,,,,,,,,,,,,,,,,,,,,,,,,,,,,,,,,,,,,,,,,1.365,187.8163597,None,189.1825977,None,None,1,189.1825977,None,191.1823222,None,,,,,,,,,,,,,,,,,,,,,,,,,,,,,,,,P036,fencog,1,Post,2022_Apr_21_1219,N-Back (New Version 2021),2021.1.4,120.214848
Conditions/Version_1Pr/oneback(1)_v1.xlsx,New rule: Press 'space' when you see 1-back (i.e. the same letter as the one that appeared 1 letter ago.),,,,,,,0,1,1,1,,,,,,,,,,,,,,,,,,,,,,,,,,,,,,,,,,,,,,,,,,,,,,,,,,,,,,,,,,,,,,,,,,,,,,,,,,,,,,,,,,,,,,,,,P036,fencog,1,Post,2022_Apr_21_1219,N-Back (New Version 2021),2021.1.4,120.214848
Conditions/Version_1Pr/twoback(1)_v1.xlsx,New rule: Press 'space' when you see 2-back (i.e. the same letter as the one that appeared 2 letters ago.),E,None,,,,,0,2,2,2,0,0,0,0,,,,,,,,,,,,,,,,,,,,,,,,,,,,,,,,,192.7054876,None,195.6907339,None,space,0.4174381,195.6907339,None,192.7054876,None,1.24,196.1404842,None,197.3820537,None,None,1,197.3820537,None,199.3879959,None,,,,,,,,,,,,,,,,,,,,,,,,,,,,,,,,P036,fencog,1,Post,2022_Apr_21_1219,N-Back (New Version 2021),2021.1.4,120.214848
Conditions/Version_1Pr/twoback(1)_v1.xlsx,New rule: Press 'space' when you see 2-back (i.e. the same letter as the one that appeared 2 letters ago.),p,None,,,,,0,2,2,2,0,1,1,1,,,,,,,,,,,,,,,,,,,,,,,,,,,,,,,,,,,,,,,,,,,1.765,200.8878934,None,202.6579719,None,None,1,202.6579719,None,204.661816,None,,,,,,,,,,,,,,,,,,,,,,,,,,,,,,,,P036,fencog,1,Post,2022_Apr_21_1219,N-Back (New Version 2021),2021.1.4,120.214848
Conditions/Version_1Pr/twoback(1)_v1.xlsx,New rule: Press 'space' when you see 2-back (i.e. the same letter as the one that appeared 2 letters ago.),e,space,,,,,0,2,2,2,0,2,2,2,,,,,,,,,,,,,,,,,,,,,,,,,,,,,,,,,,,,,,,,,,,1.84,206.1612134,None,208.0046034,None,space,1,208.0046034,None,208.4036978,None,0.3839118,,,,,,,,,,,,,,,,,,,,,,,,,,,,,,,P036,fencog,1,Post,2022_Apr_21_1219,N-Back (New Version 2021),2021.1.4,120.214848
Conditions/Version_1Pr/twoback(1)_v1.xlsx,New rule: Press 'space' when you see 2-back (i.e. the same letter as the one that appeared 2 letters ago.),s,None,,,,,0,2,2,2,0,3,3,3,,,,,,,,,,,,,,,,,,,,,,,,,,,,,,,,,,,,,,,,,,,1.54,209.9102475,None,211.4522125,None,None,1,211.4522125,None,213.4592602,None,,,,,,,,,,,,,,,,,,,,,,,,,,,,,,,,P036,fencog,1,Post,2022_Apr_21_1219,N-Back (New Version 2021),2021.1.4,120.214848
Conditions/Version_1Pr/twoback(1)_v1.xlsx,New rule: Press 'space' when you see 2-back (i.e. the same letter as the one that appeared 2 letters ago.),S,None,,,,,0,2,2,2,0,4,4,4,,,,,,,,,,,,,,,,,,,,,,,,,,,,,,,,,,,,,,,,,,,1.94,214.9587631,None,216.90423,None,None,1,216.90423,None,218.904647,None,,,,,,,,,,,,,,,,,,,,,,,,,,,,,,,,P036,fencog,1,Post,2022_Apr_21_1219,N-Back (New Version 2021),2021.1.4,120.214848
Conditions/Version_1Pr/twoback(1)_v1.xlsx,New rule: Press 'space' when you see 2-back (i.e. the same letter as the one that appeared 2 letters ago.),s,space,,,,,0,2,2,2,0,5,5,5,,,,,,,,,,,,,,,,,,,,,,,,,,,,,,,,,,,,,,,,,,,1.115,220.4072411,None,221.5235288,None,space,1,221.5235288,None,221.9371381,None,0.4007076,,,,,,,,,,,,,,,,,,,,,,,,,,,,,,,P036,fencog,1,Post,2022_Apr_21_1219,N-Back (New Version 2021),2021.1.4,120.214848
Conditions/Version_1Pr/twoback(1)_v1.xlsx,New rule: Press 'space' when you see 2-back (i.e. the same letter as the one that appeared 2 letters ago.),P,None,,,,,0,2,2,2,0,6,6,6,,,,,,,,,,,,,,,,,,,,,,,,,,,,,,,,,,,,,,,,,,,1.365,223.439596,None,224.8095251,None,None,1,224.8095251,None,226.8136493,None,,,,,,,,,,,,,,,,,,,,,,,,,,,,,,,,P036,fencog,1,Post,2022_Apr_21_1219,N-Back (New Version 2021),2021.1.4,120.214848
Conditions/Version_1Pr/twoback(1)_v1.xlsx,New rule: Press 'space' when you see 2-back (i.e. the same letter as the one that appeared 2 letters ago.),C,None,,,,,0,2,2,2,0,7,7,7,,,,,,,,,,,,,,,,,,,,,,,,,,,,,,,,,,,,,,,,,,,1.065,228.3131657,None,229.3812601,None,None,1,229.3812601,None,231.3872593,None,,,,,,,,,,,,,,,,,,,,,,,,,,,,,,,,P036,fencog,1,Post,2022_Apr_21_1219,N-Back (New Version 2021),2021.1.4,120.214848
Conditions/Version_1Pr/twoback(1)_v1.xlsx,New rule: Press 'space' when you see 2-back (i.e. the same letter as the one that appeared 2 letters ago.),x,None,,,,,0,2,2,2,0,8,8,8,,,,,,,,,,,,,,,,,,,,,,,,,,,,,,,,,,,,,,,,,,,1.29,232.8867941,None,234.1815352,None,None,1,234.1815352,None,236.1857022,None,,,,,,,,,,,,,,,,,,,,,,,,,,,,,,,,P036,fencog,1,Post,2022_Apr_21_1219,N-Back (New Version 2021),2021.1.4,120.214848
Conditions/Version_1Pr/twoback(1)_v1.xlsx,New rule: Press 'space' when you see 2-back (i.e. the same letter as the one that appeared 2 letters ago.),Z,None,,,,,0,2,2,2,0,9,9,9,,,,,,,,,,,,,,,,,,,,,,,,,,,,,,,,,,,,,,,,,,,1.69,237.6853629,None,239.3772678,None,None,1,239.3772678,None,241.3831561,None,,,,,,,,,,,,,,,,,,,,,,,,,,,,,,,,P036,fencog,1,Post,2022_Apr_21_1219,N-Back (New Version 2021),2021.1.4,120.214848
Conditions/Version_1Pr/twoback(1)_v1.xlsx,New rule: Press 'space' when you see 2-back (i.e. the same letter as the one that appeared 2 letters ago.),,,,,,,0,2,2,2,,,,,,,,,,,,,,,,,,,,,,,,,,,,,,,,,,,,,,,,,,,,,,,,,,,,,,,,,,,,,,,,,,,,,,,,,,,,,,,,,,,,,,,,,P036,fencog,1,Post,2022_Apr_21_1219,N-Back (New Version 2021),2021.1.4,120.214848
Conditions/Version_1Pr/threeback(1)_v1.xlsx,New rule: Press 'space' when you see 3-back (i.e. the same letter as the one that appeared 3 letters ago.),r,None,,,,,0,3,3,3,0,0,0,0,,,,,,,,,,,,,,,,,,,,,,,,,,,,,,,,,242.9165784,None,245.8935018,None,space,0.3587402,245.8935018,None,242.9165784,None,1.09,246.2819933,None,247.3785328,None,None,1,247.3785328,None,249.3819533,None,,,,,,,,,,,,,,,,,,,,,,,,,,,,,,,,P036,fencog,1,Post,2022_Apr_21_1219,N-Back (New Version 2021),2021.1.4,120.214848
Conditions/Version_1Pr/threeback(1)_v1.xlsx,New rule: Press 'space' when you see 3-back (i.e. the same letter as the one that appeared 3 letters ago.),a,None,,,,,0,3,3,3,0,1,1,1,,,,,,,,,,,,,,,,,,,,,,,,,,,,,,,,,,,,,,,,,,,1.39,250.8814974,None,252.2725458,None,None,1,252.2725458,None,254.2721484,None,,,,,,,,,,,,,,,,,,,,,,,,,,,,,,,,P036,fencog,1,Post,2022_Apr_21_1219,N-Back (New Version 2021),2021.1.4,120.214848
Conditions/Version_1Pr/threeback(1)_v1.xlsx,New rule: Press 'space' when you see 3-back (i.e. the same letter as the one that appeared 3 letters ago.),t,None,,,,,0,3,3,3,0,2,2,2,,,,,,,,,,,,,,,,,,,,,,,,,,,,,,,,,,,,,,,,,,,1.14,255.7716971,None,256.9140923,None,None,1,256.9140923,None,258.9163256,None,,,,,,,,,,,,,,,,,,,,,,,,,,,,,,,,P036,fencog,1,Post,2022_Apr_21_1219,N-Back (New Version 2021),2021.1.4,120.214848
Conditions/Version_1Pr/threeback(1)_v1.xlsx,New rule: Press 'space' when you see 3-back (i.e. the same letter as the one that appeared 3 letters ago.),r,space,,,,,0,3,3,3,0,3,3,3,,,,,,,,,,,,,,,,,,,,,,,,,,,,,,,,,,,,,,,,,,,1.115,260.4203789,None,261.5364554,None,space,1,261.5364554,None,262.0129136,None,0.4676993,,,,,,,,,,,,,,,,,,,,,,,,,,,,,,,P036,fencog,1,Post,2022_Apr_21_1219,N-Back (New Version 2021),2021.1.4,120.214848
Conditions/Version_1Pr/threeback(1)_v1.xlsx,New rule: Press 'space' when you see 3-back (i.e. the same letter as the one that appeared 3 letters ago.),a,None,,,,,0,3,3,3,0,4,4,4,,,,,,,,,,,,,,,,,,,,,,,,,,,,,,,,,,,,,,,,,,,1.79,263.5195158,None,265.3123444,None,space,0,265.3123444,None,265.7576237,None,0.4278757,,,,,,,,,,,,,,,,,,,,,,,,,,,,,,,P036,fencog,1,Post,2022_Apr_21_1219,N-Back (New Version 2021),2021.1.4,120.214848
Conditions/Version_1Pr/threeback(1)_v1.xlsx,New rule: Press 'space' when you see 3-back (i.e. the same letter as the one that appeared 3 letters ago.),Y,None,,,,,0,3,3,3,0,5,5,5,,,,,,,,,,,,,,,,,,,,,,,,,,,,,,,,,,,,,,,,,,,1.965,267.2599864,None,269.2283235,None,None,1,269.2283235,None,271.2352574,None,,,,,,,,,,,,,,,,,,,,,,,,,,,,,,,,P036,fencog,1,Post,2022_Apr_21_1219,N-Back (New Version 2021),2021.1.4,120.214848
Conditions/Version_1Pr/threeback(1)_v1.xlsx,New rule: Press 'space' when you see 3-back (i.e. the same letter as the one that appeared 3 letters ago.),q,None,,,,,0,3,3,3,0,6,6,6,,,,,,,,,,,,,,,,,,,,,,,,,,,,,,,,,,,,,,,,,,,1.515,272.7333934,None,274.2540271,None,None,1,274.2540271,None,276.2580833,None,,,,,,,,,,,,,,,,,,,,,,,,,,,,,,,,P036,fencog,1,Post,2022_Apr_21_1219,N-Back (New Version 2021),2021.1.4,120.214848
Conditions/Version_1Pr/threeback(1)_v1.xlsx,New rule: Press 'space' when you see 3-back (i.e. the same letter as the one that appeared 3 letters ago.),A,space,,,,,0,3,3,3,0,7,7,7,,,,,,,,,,,,,,,,,,,,,,,,,,,,,,,,,,,,,,,,,,,1.615,277.756935,None,279.3756594,None,space,1,279.3756594,None,279.7749149,None,0.3886193,,,,,,,,,,,,,,,,,,,,,,,,,,,,,,,P036,fencog,1,Post,2022_Apr_21_1219,N-Back (New Version 2021),2021.1.4,120.214848
Conditions/Version_1Pr/threeback(1)_v1.xlsx,New rule: Press 'space' when you see 3-back (i.e. the same letter as the one that appeared 3 letters ago.),y,None,,,,,0,3,3,3,0,8,8,8,,,,,,,,,,,,,,,,,,,,,,,,,,,,,,,,,,,,,,,,,,,1.765,281.28086,None,283.046796,None,space,0,283.046796,None,283.5086422,None,0.445454,,,,,,,,,,,,,,,,,,,,,,,,,,,,,,,P036,fencog,1,Post,2022_Apr_21_1219,N-Back (New Version 2021),2021.1.4,120.214848
Conditions/Version_1Pr/threeback(1)_v1.xlsx,New rule: Press 'space' when you see 3-back (i.e. the same letter as the one that appeared 3 letters ago.),r,None,,,,,0,3,3,3,0,9,9,9,,,,,,,,,,,,,,,,,,,,,,,,,,,,,,,,,,,,,,,,,,,1.24,285.0133889,None,286.2542299,None,None,1,286.2542299,None,288.2558278,None,,,,,,,,,,,,,,,,,,,,,,,,,,,,,,,,P036,fencog,1,Post,2022_Apr_21_1219,N-Back (New Version 2021),2021.1.4,120.214848
Conditions/Version_1Pr/threeback(1)_v1.xlsx,New rule: Press 'space' when you see 3-back (i.e. the same letter as the one that appeared 3 letters ago.),,,,,,,0,3,3,3,,,,,,,,,,,,,,,,,,,,,,,,,,,,,,,,,,,,,,,,,,,,,,,,,,,,,,,,,,,,,,,,,,,,,,,,,,,,,,,,,,,,,,,,,P036,fencog,1,Post,2022_Apr_21_1219,N-Back (New Version 2021),2021.1.4,120.214848
,,,,,,,,,,,,,,,,,,,,,,,,,,,,,,,,,,,,,,,,,,,,,,,,,,,,,,,,,,,,,,,,,,,,,,289.7677355,None,space,1.2386115,290.2617532,None,,,,,,,,,,,,,,,,,,,,,,,,,P036,fencog,1,Post,2022_Apr_21_1219,N-Back (New Version 2021),2021.1.4,120.214848
,,,,,,,,,,,,,,,,,,,,,,,,,,,,,,,,,,,,,,,,,,,,,,,,,,,,,,,,,,,,,,,,,,,,,,,,,,,,291.5262626,None,space,1.9848145,292.0115255,None,,,,,,,,,,,,,,,,,,,P036,fencog,1,Post,2022_Apr_21_1219,N-Back (New Version 2021),2021.1.4,120.214848
,,,,Conditions/Version_1/zeroback(1)_v1.xlsx,Rule: Press 'space' when you see the letter 'x' or 'X'.,b,None,,,,,,,,,0,0,0,0,0,0,0,0,,,,,,,,,,,,,,,,,,,,,,,,,,,,,,,,,,,,,,,,,,,,,,,,,,,,,,,,,,,294.1089429,None,297.0944402,None,space,0.3498104,297.0944402,None,294.1089429,None,1.475,298.9602111,None,None,1,298.9602111,None,,P036,fencog,1,Post,2022_Apr_21_1219,N-Back (New Version 2021),2021.1.4,120.214848
,,,,Conditions/Version_1/zeroback(1)_v1.xlsx,Rule: Press 'space' when you see the letter 'x' or 'X'.,T,None,,,,,,,,,0,0,0,0,0,1,1,1,,,,,,,,,,,,,,,,,,,,,,,,,,,,,,,,,,,,,,,,,,,,,,,,,,,,,,,,,,,,,,,,,,,,,1.9338,302.9009092,None,None,1,302.9009092,None,,P036,fencog,1,Post,2022_Apr_21_1219,N-Back (New Version 2021),2021.1.4,120.214848
,,,,Conditions/Version_1/zeroback(1)_v1.xlsx,Rule: Press 'space' when you see the letter 'x' or 'X'.,L,None,,,,,,,,,0,0,0,0,0,2,2,2,,,,,,,,,,,,,,,,,,,,,,,,,,,,,,,,,,,,,,,,,,,,,,,,,,,,,,,,,,,,,,,,,,,,,1.3882,306.3012208,None,None,1,306.3012208,None,,P036,fencog,1,Post,2022_Apr_21_1219,N-Back (New Version 2021),2021.1.4,120.214848
,,,,Conditions/Version_1/zeroback(1)_v1.xlsx,Rule: Press 'space' when you see the letter 'x' or 'X'.,x,space,,,,,,,,,0,0,0,0,0,3,3,3,,,,,,,,,,,,,,,,,,,,,,,,,,,,,,,,,,,,,,,,,,,,,,,,,,,,,,,,,,,,,,,,,,,,,1.6982,310.0055122,None,space,1,310.0055122,None,0.3429213,P036,fencog,1,Post,2022_Apr_21_1219,N-Back (New Version 2021),2021.1.4,120.214848
,,,,Conditions/Version_1/zeroback(1)_v1.xlsx,Rule: Press 'space' when you see the letter 'x' or 'X'.,o,None,,,,,,,,,0,0,0,0,0,4,4,4,,,,,,,,,,,,,,,,,,,,,,,,,,,,,,,,,,,,,,,,,,,,,,,,,,,,,,,,,,,,,,,,,,,,,1.7912,313.7979488,None,None,1,313.7979488,None,,P036,fencog,1,Post,2022_Apr_21_1219,N-Back (New Version 2021),2021.1.4,120.214848
,,,,Conditions/Version_1/zeroback(1)_v1.xlsx,Rule: Press 'space' when you see the letter 'x' or 'X'.,P,None,,,,,,,,,0,0,0,0,0,5,5,5,,,,,,,,,,,,,,,,,,,,,,,,,,,,,,,,,,,,,,,,,,,,,,,,,,,,,,,,,,,,,,,,,,,,,1.8408,317.6456743,None,None,1,317.6456743,None,,P036,fencog,1,Post,2022_Apr_21_1219,N-Back (New Version 2021),2021.1.4,120.214848
,,,,Conditions/Version_1/zeroback(1)_v1.xlsx,Rule: Press 'space' when you see the letter 'x' or 'X'.,X,space,,,,,,,,,0,0,0,0,0,6,6,6,,,,,,,,,,,,,,,,,,,,,,,,,,,,,,,,,,,,,,,,,,,,,,,,,,,,,,,,,,,,,,,,,,,,,1.5804,321.2355138,None,space,1,321.2355138,None,0.3528496,P036,fencog,1,Post,2022_Apr_21_1219,N-Back (New Version 2021),2021.1.4,120.214848
,,,,Conditions/Version_1/zeroback(1)_v1.xlsx,Rule: Press 'space' when you see the letter 'x' or 'X'.,n,None,,,,,,,,,0,0,0,0,0,7,7,7,,,,,,,,,,,,,,,,,,,,,,,,,,,,,,,,,,,,,,,,,,,,,,,,,,,,,,,,,,,,,,,,,,,,,1.4998,324.7369051,None,None,1,324.7369051,None,,P036,fencog,1,Post,2022_Apr_21_1219,N-Back (New Version 2021),2021.1.4,120.214848
,,,,Conditions/Version_1/zeroback(1)_v1.xlsx,Rule: Press 'space' when you see the letter 'x' or 'X'.,M,None,,,,,,,,,0,0,0,0,0,8,8,8,,,,,,,,,,,,,,,,,,,,,,,,,,,,,,,,,,,,,,,,,,,,,,,,,,,,,,,,,,,,,,,,,,,,,1.599,328.3433601,None,None,1,328.3433601,None,,P036,fencog,1,Post,2022_Apr_21_1219,N-Back (New Version 2021),2021.1.4,120.214848
,,,,Conditions/Version_1/zeroback(1)_v1.xlsx,Rule: Press 'space' when you see the letter 'x' or 'X'.,a,None,,,,,,,,,0,0,0,0,0,9,9,9,,,,,,,,,,,,,,,,,,,,,,,,,,,,,,,,,,,,,,,,,,,,,,,,,,,,,,,,,,,,,,,,,,,,,1.5184,331.8765001,None,None,1,331.8765001,None,,P036,fencog,1,Post,2022_Apr_21_1219,N-Back (New Version 2021),2021.1.4,120.214848
,,,,Conditions/Version_1/zeroback(1)_v1.xlsx,Rule: Press 'space' when you see the letter 'x' or 'X'.,,,,,,,,,,,0,0,0,0,,,,,,,,,,,,,,,,,,,,,,,,,,,,,,,,,,,,,,,,,,,,,,,,,,,,,,,,,,,,,,,,,,,,,,,,,,,,,,,,,P036,fencog,1,Post,2022_Apr_21_1219,N-Back (New Version 2021),2021.1.4,120.214848
,,,,Conditions/Version_1/oneback(1)_v1.xlsx,New rule: Press 'space' when you see 1-back (i.e. the same letter as the one that appeared 1 letter ago.),b,None,,,,,,,,,0,1,1,1,0,0,0,0,,,,,,,,,,,,,,,,,,,,,,,,,,,,,,,,,,,,,,,,,,,,,,,,,,,,,,,,,,,333.899592,None,336.8853442,None,space,3.7909951,336.8853442,None,333.899592,None,1.8036,342.514553,None,None,1,342.514553,None,,P036,fencog,1,Post,2022_Apr_21_1219,N-Back (New Version 2021),2021.1.4,120.214848
,,,,Conditions/Version_1/oneback(1)_v1.xlsx,New rule: Press 'space' when you see 1-back (i.e. the same letter as the one that appeared 1 letter ago.),p,None,,,,,,,,,0,1,1,1,0,1,1,1,,,,,,,,,,,,,,,,,,,,,,,,,,,,,,,,,,,,,,,,,,,,,,,,,,,,,,,,,,,,,,,,,,,,,1.4874,346.0116634,None,None,1,346.0116634,None,,P036,fencog,1,Post,2022_Apr_21_1219,N-Back (New Version 2021),2021.1.4,120.214848
,,,,Conditions/Version_1/oneback(1)_v1.xlsx,New rule: Press 'space' when you see 1-back (i.e. the same letter as the one that appeared 1 letter ago.),M,None,,,,,,,,,0,1,1,1,0,2,2,2,,,,,,,,,,,,,,,,,,,,,,,,,,,,,,,,,,,,,,,,,,,,,,,,,,,,,,,,,,,,,,,,,,,,,1.8532,349.8733794,None,None,1,349.8733794,None,,P036,fencog,1,Post,2022_Apr_21_1219,N-Back (New Version 2021),2021.1.4,120.214848
,,,,Conditions/Version_1/oneback(1)_v1.xlsx,New rule: Press 'space' when you see 1-back (i.e. the same letter as the one that appeared 1 letter ago.),M,space,,,,,,,,,0,1,1,1,0,3,3,3,,,,,,,,,,,,,,,,,,,,,,,,,,,,,,,,,,,,,,,,,,,,,,,,,,,,,,,,,,,,,,,,,,,,,1.134,353.018011,None,None,0,353.018011,None,,P036,fencog,1,Post,2022_Apr_21_1219,N-Back (New Version 2021),2021.1.4,120.214848
,,,,Conditions/Version_1/oneback(1)_v1.xlsx,New rule: Press 'space' when you see 1-back (i.e. the same letter as the one that appeared 1 letter ago.),n,None,,,,,,,,,0,1,1,1,0,4,4,4,,,,,,,,,,,,,,,,,,,,,,,,,,,,,,,,,,,,,,,,,,,,,,,,,,,,,,,,,,,,,,,,,,,,,1.5804,356.6002513,None,None,1,356.6002513,None,,P036,fencog,1,Post,2022_Apr_21_1219,N-Back (New Version 2021),2021.1.4,120.214848
,,,,Conditions/Version_1/oneback(1)_v1.xlsx,New rule: Press 'space' when you see 1-back (i.e. the same letter as the one that appeared 1 letter ago.),g,None,,,,,,,,,0,1,1,1,0,5,5,5,,,,,,,,,,,,,,,,,,,,,,,,,,,,,,,,,,,,,,,,,,,,,,,,,,,,,,,,,,,,,,,,,,,,,1.8718,360.4741062,None,None,1,360.4741062,None,,P036,fencog,1,Post,2022_Apr_21_1219,N-Back (New Version 2021),2021.1.4,120.214848
,,,,Conditions/Version_1/oneback(1)_v1.xlsx,New rule: Press 'space' when you see 1-back (i.e. the same letter as the one that appeared 1 letter ago.),P,None,,,,,,,,,0,1,1,1,0,6,6,6,,,,,,,,,,,,,,,,,,,,,,,,,,,,,,,,,,,,,,,,,,,,,,,,,,,,,,,,,,,,,,,,,,,,,1.5866,364.0645762,None,None,1,364.0645762,None,,P036,fencog,1,Post,2022_Apr_21_1219,N-Back (New Version 2021),2021.1.4,120.214848
,,,,Conditions/Version_1/oneback(1)_v1.xlsx,New rule: Press 'space' when you see 1-back (i.e. the same letter as the one that appeared 1 letter ago.),o,None,,,,,,,,,0,1,1,1,0,7,7,7,,,,,,,,,,,,,,,,,,,,,,,,,,,,,,,,,,,,,,,,,,,,,,,,,,,,,,,,,,,,,,,,,,,,,1.3634,367.4302041,None,None,1,367.4302041,None,,P036,fencog,1,Post,2022_Apr_21_1219,N-Back (New Version 2021),2021.1.4,120.214848
,,,,Conditions/Version_1/oneback(1)_v1.xlsx,New rule: Press 'space' when you see 1-back (i.e. the same letter as the one that appeared 1 letter ago.),f,None,,,,,,,,,0,1,1,1,0,8,8,8,,,,,,,,,,,,,,,,,,,,,,,,,,,,,,,,,,,,,,,,,,,,,,,,,,,,,,,,,,,,,,,,,,,,,1.6734,371.1148022,None,None,1,371.1148022,None,,P036,fencog,1,Post,2022_Apr_21_1219,N-Back (New Version 2021),2021.1.4,120.214848
,,,,Conditions/Version_1/oneback(1)_v1.xlsx,New rule: Press 'space' when you see 1-back (i.e. the same letter as the one that appeared 1 letter ago.),F,space,,,,,,,,,0,1,1,1,0,9,9,9,,,,,,,,,,,,,,,,,,,,,,,,,,,,,,,,,,,,,,,,,,,,,,,,,,,,,,,,,,,,,,,,,,,,,1.0596,374.1886165,None,None,0,374.1886165,None,,P036,fencog,1,Post,2022_Apr_21_1219,N-Back (New Version 2021),2021.1.4,120.214848
,,,,Conditions/Version_1/oneback(1)_v1.xlsx,New rule: Press 'space' when you see 1-back (i.e. the same letter as the one that appeared 1 letter ago.),,,,,,,,,,,0,1,1,1,,,,,,,,,,,,,,,,,,,,,,,,,,,,,,,,,,,,,,,,,,,,,,,,,,,,,,,,,,,,,,,,,,,,,,,,,,,,,,,,,P036,fencog,1,Post,2022_Apr_21_1219,N-Back (New Version 2021),2021.1.4,120.214848
,,,,Conditions/Version_1/twoback(1)_v1.xlsx,New rule: Press 'space' when you see 2-back (i.e. the same letter as the one that appeared 2 letters ago.),b,None,,,,,,,,,0,2,2,2,0,0,0,0,,,,,,,,,,,,,,,,,,,,,,,,,,,,,,,,,,,,,,,,,,,,,,,,,,,,,,,,,,,376.2162915,None,379.2046797,None,space,2.7194566,379.2046797,None,376.2162915,None,1.3696,383.3256607,None,None,1,383.3256607,None,,P036,fencog,1,Post,2022_Apr_21_1219,N-Back (New Version 2021),2021.1.4,120.214848
,,,,Conditions/Version_1/twoback(1)_v1.xlsx,New rule: Press 'space' when you see 2-back (i.e. the same letter as the one that appeared 2 letters ago.),h,None,,,,,,,,,0,2,2,2,0,1,1,1,,,,,,,,,,,,,,,,,,,,,,,,,,,,,,,,,,,,,,,,,,,,,,,,,,,,,,,,,,,,,,,,,,,,,1.0906,386.4178308,None,None,1,386.4178308,None,,P036,fencog,1,Post,2022_Apr_21_1219,N-Back (New Version 2021),2021.1.4,120.214848
,,,,Conditions/Version_1/twoback(1)_v1.xlsx,New rule: Press 'space' when you see 2-back (i.e. the same letter as the one that appeared 2 letters ago.),j,None,,,,,,,,,0,2,2,2,0,2,2,2,,,,,,,,,,,,,,,,,,,,,,,,,,,,,,,,,,,,,,,,,,,,,,,,,,,,,,,,,,,,,,,,,,,,,1.1216,389.547212,None,None,1,389.547212,None,,P036,fencog,1,Post,2022_Apr_21_1219,N-Back (New Version 2021),2021.1.4,120.214848
,,,,Conditions/Version_1/twoback(1)_v1.xlsx,New rule: Press 'space' when you see 2-back (i.e. the same letter as the one that appeared 2 letters ago.),H,space,,,,,,,,,0,2,2,2,0,3,3,3,,,,,,,,,,,,,,,,,,,,,,,,,,,,,,,,,,,,,,,,,,,,,,,,,,,,,,,,,,,,,,,,,,,,,1.599,393.1493408,None,space,1,393.1493408,None,1.2628301,P036,fencog,1,Post,2022_Apr_21_1219,N-Back (New Version 2021),2021.1.4,120.214848
,,,,Conditions/Version_1/twoback(1)_v1.xlsx,New rule: Press 'space' when you see 2-back (i.e. the same letter as the one that appeared 2 letters ago.),p,None,,,,,,,,,0,2,2,2,0,4,4,4,,,,,,,,,,,,,,,,,,,,,,,,,,,,,,,,,,,,,,,,,,,,,,,,,,,,,,,,,,,,,,,,,,,,,1.8656,397.0216974,None,None,1,397.0216974,None,,P036,fencog,1,Post,2022_Apr_21_1219,N-Back (New Version 2021),2021.1.4,120.214848
,,,,Conditions/Version_1/twoback(1)_v1.xlsx,New rule: Press 'space' when you see 2-back (i.e. the same letter as the one that appeared 2 letters ago.),p,None,,,,,,,,,0,2,2,2,0,5,5,5,,,,,,,,,,,,,,,,,,,,,,,,,,,,,,,,,,,,,,,,,,,,,,,,,,,,,,,,,,,,,,,,,,,,,1.413,400.4374636,None,None,1,400.4374636,None,,P036,fencog,1,Post,2022_Apr_21_1219,N-Back (New Version 2021),2021.1.4,120.214848
,,,,Conditions/Version_1/twoback(1)_v1.xlsx,New rule: Press 'space' when you see 2-back (i.e. the same letter as the one that appeared 2 letters ago.),w,None,,,,,,,,,0,2,2,2,0,6,6,6,,,,,,,,,,,,,,,,,,,,,,,,,,,,,,,,,,,,,,,,,,,,,,,,,,,,,,,,,,,,,,,,,,,,,1.1154,403.555456,None,None,1,403.555456,None,,P036,fencog,1,Post,2022_Apr_21_1219,N-Back (New Version 2021),2021.1.4,120.214848
,,,,Conditions/Version_1/twoback(1)_v1.xlsx,New rule: Press 'space' when you see 2-back (i.e. the same letter as the one that appeared 2 letters ago.),R,None,,,,,,,,,0,2,2,2,0,7,7,7,,,,,,,,,,,,,,,,,,,,,,,,,,,,,,,,,,,,,,,,,,,,,,,,,,,,,,,,,,,,,,,,,,,,,1.3944,406.9610345,None,None,1,406.9610345,None,,P036,fencog,1,Post,2022_Apr_21_1219,N-Back (New Version 2021),2021.1.4,120.214848
,,,,Conditions/Version_1/twoback(1)_v1.xlsx,New rule: Press 'space' when you see 2-back (i.e. the same letter as the one that appeared 2 letters ago.),a,None,,,,,,,,,0,2,2,2,0,8,8,8,,,,,,,,,,,,,,,,,,,,,,,,,,,,,,,,,,,,,,,,,,,,,,,,,,,,,,,,,,,,,,,,,,,,,1.6176,410.593491,None,None,1,410.593491,None,,P036,fencog,1,Post,2022_Apr_21_1219,N-Back (New Version 2021),2021.1.4,120.214848
,,,,Conditions/Version_1/twoback(1)_v1.xlsx,New rule: Press 'space' when you see 2-back (i.e. the same letter as the one that appeared 2 letters ago.),r,space,,,,,,,,,0,2,2,2,0,9,9,9,,,,,,,,,,,,,,,,,,,,,,,,,,,,,,,,,,,,,,,,,,,,,,,,,,,,,,,,,,,,,,,,,,,,,1.6486,414.2516942,None,space,1,414.2516942,None,0.456681,P036,fencog,1,Post,2022_Apr_21_1219,N-Back (New Version 2021),2021.1.4,120.214848
,,,,Conditions/Version_1/twoback(1)_v1.xlsx,New rule: Press 'space' when you see 2-back (i.e. the same letter as the one that appeared 2 letters ago.),,,,,,,,,,,0,2,2,2,,,,,,,,,,,,,,,,,,,,,,,,,,,,,,,,,,,,,,,,,,,,,,,,,,,,,,,,,,,,,,,,,,,,,,,,,,,,,,,,,P036,fencog,1,Post,2022_Apr_21_1219,N-Back (New Version 2021),2021.1.4,120.214848
,,,,Conditions/Version_1/threeback(1)_v1.xlsx,New rule: Press 'space' when you see 3-back (i.e. the same letter as the one that appeared 3 letters ago.),r,None,,,,,,,,,0,3,3,3,0,0,0,0,,,,,,,,,,,,,,,,,,,,,,,,,,,,,,,,,,,,,,,,,,,,,,,,,,,,,,,,,,,416.2803461,None,419.2678948,None,space,0.4964156,419.2678948,None,416.2803461,None,1.4502,421.2559317,None,None,1,421.2559317,None,,P036,fencog,1,Post,2022_Apr_21_1219,N-Back (New Version 2021),2021.1.4,120.214848
,,,,Conditions/Version_1/threeback(1)_v1.xlsx,New rule: Press 'space' when you see 3-back (i.e. the same letter as the one that appeared 3 letters ago.),o,None,,,,,,,,,0,3,3,3,0,1,1,1,,,,,,,,,,,,,,,,,,,,,,,,,,,,,,,,,,,,,,,,,,,,,,,,,,,,,,,,,,,,,,,,,,,,,1.103,424.3634448,None,None,1,424.3634448,None,,P036,fencog,1,Post,2022_Apr_21_1219,N-Back (New Version 2021),2021.1.4,120.214848
,,,,Conditions/Version_1/threeback(1)_v1.xlsx,New rule: Press 'space' when you see 3-back (i.e. the same letter as the one that appeared 3 letters ago.),P,None,,,,,,,,,0,3,3,3,0,2,2,2,,,,,,,,,,,,,,,,,,,,,,,,,,,,,,,,,,,,,,,,,,,,,,,,,,,,,,,,,,,,,,,,,,,,,1.6982,428.070556,None,None,1,428.070556,None,,P036,fencog,1,Post,2022_Apr_21_1219,N-Back (New Version 2021),2021.1.4,120.214848
,,,,Conditions/Version_1/threeback(1)_v1.xlsx,New rule: Press 'space' when you see 3-back (i.e. the same letter as the one that appeared 3 letters ago.),R,space,,,,,,,,,0,3,3,3,0,3,3,3,,,,,,,,,,,,,,,,,,,,,,,,,,,,,,,,,,,,,,,,,,,,,,,,,,,,,,,,,,,,,,,,,,,,,1.1278,431.2042717,None,space,1,431.2042717,None,0.8399302,P036,fencog,1,Post,2022_Apr_21_1219,N-Back (New Version 2021),2021.1.4,120.214848
,,,,Conditions/Version_1/threeback(1)_v1.xlsx,New rule: Press 'space' when you see 3-back (i.e. the same letter as the one that appeared 3 letters ago.),p,None,,,,,,,,,0,3,3,3,0,4,4,4,,,,,,,,,,,,,,,,,,,,,,,,,,,,,,,,,,,,,,,,,,,,,,,,,,,,,,,,,,,,,,,,,,,,,1.6734,434.887305,None,None,1,434.887305,None,,P036,fencog,1,Post,2022_Apr_21_1219,N-Back (New Version 2021),2021.1.4,120.214848
,,,,Conditions/Version_1/threeback(1)_v1.xlsx,New rule: Press 'space' when you see 3-back (i.e. the same letter as the one that appeared 3 letters ago.),E,None,,,,,,,,,0,3,3,3,0,5,5,5,,,,,,,,,,,,,,,,,,,,,,,,,,,,,,,,,,,,,,,,,,,,,,,,,,,,,,,,,,,,,,,,,,,,,1.041,437.9365579,None,None,1,437.9365579,None,,P036,fencog,1,Post,2022_Apr_21_1219,N-Back (New Version 2021),2021.1.4,120.214848
,,,,Conditions/Version_1/threeback(1)_v1.xlsx,New rule: Press 'space' when you see 3-back (i.e. the same letter as the one that appeared 3 letters ago.),e,None,,,,,,,,,0,3,3,3,0,6,6,6,,,,,,,,,,,,,,,,,,,,,,,,,,,,,,,,,,,,,,,,,,,,,,,,,,,,,,,,,,,,,,,,,,,,,1.351,441.3005796,None,None,1,441.3005796,None,,P036,fencog,1,Post,2022_Apr_21_1219,N-Back (New Version 2021),2021.1.4,120.214848
,,,,Conditions/Version_1/threeback(1)_v1.xlsx,New rule: Press 'space' when you see 3-back (i.e. the same letter as the one that appeared 3 letters ago.),m,None,,,,,,,,,0,3,3,3,0,7,7,7,,,,,,,,,,,,,,,,,,,,,,,,,,,,,,,,,,,,,,,,,,,,,,,,,,,,,,,,,,,,,,,,,,,,,1.6114,444.9177471,None,None,1,444.9177471,None,,P036,fencog,1,Post,2022_Apr_21_1219,N-Back (New Version 2021),2021.1.4,120.214848
,,,,Conditions/Version_1/threeback(1)_v1.xlsx,New rule: Press 'space' when you see 3-back (i.e. the same letter as the one that appeared 3 letters ago.),n,None,,,,,,,,,0,3,3,3,0,8,8,8,,,,,,,,,,,,,,,,,,,,,,,,,,,,,,,,,,,,,,,,,,,,,,,,,,,,,,,,,,,,,,,,,,,,,1.1774,448.1087947,None,None,1,448.1087947,None,,P036,fencog,1,Post,2022_Apr_21_1219,N-Back (New Version 2021),2021.1.4,120.214848
,,,,Conditions/Version_1/threeback(1)_v1.xlsx,New rule: Press 'space' when you see 3-back (i.e. the same letter as the one that appeared 3 letters ago.),e,space,,,,,,,,,0,3,3,3,0,9,9,9,,,,,,,,,,,,,,,,,,,,,,,,,,,,,,,,,,,,,,,,,,,,,,,,,,,,,,,,,,,,,,,,,,,,,1.7354,451.8553112,None,None,0,451.8553112,None,,P036,fencog,1,Post,2022_Apr_21_1219,N-Back (New Version 2021),2021.1.4,120.214848
,,,,Conditions/Version_1/threeback(1)_v1.xlsx,New rule: Press 'space' when you see 3-back (i.e. the same letter as the one that appeared 3 letters ago.),,,,,,,,,,,0,3,3,3,,,,,,,,,,,,,,,,,,,,,,,,,,,,,,,,,,,,,,,,,,,,,,,,,,,,,,,,,,,,,,,,,,,,,,,,,,,,,,,,,P036,fencog,1,Post,2022_Apr_21_1219,N-Back (New Version 2021),2021.1.4,120.214848
,,,,Conditions/Version_1/oneback(2)_v1.xlsx,New rule: Press 'space' when you see 1-back (i.e. the same letter as the one that appeared 1 letter ago.),q,None,,,,,,,,,0,4,4,4,0,0,0,0,,,,,,,,,,,,,,,,,,,,,,,,,,,,,,,,,,,,,,,,,,,,,,,,,,,,,,,,,,,453.8802207,None,456.8638759,None,space,0.5163281,456.8638759,None,453.8802207,None,1.8656,459.2891731,None,None,1,459.2891731,None,,P036,fencog,1,Post,2022_Apr_21_1219,N-Back (New Version 2021),2021.1.4,120.214848
,,,,Conditions/Version_1/oneback(2)_v1.xlsx,New rule: Press 'space' when you see 1-back (i.e. the same letter as the one that appeared 1 letter ago.),Q,space,,,,,,,,,0,4,4,4,0,1,1,1,,,,,,,,,,,,,,,,,,,,,,,,,,,,,,,,,,,,,,,,,,,,,,,,,,,,,,,,,,,,,,,,,,,,,1.8594,463.1618466,None,space,1,463.1618466,None,0.466536,P036,fencog,1,Post,2022_Apr_21_1219,N-Back (New Version 2021),2021.1.4,120.214848
,,,,Conditions/Version_1/oneback(2)_v1.xlsx,New rule: Press 'space' when you see 1-back (i.e. the same letter as the one that appeared 1 letter ago.),P,None,,,,,,,,,0,4,4,4,0,2,2,2,,,,,,,,,,,,,,,,,,,,,,,,,,,,,,,,,,,,,,,,,,,,,,,,,,,,,,,,,,,,,,,,,,,,,1.196,466.3742902,None,None,1,466.3742902,None,,P036,fencog,1,Post,2022_Apr_21_1219,N-Back (New Version 2021),2021.1.4,120.214848
,,,,Conditions/Version_1/oneback(2)_v1.xlsx,New rule: Press 'space' when you see 1-back (i.e. the same letter as the one that appeared 1 letter ago.),o,None,,,,,,,,,0,4,4,4,0,3,3,3,,,,,,,,,,,,,,,,,,,,,,,,,,,,,,,,,,,,,,,,,,,,,,,,,,,,,,,,,,,,,,,,,,,,,1.5432,469.9249564,None,None,1,469.9249564,None,,P036,fencog,1,Post,2022_Apr_21_1219,N-Back (New Version 2021),2021.1.4,120.214848
,,,,Conditions/Version_1/oneback(2)_v1.xlsx,New rule: Press 'space' when you see 1-back (i.e. the same letter as the one that appeared 1 letter ago.),m,None,,,,,,,,,0,4,4,4,0,4,4,4,,,,,,,,,,,,,,,,,,,,,,,,,,,,,,,,,,,,,,,,,,,,,,,,,,,,,,,,,,,,,,,,,,,,,1.413,473.3432173,None,None,1,473.3432173,None,,P036,fencog,1,Post,2022_Apr_21_1219,N-Back (New Version 2021),2021.1.4,120.214848
,,,,Conditions/Version_1/oneback(2)_v1.xlsx,New rule: Press 'space' when you see 1-back (i.e. the same letter as the one that appeared 1 letter ago.),Z,None,,,,,,,,,0,4,4,4,0,5,5,5,,,,,,,,,,,,,,,,,,,,,,,,,,,,,,,,,,,,,,,,,,,,,,,,,,,,,,,,,,,,,,,,,,,,,1.8284,477.1838,None,None,1,477.1838,None,,P036,fencog,1,Post,2022_Apr_21_1219,N-Back (New Version 2021),2021.1.4,120.214848
,,,,Conditions/Version_1/oneback(2)_v1.xlsx,New rule: Press 'space' when you see 1-back (i.e. the same letter as the one that appeared 1 letter ago.),c,None,,,,,,,,,0,4,4,4,0,6,6,6,,,,,,,,,,,,,,,,,,,,,,,,,,,,,,,,,,,,,,,,,,,,,,,,,,,,,,,,,,,,,,,,,,,,,1.9648,481.155976,None,None,1,481.155976,None,,P036,fencog,1,Post,2022_Apr_21_1219,N-Back (New Version 2021),2021.1.4,120.214848
,,,,Conditions/Version_1/oneback(2)_v1.xlsx,New rule: Press 'space' when you see 1-back (i.e. the same letter as the one that appeared 1 letter ago.),c,space,,,,,,,,,0,4,4,4,0,7,7,7,,,,,,,,,,,,,,,,,,,,,,,,,,,,,,,,,,,,,,,,,,,,,,,,,,,,,,,,,,,,,,,,,,,,,1.9462,485.1124295,None,space,1,485.1124295,None,0.3638695,P036,fencog,1,Post,2022_Apr_21_1219,N-Back (New Version 2021),2021.1.4,120.214848
,,,,Conditions/Version_1/oneback(2)_v1.xlsx,New rule: Press 'space' when you see 1-back (i.e. the same letter as the one that appeared 1 letter ago.),P,None,,,,,,,,,0,4,4,4,0,8,8,8,,,,,,,,,,,,,,,,,,,,,,,,,,,,,,,,,,,,,,,,,,,,,,,,,,,,,,,,,,,,,,,,,,,,,1.3262,488.4447865,None,None,1,488.4447865,None,,P036,fencog,1,Post,2022_Apr_21_1219,N-Back (New Version 2021),2021.1.4,120.214848
,,,,Conditions/Version_1/oneback(2)_v1.xlsx,New rule: Press 'space' when you see 1-back (i.e. the same letter as the one that appeared 1 letter ago.),p,space,,,,,,,,,0,4,4,4,0,9,9,9,,,,,,,,,,,,,,,,,,,,,,,,,,,,,,,,,,,,,,,,,,,,,,,,,,,,,,,,,,,,,,,,,,,,,1.8346,492.2852016,None,space,1,492.2852016,None,0.3830193,P036,fencog,1,Post,2022_Apr_21_1219,N-Back (New Version 2021),2021.1.4,120.214848
,,,,Conditions/Version_1/oneback(2)_v1.xlsx,New rule: Press 'space' when you see 1-back (i.e. the same letter as the one that appeared 1 letter ago.),,,,,,,,,,,0,4,4,4,,,,,,,,,,,,,,,,,,,,,,,,,,,,,,,,,,,,,,,,,,,,,,,,,,,,,,,,,,,,,,,,,,,,,,,,,,,,,,,,,P036,fencog,1,Post,2022_Apr_21_1219,N-Back (New Version 2021),2021.1.4,120.214848
,,,,Conditions/Version_1/zeroback(2)_v1.xlsx,New rule: Press 'space' when you see the letter 'x' or 'X'.,p,None,,,,,,,,,0,5,5,5,0,0,0,0,,,,,,,,,,,,,,,,,,,,,,,,,,,,,,,,,,,,,,,,,,,,,,,,,,,,,,,,,,,494.3048206,None,497.294113,None,space,0.5100057,497.294113,None,494.3048206,None,1.537,499.3748013,None,None,1,499.3748013,None,,P036,fencog,1,Post,2022_Apr_21_1219,N-Back (New Version 2021),2021.1.4,120.214848
,,,,Conditions/Version_1/zeroback(2)_v1.xlsx,New rule: Press 'space' when you see the letter 'x' or 'X'.,L,None,,,,,,,,,0,5,5,5,0,1,1,1,,,,,,,,,,,,,,,,,,,,,,,,,,,,,,,,,,,,,,,,,,,,,,,,,,,,,,,,,,,,,,,,,,,,,1.2456,502.6264082,None,None,1,502.6264082,None,,P036,fencog,1,Post,2022_Apr_21_1219,N-Back (New Version 2021),2021.1.4,120.214848
,,,,Conditions/Version_1/zeroback(2)_v1.xlsx,New rule: Press 'space' when you see the letter 'x' or 'X'.,G,None,,,,,,,,,0,5,5,5,0,2,2,2,,,,,,,,,,,,,,,,,,,,,,,,,,,,,,,,,,,,,,,,,,,,,,,,,,,,,,,,,,,,,,,,,,,,,1.6176,506.2564902,None,None,1,506.2564902,None,,P036,fencog,1,Post,2022_Apr_21_1219,N-Back (New Version 2021),2021.1.4,120.214848
,,,,Conditions/Version_1/zeroback(2)_v1.xlsx,New rule: Press 'space' when you see the letter 'x' or 'X'.,y,None,,,,,,,,,0,5,5,5,0,3,3,3,,,,,,,,,,,,,,,,,,,,,,,,,,,,,,,,,,,,,,,,,,,,,,,,,,,,,,,,,,,,,,,,,,,,,1.0658,509.3301121,None,None,1,509.3301121,None,,P036,fencog,1,Post,2022_Apr_21_1219,N-Back (New Version 2021),2021.1.4,120.214848
,,,,Conditions/Version_1/zeroback(2)_v1.xlsx,New rule: Press 'space' when you see the letter 'x' or 'X'.,Y,None,,,,,,,,,0,5,5,5,0,4,4,4,,,,,,,,,,,,,,,,,,,,,,,,,,,,,,,,,,,,,,,,,,,,,,,,,,,,,,,,,,,,,,,,,,,,,1.9586,513.2894298,None,None,1,513.2894298,None,,P036,fencog,1,Post,2022_Apr_21_1219,N-Back (New Version 2021),2021.1.4,120.214848
,,,,Conditions/Version_1/zeroback(2)_v1.xlsx,New rule: Press 'space' when you see the letter 'x' or 'X'.,W,None,,,,,,,,,0,5,5,5,0,5,5,5,,,,,,,,,,,,,,,,,,,,,,,,,,,,,,,,,,,,,,,,,,,,,,,,,,,,,,,,,,,,,,,,,,,,,1.4688,516.7747182,None,None,1,516.7747182,None,,P036,fencog,1,Post,2022_Apr_21_1219,N-Back (New Version 2021),2021.1.4,120.214848
,,,,Conditions/Version_1/zeroback(2)_v1.xlsx,New rule: Press 'space' when you see the letter 'x' or 'X'.,x,space,,,,,,,,,0,5,5,5,0,6,6,6,,,,,,,,,,,,,,,,,,,,,,,,,,,,,,,,,,,,,,,,,,,,,,,,,,,,,,,,,,,,,,,,,,,,,1.1402,519.9306374,None,space,1,519.9306374,None,0.3455605,P036,fencog,1,Post,2022_Apr_21_1219,N-Back (New Version 2021),2021.1.4,120.214848
,,,,Conditions/Version_1/zeroback(2)_v1.xlsx,New rule: Press 'space' when you see the letter 'x' or 'X'.,X,space,,,,,,,,,0,5,5,5,0,7,7,7,,,,,,,,,,,,,,,,,,,,,,,,,,,,,,,,,,,,,,,,,,,,,,,,,,,,,,,,,,,,,,,,,,,,,1.3758,523.3197309,None,space,1,523.3197309,None,0.3568908,P036,fencog,1,Post,2022_Apr_21_1219,N-Back (New Version 2021),2021.1.4,120.214848
,,,,Conditions/Version_1/zeroback(2)_v1.xlsx,New rule: Press 'space' when you see the letter 'x' or 'X'.,p,None,,,,,,,,,0,5,5,5,0,8,8,8,,,,,,,,,,,,,,,,,,,,,,,,,,,,,,,,,,,,,,,,,,,,,,,,,,,,,,,,,,,,,,,,,,,,,1.8842,527.2164134,None,None,1,527.2164134,None,,P036,fencog,1,Post,2022_Apr_21_1219,N-Back (New Version 2021),2021.1.4,120.214848
,,,,Conditions/Version_1/zeroback(2)_v1.xlsx,New rule: Press 'space' when you see the letter 'x' or 'X'.,h,None,,,,,,,,,0,5,5,5,0,9,9,9,,,,,,,,,,,,,,,,,,,,,,,,,,,,,,,,,,,,,,,,,,,,,,,,,,,,,,,,,,,,,,,,,,,,,1.0596,530.2822061,None,None,1,530.2822061,None,,P036,fencog,1,Post,2022_Apr_21_1219,N-Back (New Version 2021),2021.1.4,120.214848
,,,,Conditions/Version_1/zeroback(2)_v1.xlsx,New rule: Press 'space' when you see the letter 'x' or 'X'.,,,,,,,,,,,0,5,5,5,,,,,,,,,,,,,,,,,,,,,,,,,,,,,,,,,,,,,,,,,,,,,,,,,,,,,,,,,,,,,,,,,,,,,,,,,,,,,,,,,P036,fencog,1,Post,2022_Apr_21_1219,N-Back (New Version 2021),2021.1.4,120.214848
,,,,Conditions/Version_1/threeback(2)_v1.xlsx,New rule: Press 'space' when you see 3-back (i.e. the same letter as the one that appeared 3 letters ago.),q,None,,,,,,,,,0,6,6,6,0,0,0,0,,,,,,,,,,,,,,,,,,,,,,,,,,,,,,,,,,,,,,,,,,,,,,,,,,,,,,,,,,,532.3077814,None,535.3041189,None,space,0.4283544,535.3041189,None,532.3077814,None,1.9896,537.7566236,None,None,1,537.7566236,None,,P036,fencog,1,Post,2022_Apr_21_1219,N-Back (New Version 2021),2021.1.4,120.214848
,,,,Conditions/Version_1/threeback(2)_v1.xlsx,New rule: Press 'space' when you see 3-back (i.e. the same letter as the one that appeared 3 letters ago.),Y,None,,,,,,,,,0,6,6,6,0,1,1,1,,,,,,,,,,,,,,,,,,,,,,,,,,,,,,,,,,,,,,,,,,,,,,,,,,,,,,,,,,,,,,,,,,,,,1.816,541.57898,None,None,1,541.57898,None,,P036,fencog,1,Post,2022_Apr_21_1219,N-Back (New Version 2021),2021.1.4,120.214848
,,,,Conditions/Version_1/threeback(2)_v1.xlsx,New rule: Press 'space' when you see 3-back (i.e. the same letter as the one that appeared 3 letters ago.),p,None,,,,,,,,,0,6,6,6,0,2,2,2,,,,,,,,,,,,,,,,,,,,,,,,,,,,,,,,,,,,,,,,,,,,,,,,,,,,,,,,,,,,,,,,,,,,,1.475,545.0579733,None,None,1,545.0579733,None,,P036,fencog,1,Post,2022_Apr_21_1219,N-Back (New Version 2021),2021.1.4,120.214848
,,,,Conditions/Version_1/threeback(2)_v1.xlsx,New rule: Press 'space' when you see 3-back (i.e. the same letter as the one that appeared 3 letters ago.),p,None,,,,,,,,,0,6,6,6,0,3,3,3,,,,,,,,,,,,,,,,,,,,,,,,,,,,,,,,,,,,,,,,,,,,,,,,,,,,,,,,,,,,,,,,,,,,,1.2642,548.3269311,None,None,1,548.3269311,None,,P036,fencog,1,Post,2022_Apr_21_1219,N-Back (New Version 2021),2021.1.4,120.214848
,,,,Conditions/Version_1/threeback(2)_v1.xlsx,New rule: Press 'space' when you see 3-back (i.e. the same letter as the one that appeared 3 letters ago.),y,space,,,,,,,,,0,6,6,6,0,4,4,4,,,,,,,,,,,,,,,,,,,,,,,,,,,,,,,,,,,,,,,,,,,,,,,,,,,,,,,,,,,,,,,,,,,,,1.3386,551.6700091,None,space,1,551.6700091,None,0.998332,P036,fencog,1,Post,2022_Apr_21_1219,N-Back (New Version 2021),2021.1.4,120.214848
,,,,Conditions/Version_1/threeback(2)_v1.xlsx,New rule: Press 'space' when you see 3-back (i.e. the same letter as the one that appeared 3 letters ago.),u,None,,,,,,,,,0,6,6,6,0,5,5,5,,,,,,,,,,,,,,,,,,,,,,,,,,,,,,,,,,,,,,,,,,,,,,,,,,,,,,,,,,,,,,,,,,,,,1.7292,555.4082102,None,None,1,555.4082102,None,,P036,fencog,1,Post,2022_Apr_21_1219,N-Back (New Version 2021),2021.1.4,120.214848
,,,,Conditions/Version_1/threeback(2)_v1.xlsx,New rule: Press 'space' when you see 3-back (i.e. the same letter as the one that appeared 3 letters ago.),P,space,,,,,,,,,0,6,6,6,0,6,6,6,,,,,,,,,,,,,,,,,,,,,,,,,,,,,,,,,,,,,,,,,,,,,,,,,,,,,,,,,,,,,,,,,,,,,1.2146,558.6332678,None,space,1,558.6332678,None,0.4750028,P036,fencog,1,Post,2022_Apr_21_1219,N-Back (New Version 2021),2021.1.4,120.214848
,,,,Conditions/Version_1/threeback(2)_v1.xlsx,New rule: Press 'space' when you see 3-back (i.e. the same letter as the one that appeared 3 letters ago.),a,None,,,,,,,,,0,6,6,6,0,7,7,7,,,,,,,,,,,,,,,,,,,,,,,,,,,,,,,,,,,,,,,,,,,,,,,,,,,,,,,,,,,,,,,,,,,,,1.4998,562.1393995,None,None,1,562.1393995,None,,P036,fencog,1,Post,2022_Apr_21_1219,N-Back (New Version 2021),2021.1.4,120.214848
,,,,Conditions/Version_1/threeback(2)_v1.xlsx,New rule: Press 'space' when you see 3-back (i.e. the same letter as the one that appeared 3 letters ago.),U,space,,,,,,,,,0,6,6,6,0,8,8,8,,,,,,,,,,,,,,,,,,,,,,,,,,,,,,,,,,,,,,,,,,,,,,,,,,,,,,,,,,,,,,,,,,,,,1.8656,566.0077083,None,space,1,566.0077083,None,0.6845629,P036,fencog,1,Post,2022_Apr_21_1219,N-Back (New Version 2021),2021.1.4,120.214848
,,,,Conditions/Version_1/threeback(2)_v1.xlsx,New rule: Press 'space' when you see 3-back (i.e. the same letter as the one that appeared 3 letters ago.),q,None,,,,,,,,,0,6,6,6,0,9,9,9,,,,,,,,,,,,,,,,,,,,,,,,,,,,,,,,,,,,,,,,,,,,,,,,,,,,,,,,,,,,,,,,,,,,,1.5866,569.6049053,None,None,1,569.6049053,None,,P036,fencog,1,Post,2022_Apr_21_1219,N-Back (New Version 2021),2021.1.4,120.214848
,,,,Conditions/Version_1/threeback(2)_v1.xlsx,New rule: Press 'space' when you see 3-back (i.e. the same letter as the one that appeared 3 letters ago.),,,,,,,,,,,0,6,6,6,,,,,,,,,,,,,,,,,,,,,,,,,,,,,,,,,,,,,,,,,,,,,,,,,,,,,,,,,,,,,,,,,,,,,,,,,,,,,,,,,P036,fencog,1,Post,2022_Apr_21_1219,N-Back (New Version 2021),2021.1.4,120.214848
,,,,Conditions/Version_1/twoback(2)_v1.xlsx,New rule: Press 'space' when you see 2-back (i.e. the same letter as the one that appeared 2 letters ago.),q,None,,,,,,,,,0,7,7,7,0,0,0,0,,,,,,,,,,,,,,,,,,,,,,,,,,,,,,,,,,,,,,,,,,,,,,,,,,,,,,,,,,,571.6326733,None,574.6215304,None,space,0.3747114,574.6215304,None,571.6326733,None,1.3324,576.3687519,None,None,1,576.3687519,None,,P036,fencog,1,Post,2022_Apr_21_1219,N-Back (New Version 2021),2021.1.4,120.214848
,,,,Conditions/Version_1/twoback(2)_v1.xlsx,New rule: Press 'space' when you see 2-back (i.e. the same letter as the one that appeared 2 letters ago.),r,None,,,,,,,,,0,7,7,7,0,1,1,1,,,,,,,,,,,,,,,,,,,,,,,,,,,,,,,,,,,,,,,,,,,,,,,,,,,,,,,,,,,,,,,,,,,,,1.4006,579.7880609,None,None,1,579.7880609,None,,P036,fencog,1,Post,2022_Apr_21_1219,N-Back (New Version 2021),2021.1.4,120.214848
,,,,Conditions/Version_1/twoback(2)_v1.xlsx,New rule: Press 'space' when you see 2-back (i.e. the same letter as the one that appeared 2 letters ago.),q,space,,,,,,,,,0,7,7,7,0,2,2,2,,,,,,,,,,,,,,,,,,,,,,,,,,,,,,,,,,,,,,,,,,,,,,,,,,,,,,,,,,,,,,,,,,,,,1.2146,583.0083671,None,space,1,583.0083671,None,0.5559447,P036,fencog,1,Post,2022_Apr_21_1219,N-Back (New Version 2021),2021.1.4,120.214848
,,,,Conditions/Version_1/twoback(2)_v1.xlsx,New rule: Press 'space' when you see 2-back (i.e. the same letter as the one that appeared 2 letters ago.),P,None,,,,,,,,,0,7,7,7,0,3,3,3,,,,,,,,,,,,,,,,,,,,,,,,,,,,,,,,,,,,,,,,,,,,,,,,,,,,,,,,,,,,,,,,,,,,,1.9896,587.0010958,None,None,1,587.0010958,None,,P036,fencog,1,Post,2022_Apr_21_1219,N-Back (New Version 2021),2021.1.4,120.214848
,,,,Conditions/Version_1/twoback(2)_v1.xlsx,New rule: Press 'space' when you see 2-back (i.e. the same letter as the one that appeared 2 letters ago.),p,None,,,,,,,,,0,7,7,7,0,4,4,4,,,,,,,,,,,,,,,,,,,,,,,,,,,,,,,,,,,,,,,,,,,,,,,,,,,,,,,,,,,,,,,,,,,,,1.258,590.268195,None,None,1,590.268195,None,,P036,fencog,1,Post,2022_Apr_21_1219,N-Back (New Version 2021),2021.1.4,120.214848
,,,,Conditions/Version_1/twoback(2)_v1.xlsx,New rule: Press 'space' when you see 2-back (i.e. the same letter as the one that appeared 2 letters ago.),H,None,,,,,,,,,0,7,7,7,0,5,5,5,,,,,,,,,,,,,,,,,,,,,,,,,,,,,,,,,,,,,,,,,,,,,,,,,,,,,,,,,,,,,,,,,,,,,1.2084,593.4804911,None,None,1,593.4804911,None,,P036,fencog,1,Post,2022_Apr_21_1219,N-Back (New Version 2021),2021.1.4,120.214848
,,,,Conditions/Version_1/twoback(2)_v1.xlsx,New rule: Press 'space' when you see 2-back (i.e. the same letter as the one that appeared 2 letters ago.),g,None,,,,,,,,,0,7,7,7,0,6,6,6,,,,,,,,,,,,,,,,,,,,,,,,,,,,,,,,,,,,,,,,,,,,,,,,,,,,,,,,,,,,,,,,,,,,,1.971,597.454103,None,None,1,597.454103,None,,P036,fencog,1,Post,2022_Apr_21_1219,N-Back (New Version 2021),2021.1.4,120.214848
,,,,Conditions/Version_1/twoback(2)_v1.xlsx,New rule: Press 'space' when you see 2-back (i.e. the same letter as the one that appeared 2 letters ago.),j,None,,,,,,,,,0,7,7,7,0,7,7,7,,,,,,,,,,,,,,,,,,,,,,,,,,,,,,,,,,,,,,,,,,,,,,,,,,,,,,,,,,,,,,,,,,,,,1.3572,600.8138289,None,None,1,600.8138289,None,,P036,fencog,1,Post,2022_Apr_21_1219,N-Back (New Version 2021),2021.1.4,120.214848
,,,,Conditions/Version_1/twoback(2)_v1.xlsx,New rule: Press 'space' when you see 2-back (i.e. the same letter as the one that appeared 2 letters ago.),g,space,,,,,,,,,0,7,7,7,0,8,8,8,,,,,,,,,,,,,,,,,,,,,,,,,,,,,,,,,,,,,,,,,,,,,,,,,,,,,,,,,,,,,,,,,,,,,1.7354,604.5602,None,space,1,604.5602,None,0.6118233,P036,fencog,1,Post,2022_Apr_21_1219,N-Back (New Version 2021),2021.1.4,120.214848
,,,,Conditions/Version_1/twoback(2)_v1.xlsx,New rule: Press 'space' when you see 2-back (i.e. the same letter as the one that appeared 2 letters ago.),G,None,,,,,,,,,0,7,7,7,0,9,9,9,,,,,,,,,,,,,,,,,,,,,,,,,,,,,,,,,,,,,,,,,,,,,,,,,,,,,,,,,,,,,,,,,,,,,1.4874,608.0507445,None,None,1,608.0507445,None,,P036,fencog,1,Post,2022_Apr_21_1219,N-Back (New Version 2021),2021.1.4,120.214848
,,,,Conditions/Version_1/twoback(2)_v1.xlsx,New rule: Press 'space' when you see 2-back (i.e. the same letter as the one that appeared 2 letters ago.),,,,,,,,,,,0,7,7,7,,,,,,,,,,,,,,,,,,,,,,,,,,,,,,,,,,,,,,,,,,,,,,,,,,,,,,,,,,,,,,,,,,,,,,,,,,,,,,,,,P036,fencog,1,Post,2022_Apr_21_1219,N-Back (New Version 2021),2021.1.4,120.214848
,,,,Conditions/Version_1/threeback(3)_v1.xlsx,New rule: Press 'space' when you see 3-back (i.e. the same letter as the one that appeared 3 letters ago.),w,None,,,,,,,,,0,8,8,8,0,0,0,0,,,,,,,,,,,,,,,,,,,,,,,,,,,,,,,,,,,,,,,,,,,,,,,,,,,,,,,,,,,610.0703078,None,613.0594814,None,space,0.3365823,613.0594814,None,610.0703078,None,1.444,614.8737397,None,None,1,614.8737397,None,,P036,fencog,1,Post,2022_Apr_21_1219,N-Back (New Version 2021),2021.1.4,120.214848
,,,,Conditions/Version_1/threeback(3)_v1.xlsx,New rule: Press 'space' when you see 3-back (i.e. the same letter as the one that appeared 3 letters ago.),p,None,,,,,,,,,0,8,8,8,0,1,1,1,,,,,,,,,,,,,,,,,,,,,,,,,,,,,,,,,,,,,,,,,,,,,,,,,,,,,,,,,,,,,,,,,,,,,1.4068,618.2810208,None,None,1,618.2810208,None,,P036,fencog,1,Post,2022_Apr_21_1219,N-Back (New Version 2021),2021.1.4,120.214848
,,,,Conditions/Version_1/threeback(3)_v1.xlsx,New rule: Press 'space' when you see 3-back (i.e. the same letter as the one that appeared 3 letters ago.),P,None,,,,,,,,,0,8,8,8,0,2,2,2,,,,,,,,,,,,,,,,,,,,,,,,,,,,,,,,,,,,,,,,,,,,,,,,,,,,,,,,,,,,,,,,,,,,,1.6982,621.9800751,None,None,1,621.9800751,None,,P036,fencog,1,Post,2022_Apr_21_1219,N-Back (New Version 2021),2021.1.4,120.214848
,,,,Conditions/Version_1/threeback(3)_v1.xlsx,New rule: Press 'space' when you see 3-back (i.e. the same letter as the one that appeared 3 letters ago.),i,None,,,,,,,,,0,8,8,8,0,3,3,3,,,,,,,,,,,,,,,,,,,,,,,,,,,,,,,,,,,,,,,,,,,,,,,,,,,,,,,,,,,,,,,,,,,,,1.072,625.0561288,None,None,1,625.0561288,None,,P036,fencog,1,Post,2022_Apr_21_1219,N-Back (New Version 2021),2021.1.4,120.214848
,,,,Conditions/Version_1/threeback(3)_v1.xlsx,New rule: Press 'space' when you see 3-back (i.e. the same letter as the one that appeared 3 letters ago.),f,None,,,,,,,,,0,8,8,8,0,4,4,4,,,,,,,,,,,,,,,,,,,,,,,,,,,,,,,,,,,,,,,,,,,,,,,,,,,,,,,,,,,,,,,,,,,,,1.3076,628.3733596,None,None,1,628.3733596,None,,P036,fencog,1,Post,2022_Apr_21_1219,N-Back (New Version 2021),2021.1.4,120.214848
,,,,Conditions/Version_1/threeback(3)_v1.xlsx,New rule: Press 'space' when you see 3-back (i.e. the same letter as the one that appeared 3 letters ago.),o,None,,,,,,,,,0,8,8,8,0,5,5,5,,,,,,,,,,,,,,,,,,,,,,,,,,,,,,,,,,,,,,,,,,,,,,,,,,,,,,,,,,,,,,,,,,,,,1.0286,631.415057,None,None,1,631.415057,None,,P036,fencog,1,Post,2022_Apr_21_1219,N-Back (New Version 2021),2021.1.4,120.214848
,,,,Conditions/Version_1/threeback(3)_v1.xlsx,New rule: Press 'space' when you see 3-back (i.e. the same letter as the one that appeared 3 letters ago.),w,None,,,,,,,,,0,8,8,8,0,6,6,6,,,,,,,,,,,,,,,,,,,,,,,,,,,,,,,,,,,,,,,,,,,,,,,,,,,,,,,,,,,,,,,,,,,,,1.165,634.5852579,None,None,1,634.5852579,None,,P036,fencog,1,Post,2022_Apr_21_1219,N-Back (New Version 2021),2021.1.4,120.214848
,,,,Conditions/Version_1/threeback(3)_v1.xlsx,New rule: Press 'space' when you see 3-back (i.e. the same letter as the one that appeared 3 letters ago.),F,space,,,,,,,,,0,8,8,8,0,7,7,7,,,,,,,,,,,,,,,,,,,,,,,,,,,,,,,,,,,,,,,,,,,,,,,,,,,,,,,,,,,,,,,,,,,,,1.8594,638.4540781,None,space,1,638.4540781,None,0.510156,P036,fencog,1,Post,2022_Apr_21_1219,N-Back (New Version 2021),2021.1.4,120.214848
,,,,Conditions/Version_1/threeback(3)_v1.xlsx,New rule: Press 'space' when you see 3-back (i.e. the same letter as the one that appeared 3 letters ago.),p,None,,,,,,,,,0,8,8,8,0,8,8,8,,,,,,,,,,,,,,,,,,,,,,,,,,,,,,,,,,,,,,,,,,,,,,,,,,,,,,,,,,,,,,,,,,,,,1.0224,641.4834712,None,None,1,641.4834712,None,,P036,fencog,1,Post,2022_Apr_21_1219,N-Back (New Version 2021),2021.1.4,120.214848
,,,,Conditions/Version_1/threeback(3)_v1.xlsx,New rule: Press 'space' when you see 3-back (i.e. the same letter as the one that appeared 3 letters ago.),W,space,,,,,,,,,0,8,8,8,0,9,9,9,,,,,,,,,,,,,,,,,,,,,,,,,,,,,,,,,,,,,,,,,,,,,,,,,,,,,,,,,,,,,,,,,,,,,1.0472,644.5401084,None,space,1,644.5401084,None,0.3681641,P036,fencog,1,Post,2022_Apr_21_1219,N-Back (New Version 2021),2021.1.4,120.214848
,,,,Conditions/Version_1/threeback(3)_v1.xlsx,New rule: Press 'space' when you see 3-back (i.e. the same letter as the one that appeared 3 letters ago.),,,,,,,,,,,0,8,8,8,,,,,,,,,,,,,,,,,,,,,,,,,,,,,,,,,,,,,,,,,,,,,,,,,,,,,,,,,,,,,,,,,,,,,,,,,,,,,,,,,P036,fencog,1,Post,2022_Apr_21_1219,N-Back (New Version 2021),2021.1.4,120.214848
,,,,Conditions/Version_1/zeroback(3)_v1.xlsx,New rule: Press 'space' when you see the letter 'x' or 'X'.,X,space,,,,,,,,,0,9,9,9,0,0,0,0,,,,,,,,,,,,,,,,,,,,,,,,,,,,,,,,,,,,,,,,,,,,,,,,,,,,,,,,,,,646.5596166,None,649.548565,None,space,0.3354851,649.548565,None,646.5596166,None,1.9462,651.8635782,None,space,1,651.8635782,None,0.3806824,P036,fencog,1,Post,2022_Apr_21_1219,N-Back (New Version 2021),2021.1.4,120.214848
,,,,Conditions/Version_1/zeroback(3)_v1.xlsx,New rule: Press 'space' when you see the letter 'x' or 'X'.,B,None,,,,,,,,,0,9,9,9,0,1,1,1,,,,,,,,,,,,,,,,,,,,,,,,,,,,,,,,,,,,,,,,,,,,,,,,,,,,,,,,,,,,,,,,,,,,,1.475,655.3471297,None,None,1,655.3471297,None,,P036,fencog,1,Post,2022_Apr_21_1219,N-Back (New Version 2021),2021.1.4,120.214848
,,,,Conditions/Version_1/zeroback(3)_v1.xlsx,New rule: Press 'space' when you see the letter 'x' or 'X'.,m,None,,,,,,,,,0,9,9,9,0,2,2,2,,,,,,,,,,,,,,,,,,,,,,,,,,,,,,,,,,,,,,,,,,,,,,,,,,,,,,,,,,,,,,,,,,,,,1.6858,659.0453503,None,None,1,659.0453503,None,,P036,fencog,1,Post,2022_Apr_21_1219,N-Back (New Version 2021),2021.1.4,120.214848
,,,,Conditions/Version_1/zeroback(3)_v1.xlsx,New rule: Press 'space' when you see the letter 'x' or 'X'.,m,None,,,,,,,,,0,9,9,9,0,3,3,3,,,,,,,,,,,,,,,,,,,,,,,,,,,,,,,,,,,,,,,,,,,,,,,,,,,,,,,,,,,,,,,,,,,,,1.7664,662.8182447,None,None,1,662.8182447,None,,P036,fencog,1,Post,2022_Apr_21_1219,N-Back (New Version 2021),2021.1.4,120.214848
,,,,Conditions/Version_1/zeroback(3)_v1.xlsx,New rule: Press 'space' when you see the letter 'x' or 'X'.,o,None,,,,,,,,,0,9,9,9,0,4,4,4,,,,,,,,,,,,,,,,,,,,,,,,,,,,,,,,,,,,,,,,,,,,,,,,,,,,,,,,,,,,,,,,,,,,,1.8346,666.6585506,None,None,1,666.6585506,None,,P036,fencog,1,Post,2022_Apr_21_1219,N-Back (New Version 2021),2021.1.4,120.214848
,,,,Conditions/Version_1/zeroback(3)_v1.xlsx,New rule: Press 'space' when you see the letter 'x' or 'X'.,p,None,,,,,,,,,0,9,9,9,0,5,5,5,,,,,,,,,,,,,,,,,,,,,,,,,,,,,,,,,,,,,,,,,,,,,,,,,,,,,,,,,,,,,,,,,,,,,1.9834,670.6408283,None,None,1,670.6408283,None,,P036,fencog,1,Post,2022_Apr_21_1219,N-Back (New Version 2021),2021.1.4,120.214848
,,,,Conditions/Version_1/zeroback(3)_v1.xlsx,New rule: Press 'space' when you see the letter 'x' or 'X'.,G,None,,,,,,,,,0,9,9,9,0,6,6,6,,,,,,,,,,,,,,,,,,,,,,,,,,,,,,,,,,,,,,,,,,,,,,,,,,,,,,,,,,,,,,,,,,,,,1.3572,674.0076901,None,None,1,674.0076901,None,,P036,fencog,1,Post,2022_Apr_21_1219,N-Back (New Version 2021),2021.1.4,120.214848
,,,,Conditions/Version_1/zeroback(3)_v1.xlsx,New rule: Press 'space' when you see the letter 'x' or 'X'.,X,space,,,,,,,,,0,9,9,9,0,7,7,7,,,,,,,,,,,,,,,,,,,,,,,,,,,,,,,,,,,,,,,,,,,,,,,,,,,,,,,,,,,,,,,,,,,,,1.8904,677.9116492,None,space,1,677.9116492,None,0.3486474,P036,fencog,1,Post,2022_Apr_21_1219,N-Back (New Version 2021),2021.1.4,120.214848
,,,,Conditions/Version_1/zeroback(3)_v1.xlsx,New rule: Press 'space' when you see the letter 'x' or 'X'.,p,None,,,,,,,,,0,9,9,9,0,8,8,8,,,,,,,,,,,,,,,,,,,,,,,,,,,,,,,,,,,,,,,,,,,,,,,,,,,,,,,,,,,,,,,,,,,,,1.537,681.4614793,None,None,1,681.4614793,None,,P036,fencog,1,Post,2022_Apr_21_1219,N-Back (New Version 2021),2021.1.4,120.214848
,,,,Conditions/Version_1/zeroback(3)_v1.xlsx,New rule: Press 'space' when you see the letter 'x' or 'X'.,x,space,,,,,,,,,0,9,9,9,0,9,9,9,,,,,,,,,,,,,,,,,,,,,,,,,,,,,,,,,,,,,,,,,,,,,,,,,,,,,,,,,,,,,,,,,,,,,1.6796,685.1462161,None,space,1,685.1462161,None,0.3938679,P036,fencog,1,Post,2022_Apr_21_1219,N-Back (New Version 2021),2021.1.4,120.214848
,,,,Conditions/Version_1/zeroback(3)_v1.xlsx,New rule: Press 'space' when you see the letter 'x' or 'X'.,,,,,,,,,,,0,9,9,9,,,,,,,,,,,,,,,,,,,,,,,,,,,,,,,,,,,,,,,,,,,,,,,,,,,,,,,,,,,,,,,,,,,,,,,,,,,,,,,,,P036,fencog,1,Post,2022_Apr_21_1219,N-Back (New Version 2021),2021.1.4,120.214848
,,,,Conditions/Version_1/twoback(3)_v1.xlsx,New rule: Press 'space' when you see 2-back (i.e. the same letter as the one that appeared 2 letters ago.),e,None,,,,,,,,,0,10,10,10,0,0,0,0,,,,,,,,,,,,,,,,,,,,,,,,,,,,,,,,,,,,,,,,,,,,,,,,,,,,,,,,,,,687.172728,None,690.1626258,None,space,2.3372963,690.1626258,None,687.172728,None,1.7664,694.3013731,None,None,1,694.3013731,None,,P036,fencog,1,Post,2022_Apr_21_1219,N-Back (New Version 2021),2021.1.4,120.214848
,,,,Conditions/Version_1/twoback(3)_v1.xlsx,New rule: Press 'space' when you see 2-back (i.e. the same letter as the one that appeared 2 letters ago.),o,None,,,,,,,,,0,10,10,10,0,1,1,1,,,,,,,,,,,,,,,,,,,,,,,,,,,,,,,,,,,,,,,,,,,,,,,,,,,,,,,,,,,,,,,,,,,,,1.506,697.8161439,None,None,1,697.8161439,None,,P036,fencog,1,Post,2022_Apr_21_1219,N-Back (New Version 2021),2021.1.4,120.214848
,,,,Conditions/Version_1/twoback(3)_v1.xlsx,New rule: Press 'space' when you see 2-back (i.e. the same letter as the one that appeared 2 letters ago.),P,None,,,,,,,,,0,10,10,10,0,2,2,2,,,,,,,,,,,,,,,,,,,,,,,,,,,,,,,,,,,,,,,,,,,,,,,,,,,,,,,,,,,,,,,,,,,,,1.4874,701.3079163,None,None,1,701.3079163,None,,P036,fencog,1,Post,2022_Apr_21_1219,N-Back (New Version 2021),2021.1.4,120.214848
,,,,Conditions/Version_1/twoback(3)_v1.xlsx,New rule: Press 'space' when you see 2-back (i.e. the same letter as the one that appeared 2 letters ago.),z,None,,,,,,,,,0,10,10,10,0,3,3,3,,,,,,,,,,,,,,,,,,,,,,,,,,,,,,,,,,,,,,,,,,,,,,,,,,,,,,,,,,,,,,,,,,,,,1.9834,705.2985474,None,None,1,705.2985474,None,,P036,fencog,1,Post,2022_Apr_21_1219,N-Back (New Version 2021),2021.1.4,120.214848
,,,,Conditions/Version_1/twoback(3)_v1.xlsx,New rule: Press 'space' when you see 2-back (i.e. the same letter as the one that appeared 2 letters ago.),X,None,,,,,,,,,0,10,10,10,0,4,4,4,,,,,,,,,,,,,,,,,,,,,,,,,,,,,,,,,,,,,,,,,,,,,,,,,,,,,,,,,,,,,,,,,,,,,1.0906,708.3962192,None,None,1,708.3962192,None,,P036,fencog,1,Post,2022_Apr_21_1219,N-Back (New Version 2021),2021.1.4,120.214848
,,,,Conditions/Version_1/twoback(3)_v1.xlsx,New rule: Press 'space' when you see 2-back (i.e. the same letter as the one that appeared 2 letters ago.),z,space,,,,,,,,,0,10,10,10,0,5,5,5,,,,,,,,,,,,,,,,,,,,,,,,,,,,,,,,,,,,,,,,,,,,,,,,,,,,,,,,,,,,,,,,,,,,,1.2022,711.6036447,None,space,1,711.6036447,None,0.3764811,P036,fencog,1,Post,2022_Apr_21_1219,N-Back (New Version 2021),2021.1.4,120.214848
,,,,Conditions/Version_1/twoback(3)_v1.xlsx,New rule: Press 'space' when you see 2-back (i.e. the same letter as the one that appeared 2 letters ago.),x,space,,,,,,,,,0,10,10,10,0,6,6,6,,,,,,,,,,,,,,,,,,,,,,,,,,,,,,,,,,,,,,,,,,,,,,,,,,,,,,,,,,,,,,,,,,,,,1.1278,714.7362222,None,space,1,714.7362222,None,0.3798132,P036,fencog,1,Post,2022_Apr_21_1219,N-Back (New Version 2021),2021.1.4,120.214848
,,,,Conditions/Version_1/twoback(3)_v1.xlsx,New rule: Press 'space' when you see 2-back (i.e. the same letter as the one that appeared 2 letters ago.),c,None,,,,,,,,,0,10,10,10,0,7,7,7,,,,,,,,,,,,,,,,,,,,,,,,,,,,,,,,,,,,,,,,,,,,,,,,,,,,,,,,,,,,,,,,,,,,,1.3014,718.0471944,None,None,1,718.0471944,None,,P036,fencog,1,Post,2022_Apr_21_1219,N-Back (New Version 2021),2021.1.4,120.214848
,,,,Conditions/Version_1/twoback(3)_v1.xlsx,New rule: Press 'space' when you see 2-back (i.e. the same letter as the one that appeared 2 letters ago.),i,None,,,,,,,,,0,10,10,10,0,8,8,8,,,,,,,,,,,,,,,,,,,,,,,,,,,,,,,,,,,,,,,,,,,,,,,,,,,,,,,,,,,,,,,,,,,,,1.0224,721.0759855,None,None,1,721.0759855,None,,P036,fencog,1,Post,2022_Apr_21_1219,N-Back (New Version 2021),2021.1.4,120.214848
,,,,Conditions/Version_1/twoback(3)_v1.xlsx,New rule: Press 'space' when you see 2-back (i.e. the same letter as the one that appeared 2 letters ago.),C,space,,,,,,,,,0,10,10,10,0,9,9,9,,,,,,,,,,,,,,,,,,,,,,,,,,,,,,,,,,,,,,,,,,,,,,,,,,,,,,,,,,,,,,,,,,,,,1.754,724.8357637,None,space,1,724.8357637,None,0.4563905,P036,fencog,1,Post,2022_Apr_21_1219,N-Back (New Version 2021),2021.1.4,120.214848
,,,,Conditions/Version_1/twoback(3)_v1.xlsx,New rule: Press 'space' when you see 2-back (i.e. the same letter as the one that appeared 2 letters ago.),,,,,,,,,,,0,10,10,10,,,,,,,,,,,,,,,,,,,,,,,,,,,,,,,,,,,,,,,,,,,,,,,,,,,,,,,,,,,,,,,,,,,,,,,,,,,,,,,,,P036,fencog,1,Post,2022_Apr_21_1219,N-Back (New Version 2021),2021.1.4,120.214848
,,,,Conditions/Version_1/oneback(3)_v1.xlsx,New rule: Press 'space' when you see 1-back (i.e. the same letter as the one that appeared 1 letter ago.),o,None,,,,,,,,,0,11,11,11,0,0,0,0,,,,,,,,,,,,,,,,,,,,,,,,,,,,,,,,,,,,,,,,,,,,,,,,,,,,,,,,,,,726.8637157,None,729.8508375,None,space,0.37742,729.8508375,None,726.8637157,None,1.9896,732.256017,None,None,1,732.256017,None,,P036,fencog,1,Post,2022_Apr_21_1219,N-Back (New Version 2021),2021.1.4,120.214848
,,,,Conditions/Version_1/oneback(3)_v1.xlsx,New rule: Press 'space' when you see 1-back (i.e. the same letter as the one that appeared 1 letter ago.),O,space,,,,,,,,,0,11,11,11,0,1,1,1,,,,,,,,,,,,,,,,,,,,,,,,,,,,,,,,,,,,,,,,,,,,,,,,,,,,,,,,,,,,,,,,,,,,,1.7664,736.0283984,None,space,1,736.0283984,None,0.4475513,P036,fencog,1,Post,2022_Apr_21_1219,N-Back (New Version 2021),2021.1.4,120.214848
,,,,Conditions/Version_1/oneback(3)_v1.xlsx,New rule: Press 'space' when you see 1-back (i.e. the same letter as the one that appeared 1 letter ago.),h,None,,,,,,,,,0,11,11,11,0,2,2,2,,,,,,,,,,,,,,,,,,,,,,,,,,,,,,,,,,,,,,,,,,,,,,,,,,,,,,,,,,,,,,,,,,,,,1.5928,739.6288209,None,None,1,739.6288209,None,,P036,fencog,1,Post,2022_Apr_21_1219,N-Back (New Version 2021),2021.1.4,120.214848
,,,,Conditions/Version_1/oneback(3)_v1.xlsx,New rule: Press 'space' when you see 1-back (i.e. the same letter as the one that appeared 1 letter ago.),g,None,,,,,,,,,0,11,11,11,0,3,3,3,,,,,,,,,,,,,,,,,,,,,,,,,,,,,,,,,,,,,,,,,,,,,,,,,,,,,,,,,,,,,,,,,,,,,1.4688,743.1072641,None,None,1,743.1072641,None,,P036,fencog,1,Post,2022_Apr_21_1219,N-Back (New Version 2021),2021.1.4,120.214848
,,,,Conditions/Version_1/oneback(3)_v1.xlsx,New rule: Press 'space' when you see 1-back (i.e. the same letter as the one that appeared 1 letter ago.),n,None,,,,,,,,,0,11,11,11,0,4,4,4,,,,,,,,,,,,,,,,,,,,,,,,,,,,,,,,,,,,,,,,,,,,,,,,,,,,,,,,,,,,,,,,,,,,,1.3448,746.4701365,None,None,1,746.4701365,None,,P036,fencog,1,Post,2022_Apr_21_1219,N-Back (New Version 2021),2021.1.4,120.214848
,,,,Conditions/Version_1/oneback(3)_v1.xlsx,New rule: Press 'space' when you see 1-back (i.e. the same letter as the one that appeared 1 letter ago.),z,None,,,,,,,,,0,11,11,11,0,5,5,5,,,,,,,,,,,,,,,,,,,,,,,,,,,,,,,,,,,,,,,,,,,,,,,,,,,,,,,,,,,,,,,,,,,,,1.4316,749.9093278,None,None,1,749.9093278,None,,P036,fencog,1,Post,2022_Apr_21_1219,N-Back (New Version 2021),2021.1.4,120.214848
,,,,Conditions/Version_1/oneback(3)_v1.xlsx,New rule: Press 'space' when you see 1-back (i.e. the same letter as the one that appeared 1 letter ago.),X,None,,,,,,,,,0,11,11,11,0,6,6,6,,,,,,,,,,,,,,,,,,,,,,,,,,,,,,,,,,,,,,,,,,,,,,,,,,,,,,,,,,,,,,,,,,,,,1.258,753.1733436,None,None,1,753.1733436,None,,P036,fencog,1,Post,2022_Apr_21_1219,N-Back (New Version 2021),2021.1.4,120.214848
,,,,Conditions/Version_1/oneback(3)_v1.xlsx,New rule: Press 'space' when you see 1-back (i.e. the same letter as the one that appeared 1 letter ago.),r,None,,,,,,,,,0,11,11,11,0,7,7,7,,,,,,,,,,,,,,,,,,,,,,,,,,,,,,,,,,,,,,,,,,,,,,,,,,,,,,,,,,,,,,,,,,,,,1.9772,757.163614,None,None,1,757.163614,None,,P036,fencog,1,Post,2022_Apr_21_1219,N-Back (New Version 2021),2021.1.4,120.214848
,,,,Conditions/Version_1/oneback(3)_v1.xlsx,New rule: Press 'space' when you see 1-back (i.e. the same letter as the one that appeared 1 letter ago.),r,space,,,,,,,,,0,11,11,11,0,8,8,8,,,,,,,,,,,,,,,,,,,,,,,,,,,,,,,,,,,,,,,,,,,,,,,,,,,,,,,,,,,,,,,,,,,,,1.6052,760.7727618,None,space,1,760.7727618,None,0.4311474,P036,fencog,1,Post,2022_Apr_21_1219,N-Back (New Version 2021),2021.1.4,120.214848
,,,,Conditions/Version_1/oneback(3)_v1.xlsx,New rule: Press 'space' when you see 1-back (i.e. the same letter as the one that appeared 1 letter ago.),P,None,,,,,,,,,0,11,11,11,0,9,9,9,,,,,,,,,,,,,,,,,,,,,,,,,,,,,,,,,,,,,,,,,,,,,,,,,,,,,,,,,,,,,,,,,,,,,1.8904,764.6657772,None,None,1,764.6657772,None,,P036,fencog,1,Post,2022_Apr_21_1219,N-Back (New Version 2021),2021.1.4,120.214848
,,,,Conditions/Version_1/oneback(3)_v1.xlsx,New rule: Press 'space' when you see 1-back (i.e. the same letter as the one that appeared 1 letter ago.),,,,,,,,,,,0,11,11,11,,,,,,,,,,,,,,,,,,,,,,,,,,,,,,,,,,,,,,,,,,,,,,,,,,,,,,,,,,,,,,,,,,,,,,,,,,,,,,,,,P036,fencog,1,Post,2022_Apr_21_1219,N-Back (New Version 2021),2021.1.4,120.214848
,,,,Conditions/Version_1/twoback(4)_v1.xlsx,New rule: Press 'space' when you see 2-back (i.e. the same letter as the one that appeared 2 letters ago.),r,None,,,,,,,,,0,12,12,12,0,0,0,0,,,,,,,,,,,,,,,,,,,,,,,,,,,,,,,,,,,,,,,,,,,,,,,,,,,,,,,,,,,766.6938132,None,769.6807771,None,space,0.299142,769.6807771,None,766.6938132,None,1.6052,771.6526505,None,None,1,771.6526505,None,,P036,fencog,1,Post,2022_Apr_21_1219,N-Back (New Version 2021),2021.1.4,120.214848
,,,,Conditions/Version_1/twoback(4)_v1.xlsx,New rule: Press 'space' when you see 2-back (i.e. the same letter as the one that appeared 2 letters ago.),T,None,,,,,,,,,0,12,12,12,0,1,1,1,,,,,,,,,,,,,,,,,,,,,,,,,,,,,,,,,,,,,,,,,,,,,,,,,,,,,,,,,,,,,,,,,,,,,1.6982,775.3515254,None,None,1,775.3515254,None,,P036,fencog,1,Post,2022_Apr_21_1219,N-Back (New Version 2021),2021.1.4,120.214848
,,,,Conditions/Version_1/twoback(4)_v1.xlsx,New rule: Press 'space' when you see 2-back (i.e. the same letter as the one that appeared 2 letters ago.),o,None,,,,,,,,,0,12,12,12,0,2,2,2,,,,,,,,,,,,,,,,,,,,,,,,,,,,,,,,,,,,,,,,,,,,,,,,,,,,,,,,,,,,,,,,,,,,,1.041,778.3952881,None,None,1,778.3952881,None,,P036,fencog,1,Post,2022_Apr_21_1219,N-Back (New Version 2021),2021.1.4,120.214848
,,,,Conditions/Version_1/twoback(4)_v1.xlsx,New rule: Press 'space' when you see 2-back (i.e. the same letter as the one that appeared 2 letters ago.),p,None,,,,,,,,,0,12,12,12,0,3,3,3,,,,,,,,,,,,,,,,,,,,,,,,,,,,,,,,,,,,,,,,,,,,,,,,,,,,,,,,,,,,,,,,,,,,,1.413,781.8170976,None,None,1,781.8170976,None,,P036,fencog,1,Post,2022_Apr_21_1219,N-Back (New Version 2021),2021.1.4,120.214848
,,,,Conditions/Version_1/twoback(4)_v1.xlsx,New rule: Press 'space' when you see 2-back (i.e. the same letter as the one that appeared 2 letters ago.),p,None,,,,,,,,,0,12,12,12,0,4,4,4,,,,,,,,,,,,,,,,,,,,,,,,,,,,,,,,,,,,,,,,,,,,,,,,,,,,,,,,,,,,,,,,,,,,,1.2518,785.0820525,None,None,1,785.0820525,None,,P036,fencog,1,Post,2022_Apr_21_1219,N-Back (New Version 2021),2021.1.4,120.214848
,,,,Conditions/Version_1/twoback(4)_v1.xlsx,New rule: Press 'space' when you see 2-back (i.e. the same letter as the one that appeared 2 letters ago.),y,None,,,,,,,,,0,12,12,12,0,5,5,5,,,,,,,,,,,,,,,,,,,,,,,,,,,,,,,,,,,,,,,,,,,,,,,,,,,,,,,,,,,,,,,,,,,,,1.3944,788.4808435,None,None,1,788.4808435,None,,P036,fencog,1,Post,2022_Apr_21_1219,N-Back (New Version 2021),2021.1.4,120.214848
,,,,Conditions/Version_1/twoback(4)_v1.xlsx,New rule: Press 'space' when you see 2-back (i.e. the same letter as the one that appeared 2 letters ago.),P,space,,,,,,,,,0,12,12,12,0,6,6,6,,,,,,,,,,,,,,,,,,,,,,,,,,,,,,,,,,,,,,,,,,,,,,,,,,,,,,,,,,,,,,,,,,,,,1.0162,791.5005532,None,space,1,791.5005532,None,0.6713934,P036,fencog,1,Post,2022_Apr_21_1219,N-Back (New Version 2021),2021.1.4,120.214848
,,,,Conditions/Version_1/twoback(4)_v1.xlsx,New rule: Press 'space' when you see 2-back (i.e. the same letter as the one that appeared 2 letters ago.),y,None,,,,,,,,,0,12,12,12,0,7,7,7,,,,,,,,,,,,,,,,,,,,,,,,,,,,,,,,,,,,,,,,,,,,,,,,,,,,,,,,,,,,,,,,,,,,,1.3076,794.812403,None,space,0,794.812403,None,0.4314919,P036,fencog,1,Post,2022_Apr_21_1219,N-Back (New Version 2021),2021.1.4,120.214848
,,,,Conditions/Version_1/twoback(4)_v1.xlsx,New rule: Press 'space' when you see 2-back (i.e. the same letter as the one that appeared 2 letters ago.),y,space,,,,,,,,,0,12,12,12,0,8,8,8,,,,,,,,,,,,,,,,,,,,,,,,,,,,,,,,,,,,,,,,,,,,,,,,,,,,,,,,,,,,,,,,,,,,,1.5122,798.3282853,None,None,0,798.3282853,None,,P036,fencog,1,Post,2022_Apr_21_1219,N-Back (New Version 2021),2021.1.4,120.214848
,,,,Conditions/Version_1/twoback(4)_v1.xlsx,New rule: Press 'space' when you see 2-back (i.e. the same letter as the one that appeared 2 letters ago.),,,,,,,,,,,0,12,12,12,,,,,,,,,,,,,,,,,,,,,,,,,,,,,,,,,,,,,,,,,,,,,,,,,,,,,,,,,,,,,,,,,,,,,,,,,,,,,,,,,P036,fencog,1,Post,2022_Apr_21_1219,N-Back (New Version 2021),2021.1.4,120.214848
,,,,Conditions/Version_1/zeroback(4)_v1.xlsx,New rule: Press 'space' when you see the letter 'x' or 'X'.,o,None,,,,,,,,,0,13,13,13,0,0,0,0,,,,,,,,,,,,,,,,,,,,,,,,,,,,,,,,,,,,,,,,,,,,,,,,,,,,,,,,,,,800.3484561,None,803.3393233,None,space,0.3365839,803.3393233,None,800.3484561,None,1.9338,805.6425887,None,None,1,805.6425887,None,,P036,fencog,1,Post,2022_Apr_21_1219,N-Back (New Version 2021),2021.1.4,120.214848
,,,,Conditions/Version_1/zeroback(4)_v1.xlsx,New rule: Press 'space' when you see the letter 'x' or 'X'.,X,space,,,,,,,,,0,13,13,13,0,1,1,1,,,,,,,,,,,,,,,,,,,,,,,,,,,,,,,,,,,,,,,,,,,,,,,,,,,,,,,,,,,,,,,,,,,,,1.6238,809.2667017,None,space,1,809.2667017,None,0.3614555,P036,fencog,1,Post,2022_Apr_21_1219,N-Back (New Version 2021),2021.1.4,120.214848
,,,,Conditions/Version_1/zeroback(4)_v1.xlsx,New rule: Press 'space' when you see the letter 'x' or 'X'.,p,None,,,,,,,,,0,13,13,13,0,2,2,2,,,,,,,,,,,,,,,,,,,,,,,,,,,,,,,,,,,,,,,,,,,,,,,,,,,,,,,,,,,,,,,,,,,,,1.0534,812.3251979,None,None,1,812.3251979,None,,P036,fencog,1,Post,2022_Apr_21_1219,N-Back (New Version 2021),2021.1.4,120.214848
,,,,Conditions/Version_1/zeroback(4)_v1.xlsx,New rule: Press 'space' when you see the letter 'x' or 'X'.,m,None,,,,,,,,,0,13,13,13,0,3,3,3,,,,,,,,,,,,,,,,,,,,,,,,,,,,,,,,,,,,,,,,,,,,,,,,,,,,,,,,,,,,,,,,,,,,,1.506,815.8395241,None,None,1,815.8395241,None,,P036,fencog,1,Post,2022_Apr_21_1219,N-Back (New Version 2021),2021.1.4,120.214848
,,,,Conditions/Version_1/zeroback(4)_v1.xlsx,New rule: Press 'space' when you see the letter 'x' or 'X'.,n,None,,,,,,,,,0,13,13,13,0,4,4,4,,,,,,,,,,,,,,,,,,,,,,,,,,,,,,,,,,,,,,,,,,,,,,,,,,,,,,,,,,,,,,,,,,,,,1.9896,819.8327021,None,None,1,819.8327021,None,,P036,fencog,1,Post,2022_Apr_21_1219,N-Back (New Version 2021),2021.1.4,120.214848
,,,,Conditions/Version_1/zeroback(4)_v1.xlsx,New rule: Press 'space' when you see the letter 'x' or 'X'.,m,None,,,,,,,,,0,13,13,13,0,5,5,5,,,,,,,,,,,,,,,,,,,,,,,,,,,,,,,,,,,,,,,,,,,,,,,,,,,,,,,,,,,,,,,,,,,,,1.5122,823.3467243,None,None,1,823.3467243,None,,P036,fencog,1,Post,2022_Apr_21_1219,N-Back (New Version 2021),2021.1.4,120.214848
,,,,Conditions/Version_1/zeroback(4)_v1.xlsx,New rule: Press 'space' when you see the letter 'x' or 'X'.,C,None,,,,,,,,,0,13,13,13,0,6,6,6,,,,,,,,,,,,,,,,,,,,,,,,,,,,,,,,,,,,,,,,,,,,,,,,,,,,,,,,,,,,,,,,,,,,,1.2952,826.6456928,None,None,1,826.6456928,None,,P036,fencog,1,Post,2022_Apr_21_1219,N-Back (New Version 2021),2021.1.4,120.214848
,,,,Conditions/Version_1/zeroback(4)_v1.xlsx,New rule: Press 'space' when you see the letter 'x' or 'X'.,m,None,,,,,,,,,0,13,13,13,0,7,7,7,,,,,,,,,,,,,,,,,,,,,,,,,,,,,,,,,,,,,,,,,,,,,,,,,,,,,,,,,,,,,,,,,,,,,1.9152,830.5686675,None,None,1,830.5686675,None,,P036,fencog,1,Post,2022_Apr_21_1219,N-Back (New Version 2021),2021.1.4,120.214848
,,,,Conditions/Version_1/zeroback(4)_v1.xlsx,New rule: Press 'space' when you see the letter 'x' or 'X'.,p,None,,,,,,,,,0,13,13,13,0,8,8,8,,,,,,,,,,,,,,,,,,,,,,,,,,,,,,,,,,,,,,,,,,,,,,,,,,,,,,,,,,,,,,,,,,,,,1.5866,834.1661031,None,None,1,834.1661031,None,,P036,fencog,1,Post,2022_Apr_21_1219,N-Back (New Version 2021),2021.1.4,120.214848
,,,,Conditions/Version_1/zeroback(4)_v1.xlsx,New rule: Press 'space' when you see the letter 'x' or 'X'.,X,space,,,,,,,,,0,13,13,13,0,9,9,9,,,,,,,,,,,,,,,,,,,,,,,,,,,,,,,,,,,,,,,,,,,,,,,,,,,,,,,,,,,,,,,,,,,,,1.3138,837.4831878,None,space,1,837.4831878,None,0.3929209,P036,fencog,1,Post,2022_Apr_21_1219,N-Back (New Version 2021),2021.1.4,120.214848
,,,,Conditions/Version_1/zeroback(4)_v1.xlsx,New rule: Press 'space' when you see the letter 'x' or 'X'.,,,,,,,,,,,0,13,13,13,,,,,,,,,,,,,,,,,,,,,,,,,,,,,,,,,,,,,,,,,,,,,,,,,,,,,,,,,,,,,,,,,,,,,,,,,,,,,,,,,P036,fencog,1,Post,2022_Apr_21_1219,N-Back (New Version 2021),2021.1.4,120.214848
,,,,Conditions/Version_1/oneback(4)_v1.xlsx,New rule: Press 'space' when you see 1-back (i.e. the same letter as the one that appeared 1 letter ago.),w,None,,,,,,,,,0,14,14,14,0,0,0,0,,,,,,,,,,,,,,,,,,,,,,,,,,,,,,,,,,,,,,,,,,,,,,,,,,,,,,,,,,,839.5033502,None,842.4924379,None,space,0.3357084,842.4924379,None,839.5033502,None,1.1092,843.9766424,None,None,1,843.9766424,None,,P036,fencog,1,Post,2022_Apr_21_1219,N-Back (New Version 2021),2021.1.4,120.214848
,,,,Conditions/Version_1/oneback(4)_v1.xlsx,New rule: Press 'space' when you see 1-back (i.e. the same letter as the one that appeared 1 letter ago.),q,None,,,,,,,,,0,14,14,14,0,1,1,1,,,,,,,,,,,,,,,,,,,,,,,,,,,,,,,,,,,,,,,,,,,,,,,,,,,,,,,,,,,,,,,,,,,,,1.134,847.1231691,None,None,1,847.1231691,None,,P036,fencog,1,Post,2022_Apr_21_1219,N-Back (New Version 2021),2021.1.4,120.214848
,,,,Conditions/Version_1/oneback(4)_v1.xlsx,New rule: Press 'space' when you see 1-back (i.e. the same letter as the one that appeared 1 letter ago.),i,None,,,,,,,,,0,14,14,14,0,2,2,2,,,,,,,,,,,,,,,,,,,,,,,,,,,,,,,,,,,,,,,,,,,,,,,,,,,,,,,,,,,,,,,,,,,,,1.785,850.9210895,None,None,1,850.9210895,None,,P036,fencog,1,Post,2022_Apr_21_1219,N-Back (New Version 2021),2021.1.4,120.214848
,,,,Conditions/Version_1/oneback(4)_v1.xlsx,New rule: Press 'space' when you see 1-back (i.e. the same letter as the one that appeared 1 letter ago.),t,None,,,,,,,,,0,14,14,14,0,3,3,3,,,,,,,,,,,,,,,,,,,,,,,,,,,,,,,,,,,,,,,,,,,,,,,,,,,,,,,,,,,,,,,,,,,,,1.568,854.5027139,None,None,1,854.5027139,None,,P036,fencog,1,Post,2022_Apr_21_1219,N-Back (New Version 2021),2021.1.4,120.214848
,,,,Conditions/Version_1/oneback(4)_v1.xlsx,New rule: Press 'space' when you see 1-back (i.e. the same letter as the one that appeared 1 letter ago.),v,None,,,,,,,,,0,14,14,14,0,4,4,4,,,,,,,,,,,,,,,,,,,,,,,,,,,,,,,,,,,,,,,,,,,,,,,,,,,,,,,,,,,,,,,,,,,,,1.9276,858.43698,None,None,1,858.43698,None,,P036,fencog,1,Post,2022_Apr_21_1219,N-Back (New Version 2021),2021.1.4,120.214848
,,,,Conditions/Version_1/oneback(4)_v1.xlsx,New rule: Press 'space' when you see 1-back (i.e. the same letter as the one that appeared 1 letter ago.),V,space,,,,,,,,,0,14,14,14,0,5,5,5,,,,,,,,,,,,,,,,,,,,,,,,,,,,,,,,,,,,,,,,,,,,,,,,,,,,,,,,,,,,,,,,,,,,,1.6114,862.0610755,None,space,1,862.0610755,None,0.5910625,P036,fencog,1,Post,2022_Apr_21_1219,N-Back (New Version 2021),2021.1.4,120.214848
,,,,Conditions/Version_1/oneback(4)_v1.xlsx,New rule: Press 'space' when you see 1-back (i.e. the same letter as the one that appeared 1 letter ago.),v,space,,,,,,,,,0,14,14,14,0,6,6,6,,,,,,,,,,,,,,,,,,,,,,,,,,,,,,,,,,,,,,,,,,,,,,,,,,,,,,,,,,,,,,,,,,,,,1.0844,865.156685,None,space,1,865.156685,None,0.4313978,P036,fencog,1,Post,2022_Apr_21_1219,N-Back (New Version 2021),2021.1.4,120.214848
,,,,Conditions/Version_1/oneback(4)_v1.xlsx,New rule: Press 'space' when you see 1-back (i.e. the same letter as the one that appeared 1 letter ago.),p,None,,,,,,,,,0,14,14,14,0,7,7,7,,,,,,,,,,,,,,,,,,,,,,,,,,,,,,,,,,,,,,,,,,,,,,,,,,,,,,,,,,,,,,,,,,,,,1.103,868.2657587,None,None,1,868.2657587,None,,P036,fencog,1,Post,2022_Apr_21_1219,N-Back (New Version 2021),2021.1.4,120.214848
,,,,Conditions/Version_1/oneback(4)_v1.xlsx,New rule: Press 'space' when you see 1-back (i.e. the same letter as the one that appeared 1 letter ago.),w,None,,,,,,,,,0,14,14,14,0,8,8,8,,,,,,,,,,,,,,,,,,,,,,,,,,,,,,,,,,,,,,,,,,,,,,,,,,,,,,,,,,,,,,,,,,,,,1.7106,871.9832679,None,None,1,871.9832679,None,,P036,fencog,1,Post,2022_Apr_21_1219,N-Back (New Version 2021),2021.1.4,120.214848
,,,,Conditions/Version_1/oneback(4)_v1.xlsx,New rule: Press 'space' when you see 1-back (i.e. the same letter as the one that appeared 1 letter ago.),W,space,,,,,,,,,0,14,14,14,0,9,9,9,,,,,,,,,,,,,,,,,,,,,,,,,,,,,,,,,,,,,,,,,,,,,,,,,,,,,,,,,,,,,,,,,,,,,1.816,875.8053783,None,space,1,875.8053783,None,0.4465922,P036,fencog,1,Post,2022_Apr_21_1219,N-Back (New Version 2021),2021.1.4,120.214848
,,,,Conditions/Version_1/oneback(4)_v1.xlsx,New rule: Press 'space' when you see 1-back (i.e. the same letter as the one that appeared 1 letter ago.),,,,,,,,,,,0,14,14,14,,,,,,,,,,,,,,,,,,,,,,,,,,,,,,,,,,,,,,,,,,,,,,,,,,,,,,,,,,,,,,,,,,,,,,,,,,,,,,,,,P036,fencog,1,Post,2022_Apr_21_1219,N-Back (New Version 2021),2021.1.4,120.214848
,,,,Conditions/Version_1/threeback(4)_v1.xlsx,New rule: Press 'space' when you see 3-back (i.e. the same letter as the one that appeared 3 letters ago.),A,None,,,,,,,,,0,15,15,15,0,0,0,0,,,,,,,,,,,,,,,,,,,,,,,,,,,,,,,,,,,,,,,,,,,,,,,,,,,,,,,,,,,877.8413375,None,880.8329409,None,space,0.4350042,880.8329409,None,877.8413375,None,1.5556,882.8531262,None,None,1,882.8531262,None,,P036,fencog,1,Post,2022_Apr_21_1219,N-Back (New Version 2021),2021.1.4,120.214848
,,,,Conditions/Version_1/threeback(4)_v1.xlsx,New rule: Press 'space' when you see 3-back (i.e. the same letter as the one that appeared 3 letters ago.),n,None,,,,,,,,,0,15,15,15,0,1,1,1,,,,,,,,,,,,,,,,,,,,,,,,,,,,,,,,,,,,,,,,,,,,,,,,,,,,,,,,,,,,,,,,,,,,,1.6176,886.4798098,None,None,1,886.4798098,None,,P036,fencog,1,Post,2022_Apr_21_1219,N-Back (New Version 2021),2021.1.4,120.214848
,,,,Conditions/Version_1/threeback(4)_v1.xlsx,New rule: Press 'space' when you see 3-back (i.e. the same letter as the one that appeared 3 letters ago.),g,None,,,,,,,,,0,15,15,15,0,2,2,2,,,,,,,,,,,,,,,,,,,,,,,,,,,,,,,,,,,,,,,,,,,,,,,,,,,,,,,,,,,,,,,,,,,,,1.072,889.5595841,None,None,1,889.5595841,None,,P036,fencog,1,Post,2022_Apr_21_1219,N-Back (New Version 2021),2021.1.4,120.214848
,,,,Conditions/Version_1/threeback(4)_v1.xlsx,New rule: Press 'space' when you see 3-back (i.e. the same letter as the one that appeared 3 letters ago.),A,space,,,,,,,,,0,15,15,15,0,3,3,3,,,,,,,,,,,,,,,,,,,,,,,,,,,,,,,,,,,,,,,,,,,,,,,,,,,,,,,,,,,,,,,,,,,,,1.4254,892.9873802,None,space,1,892.9873802,None,0.4326683,P036,fencog,1,Post,2022_Apr_21_1219,N-Back (New Version 2021),2021.1.4,120.214848
,,,,Conditions/Version_1/threeback(4)_v1.xlsx,New rule: Press 'space' when you see 3-back (i.e. the same letter as the one that appeared 3 letters ago.),p,None,,,,,,,,,0,15,15,15,0,4,4,4,,,,,,,,,,,,,,,,,,,,,,,,,,,,,,,,,,,,,,,,,,,,,,,,,,,,,,,,,,,,,,,,,,,,,1.661,896.6574885,None,None,1,896.6574885,None,,P036,fencog,1,Post,2022_Apr_21_1219,N-Back (New Version 2021),2021.1.4,120.214848
,,,,Conditions/Version_1/threeback(4)_v1.xlsx,New rule: Press 'space' when you see 3-back (i.e. the same letter as the one that appeared 3 letters ago.),O,None,,,,,,,,,0,15,15,15,0,5,5,5,,,,,,,,,,,,,,,,,,,,,,,,,,,,,,,,,,,,,,,,,,,,,,,,,,,,,,,,,,,,,,,,,,,,,1.6362,900.2981291,None,None,1,900.2981291,None,,P036,fencog,1,Post,2022_Apr_21_1219,N-Back (New Version 2021),2021.1.4,120.214848
,,,,Conditions/Version_1/threeback(4)_v1.xlsx,New rule: Press 'space' when you see 3-back (i.e. the same letter as the one that appeared 3 letters ago.),a,space,,,,,,,,,0,15,15,15,0,6,6,6,,,,,,,,,,,,,,,,,,,,,,,,,,,,,,,,,,,,,,,,,,,,,,,,,,,,,,,,,,,,,,,,,,,,,1.1712,903.4720343,None,space,1,903.4720343,None,0.9801738,P036,fencog,1,Post,2022_Apr_21_1219,N-Back (New Version 2021),2021.1.4,120.214848
,,,,Conditions/Version_1/threeback(4)_v1.xlsx,New rule: Press 'space' when you see 3-back (i.e. the same letter as the one that appeared 3 letters ago.),p,space,,,,,,,,,0,15,15,15,0,7,7,7,,,,,,,,,,,,,,,,,,,,,,,,,,,,,,,,,,,,,,,,,,,,,,,,,,,,,,,,,,,,,,,,,,,,,1.3758,906.8552137,None,space,1,906.8552137,None,0.4766625,P036,fencog,1,Post,2022_Apr_21_1219,N-Back (New Version 2021),2021.1.4,120.214848
,,,,Conditions/Version_1/threeback(4)_v1.xlsx,New rule: Press 'space' when you see 3-back (i.e. the same letter as the one that appeared 3 letters ago.),x,None,,,,,,,,,0,15,15,15,0,8,8,8,,,,,,,,,,,,,,,,,,,,,,,,,,,,,,,,,,,,,,,,,,,,,,,,,,,,,,,,,,,,,,,,,,,,,1.8718,910.7377732,None,None,1,910.7377732,None,,P036,fencog,1,Post,2022_Apr_21_1219,N-Back (New Version 2021),2021.1.4,120.214848
,,,,Conditions/Version_1/threeback(4)_v1.xlsx,New rule: Press 'space' when you see 3-back (i.e. the same letter as the one that appeared 3 letters ago.),X,None,,,,,,,,,0,15,15,15,0,9,9,9,,,,,,,,,,,,,,,,,,,,,,,,,,,,,,,,,,,,,,,,,,,,,,,,,,,,,,,,,,,,,,,,,,,,,1.2332,913.9851386,None,None,1,913.9851386,None,,P036,fencog,1,Post,2022_Apr_21_1219,N-Back (New Version 2021),2021.1.4,120.214848
,,,,Conditions/Version_1/threeback(4)_v1.xlsx,New rule: Press 'space' when you see 3-back (i.e. the same letter as the one that appeared 3 letters ago.),,,,,,,,,,,0,15,15,15,,,,,,,,,,,,,,,,,,,,,,,,,,,,,,,,,,,,,,,,,,,,,,,,,,,,,,,,,,,,,,,,,,,,,,,,,,,,,,,,,P036,fencog,1,Post,2022_Apr_21_1219,N-Back (New Version 2021),2021.1.4,120.214848
