CondFileP,InstructionsP,LettersDisplayedP,CorrectnessP,CondFile,Instructions,LettersDisplayed,Correctness,practicetrials.thisRepN,practicetrials.thisTrialN,practicetrials.thisN,practicetrials.thisIndex,InnerLoopPractice.thisRepN,InnerLoopPractice.thisTrialN,InnerLoopPractice.thisN,InnerLoopPractice.thisIndex,trials.thisRepN,trials.thisTrialN,trials.thisN,trials.thisIndex,InnerLoop.thisRepN,InnerLoop.thisTrialN,InnerLoop.thisN,InnerLoop.thisIndex,TaskVersionText.started,TaskVersionText.stopped,InstrKey1.keys,InstrKey1.rt,InstrKey1.started,InstrKey1.stopped,text.started,text.stopped,key_resp_4.keys,key_resp_4.rt,key_resp_4.started,key_resp_4.stopped,text_2.started,text_2.stopped,key_resp_3.keys,key_resp_3.rt,key_resp_3.started,key_resp_3.stopped,text_3.started,text_3.stopped,key_resp_2.keys,key_resp_2.rt,key_resp_2.started,key_resp_2.stopped,PractIn1.started,PractIn1.stopped,PractIn2.started,PractIn2.stopped,PractInstructionPass.keys,PractInstructionPass.rt,PractInstructionPass.started,PractInstructionPass.stopped,PractBlock1.started,PractBlock1.stopped,ISIjitterPractice,ISI_Pract_Fixation.started,ISI_Pract_Fixation.stopped,N_backP.started,N_backP.stopped,KeyPractice.keys,KeyPractice.corr,KeyPractice.started,KeyPractice.stopped,text_4.started,text_4.stopped,KeyPractice.rt,TransitionText.started,TransitionText.stopped,key_resp_6.keys,key_resp_6.rt,key_resp_6.started,key_resp_6.stopped,text_5.started,text_5.stopped,key_resp_5.keys,key_resp_5.rt,key_resp_5.started,key_resp_5.stopped,MainInt1.started,MainInt1.stopped,MainInt2.started,MainInt2.stopped,InstructionPass.keys,InstructionPass.rt,InstructionPass.started,InstructionPass.stopped,Blocks1.started,Blocks1.stopped,ISIjitter,N_backD.started,N_backD.stopped,key_resp.keys,key_resp.corr,key_resp.started,key_resp.stopped,key_resp.rt,participant,Study Name,Task Version (required to run),PRE/POST,date,expName,psychopyVersion,frameRate,
,,,,,,,,,,,,,,,,,,,,,,,,48.607941800000845,None,space,106.1628064000106,49.10315759998048,None,,,,,,,,,,,,,,,,,,,,,,,,,,,,,,,,,,,,,,,,,,,,,,,,,,,,,,,,,,,,,,,,,,,,,,,P037,fencog,1,Pre,2022_Apr_22_1102,N-Back (New Version 2021),2021.1.4,120.12935528181474,
,,,,,,,,,,,,,,,,,,,,,,,,,,,,,,155.30221840000013,None,space,9.236686299991561,155.79718969998066,None,,,,,,,,,,,,,,,,,,,,,,,,,,,,,,,,,,,,,,,,,,,,,,,,,,,,,,,,,,,,,,,,,P037,fencog,1,Pre,2022_Apr_22_1102,N-Back (New Version 2021),2021.1.4,120.12935528181474,
,,,,,,,,,,,,,,,,,,,,,,,,,,,,,,,,,,,,165.07082299998729,None,space,19.240957300004084,165.56117159998394,None,,,,,,,,,,,,,,,,,,,,,,,,,,,,,,,,,,,,,,,,,,,,,,,,,,,,,,,,,,,P037,fencog,1,Pre,2022_Apr_22_1102,N-Back (New Version 2021),2021.1.4,120.12935528181474,
,,,,,,,,,,,,,,,,,,,,,,,,,,,,,,,,,,,,,,,,,,184.83029379998334,None,space,24.823912899999414,185.32188380000298,None,,,,,,,,,,,,,,,,,,,,,,,,,,,,,,,,,,,,,,,,,,,,,,,,,,,,,P037,fencog,1,Pre,2022_Apr_22_1102,N-Back (New Version 2021),2021.1.4,120.12935528181474,
Conditions/Version_1Pr/zeroback(1)_v1.xlsx,Rule: Press 'space' when you see the letter 'x' or 'X'.,Z,None,,,,,0,0,0,0,0,0,0,0,,,,,,,,,,,,,,,,,,,,,,,,,,,,,,,,,211.48952869998175,None,214.47203949998948,None,space,2.729804000002332,214.47203949998948,None,211.48952869998175,None,1.565,217.23318369998015,None,218.81094669998856,None,None,1,218.81094669998856,None,220.8122999999905,None,,,,,,,,,,,,,,,,,,,,,,,,,,,,,,,,P037,fencog,1,Pre,2022_Apr_22_1102,N-Back (New Version 2021),2021.1.4,120.12935528181474,
Conditions/Version_1Pr/zeroback(1)_v1.xlsx,Rule: Press 'space' when you see the letter 'x' or 'X'.,r,None,,,,,0,0,0,0,0,1,1,1,,,,,,,,,,,,,,,,,,,,,,,,,,,,,,,,,,,,,,,,,,,1.54,222.31021999998484,None,223.85749189998023,None,None,1,223.85749189998023,None,225.85913040000014,None,,,,,,,,,,,,,,,,,,,,,,,,,,,,,,,,P037,fencog,1,Pre,2022_Apr_22_1102,N-Back (New Version 2021),2021.1.4,120.12935528181474,
Conditions/Version_1Pr/zeroback(1)_v1.xlsx,Rule: Press 'space' when you see the letter 'x' or 'X'.,X,space,,,,,0,0,0,0,0,2,2,2,,,,,,,,,,,,,,,,,,,,,,,,,,,,,,,,,,,,,,,,,,,1.415,227.3586536999792,None,228.77733939999598,None,space,1,228.77733939999598,None,229.10971879999852,None,0.32040160000906326,,,,,,,,,,,,,,,,,,,,,,,,,,,,,,,P037,fencog,1,Pre,2022_Apr_22_1102,N-Back (New Version 2021),2021.1.4,120.12935528181474,
Conditions/Version_1Pr/zeroback(1)_v1.xlsx,Rule: Press 'space' when you see the letter 'x' or 'X'.,p,None,,,,,0,0,0,0,0,3,3,3,,,,,,,,,,,,,,,,,,,,,,,,,,,,,,,,,,,,,,,,,,,1.265,230.6159895999881,None,231.88787690000026,None,None,1,231.88787690000026,None,233.88986939997994,None,,,,,,,,,,,,,,,,,,,,,,,,,,,,,,,,P037,fencog,1,Pre,2022_Apr_22_1102,N-Back (New Version 2021),2021.1.4,120.12935528181474,
Conditions/Version_1Pr/zeroback(1)_v1.xlsx,Rule: Press 'space' when you see the letter 'x' or 'X'.,w,None,,,,,0,0,0,0,0,4,4,4,,,,,,,,,,,,,,,,,,,,,,,,,,,,,,,,,,,,,,,,,,,1.465,235.3896384999971,None,236.85936469997978,None,None,1,236.85936469997978,None,238.86362489999738,None,,,,,,,,,,,,,,,,,,,,,,,,,,,,,,,,P037,fencog,1,Pre,2022_Apr_22_1102,N-Back (New Version 2021),2021.1.4,120.12935528181474,
Conditions/Version_1Pr/zeroback(1)_v1.xlsx,Rule: Press 'space' when you see the letter 'x' or 'X'.,e,None,,,,,0,0,0,0,0,5,5,5,,,,,,,,,,,,,,,,,,,,,,,,,,,,,,,,,,,,,,,,,,,1.34,240.3631735999952,None,241.7059001000016,None,None,1,241.7059001000016,None,243.71226299999398,None,,,,,,,,,,,,,,,,,,,,,,,,,,,,,,,,P037,fencog,1,Pre,2022_Apr_22_1102,N-Back (New Version 2021),2021.1.4,120.12935528181474,
Conditions/Version_1Pr/zeroback(1)_v1.xlsx,Rule: Press 'space' when you see the letter 'x' or 'X'.,X,space,,,,,0,0,0,0,0,6,6,6,,,,,,,,,,,,,,,,,,,,,,,,,,,,,,,,,,,,,,,,,,,1.24,245.21176529998775,None,246.4538951999857,None,space,1,246.4538951999857,None,246.8294527999824,None,0.3638273999968078,,,,,,,,,,,,,,,,,,,,,,,,,,,,,,,P037,fencog,1,Pre,2022_Apr_22_1102,N-Back (New Version 2021),2021.1.4,120.12935528181474,
Conditions/Version_1Pr/zeroback(1)_v1.xlsx,Rule: Press 'space' when you see the letter 'x' or 'X'.,x,space,,,,,0,0,0,0,0,7,7,7,,,,,,,,,,,,,,,,,,,,,,,,,,,,,,,,,,,,,,,,,,,1.89,248.335791599995,None,250.2294529999781,None,space,1,250.2294529999781,None,250.59546630000114,None,0.3565191999950912,,,,,,,,,,,,,,,,,,,,,,,,,,,,,,,P037,fencog,1,Pre,2022_Apr_22_1102,N-Back (New Version 2021),2021.1.4,120.12935528181474,
Conditions/Version_1Pr/zeroback(1)_v1.xlsx,Rule: Press 'space' when you see the letter 'x' or 'X'.,p,None,,,,,0,0,0,0,0,8,8,8,,,,,,,,,,,,,,,,,,,,,,,,,,,,,,,,,,,,,,,,,,,1.715,252.10329639998963,None,253.81727060000412,None,None,1,253.81727060000412,None,255.816823799978,None,,,,,,,,,,,,,,,,,,,,,,,,,,,,,,,,P037,fencog,1,Pre,2022_Apr_22_1102,N-Back (New Version 2021),2021.1.4,120.12935528181474,
Conditions/Version_1Pr/zeroback(1)_v1.xlsx,Rule: Press 'space' when you see the letter 'x' or 'X'.,r,None,,,,,0,0,0,0,0,9,9,9,,,,,,,,,,,,,,,,,,,,,,,,,,,,,,,,,,,,,,,,,,,1.515,257.32016829997883,None,258.84195199998794,None,None,1,258.84195199998794,None,260.8459576999885,None,,,,,,,,,,,,,,,,,,,,,,,,,,,,,,,,P037,fencog,1,Pre,2022_Apr_22_1102,N-Back (New Version 2021),2021.1.4,120.12935528181474,
Conditions/Version_1Pr/zeroback(1)_v1.xlsx,Rule: Press 'space' when you see the letter 'x' or 'X'.,,,,,,,0,0,0,0,,,,,,,,,,,,,,,,,,,,,,,,,,,,,,,,,,,,,,,,,,,,,,,,,,,,,,,,,,,,,,,,,,,,,,,,,,,,,,,,,,,,,,,,,P037,fencog,1,Pre,2022_Apr_22_1102,N-Back (New Version 2021),2021.1.4,120.12935528181474,
Conditions/Version_1Pr/oneback(1)_v1.xlsx,New rule: Press 'space' when you see 1-back (i.e. the same letter as the one that appeared 1 letter ago.),a,None,,,,,0,1,1,1,0,0,0,0,,,,,,,,,,,,,,,,,,,,,,,,,,,,,,,,,262.37622419997933,None,265.366245799989,None,space,25.571426300011808,265.366245799989,None,262.37622419997933,None,1.24,290.97054179999395,None,292.2152037000051,None,None,1,292.2152037000051,None,294.2222703000007,None,,,,,,,,,,,,,,,,,,,,,,,,,,,,,,,,P037,fencog,1,Pre,2022_Apr_22_1102,N-Back (New Version 2021),2021.1.4,120.12935528181474,
Conditions/Version_1Pr/oneback(1)_v1.xlsx,New rule: Press 'space' when you see 1-back (i.e. the same letter as the one that appeared 1 letter ago.),x,None,,,,,0,1,1,1,0,1,1,1,,,,,,,,,,,,,,,,,,,,,,,,,,,,,,,,,,,,,,,,,,,1.515,295.72183910000604,None,297.2385910000012,None,None,1,297.2385910000012,None,299.2376460999949,None,,,,,,,,,,,,,,,,,,,,,,,,,,,,,,,,P037,fencog,1,Pre,2022_Apr_22_1102,N-Back (New Version 2021),2021.1.4,120.12935528181474,
Conditions/Version_1Pr/oneback(1)_v1.xlsx,New rule: Press 'space' when you see 1-back (i.e. the same letter as the one that appeared 1 letter ago.),g,None,,,,,0,1,1,1,0,2,2,2,,,,,,,,,,,,,,,,,,,,,,,,,,,,,,,,,,,,,,,,,,,1.04,300.7449214999797,None,301.7866259999864,None,None,1,301.7866259999864,None,303.78569200000493,None,,,,,,,,,,,,,,,,,,,,,,,,,,,,,,,,P037,fencog,1,Pre,2022_Apr_22_1102,N-Back (New Version 2021),2021.1.4,120.12935528181474,
Conditions/Version_1Pr/oneback(1)_v1.xlsx,New rule: Press 'space' when you see 1-back (i.e. the same letter as the one that appeared 1 letter ago.),G,space,,,,,0,1,1,1,0,3,3,3,,,,,,,,,,,,,,,,,,,,,,,,,,,,,,,,,,,,,,,,,,,1.84,305.2854084999999,None,307.128166999988,None,space,1,307.128166999988,None,307.58633969997754,None,0.4415693999908399,,,,,,,,,,,,,,,,,,,,,,,,,,,,,,,P037,fencog,1,Pre,2022_Apr_22_1102,N-Back (New Version 2021),2021.1.4,120.12935528181474,
Conditions/Version_1Pr/oneback(1)_v1.xlsx,New rule: Press 'space' when you see 1-back (i.e. the same letter as the one that appeared 1 letter ago.),u,None,,,,,0,1,1,1,0,4,4,4,,,,,,,,,,,,,,,,,,,,,,,,,,,,,,,,,,,,,,,,,,,1.09,309.09427919998416,None,310.18506160000106,None,None,1,310.18506160000106,None,312.1919670999923,None,,,,,,,,,,,,,,,,,,,,,,,,,,,,,,,,P037,fencog,1,Pre,2022_Apr_22_1102,N-Back (New Version 2021),2021.1.4,120.12935528181474,
Conditions/Version_1Pr/oneback(1)_v1.xlsx,New rule: Press 'space' when you see 1-back (i.e. the same letter as the one that appeared 1 letter ago.),y,None,,,,,0,1,1,1,0,5,5,5,,,,,,,,,,,,,,,,,,,,,,,,,,,,,,,,,,,,,,,,,,,1.89,313.6915141000063,None,315.58837250000215,None,None,1,315.58837250000215,None,317.58876389998477,None,,,,,,,,,,,,,,,,,,,,,,,,,,,,,,,,P037,fencog,1,Pre,2022_Apr_22_1102,N-Back (New Version 2021),2021.1.4,120.12935528181474,
Conditions/Version_1Pr/oneback(1)_v1.xlsx,New rule: Press 'space' when you see 1-back (i.e. the same letter as the one that appeared 1 letter ago.),y,space,,,,,0,1,1,1,0,6,6,6,,,,,,,,,,,,,,,,,,,,,,,,,,,,,,,,,,,,,,,,,,,1.615,319.0899339999887,None,320.70705490000546,None,space,1,320.70705490000546,None,322.2154254000052,None,1.4946485999971628,,,,,,,,,,,,,,,,,,,,,,,,,,,,,,,P037,fencog,1,Pre,2022_Apr_22_1102,N-Back (New Version 2021),2021.1.4,120.12935528181474,
Conditions/Version_1Pr/oneback(1)_v1.xlsx,New rule: Press 'space' when you see 1-back (i.e. the same letter as the one that appeared 1 letter ago.),k,None,,,,,0,1,1,1,0,7,7,7,,,,,,,,,,,,,,,,,,,,,,,,,,,,,,,,,,,,,,,,,,,1.74,323.72178259998327,None,325.46481519998633,None,None,1,325.46481519998633,None,327.4734678999812,None,,,,,,,,,,,,,,,,,,,,,,,,,,,,,,,,P037,fencog,1,Pre,2022_Apr_22_1102,N-Back (New Version 2021),2021.1.4,120.12935528181474,
Conditions/Version_1Pr/oneback(1)_v1.xlsx,New rule: Press 'space' when you see 1-back (i.e. the same letter as the one that appeared 1 letter ago.),c,None,,,,,0,1,1,1,0,8,8,8,,,,,,,,,,,,,,,,,,,,,,,,,,,,,,,,,,,,,,,,,,,2.015,328.970324599999,None,330.98979219998,None,None,1,330.98979219998,None,332.99419689999195,None,,,,,,,,,,,,,,,,,,,,,,,,,,,,,,,,P037,fencog,1,Pre,2022_Apr_22_1102,N-Back (New Version 2021),2021.1.4,120.12935528181474,
Conditions/Version_1Pr/oneback(1)_v1.xlsx,New rule: Press 'space' when you see 1-back (i.e. the same letter as the one that appeared 1 letter ago.),r,None,,,,,0,1,1,1,0,9,9,9,,,,,,,,,,,,,,,,,,,,,,,,,,,,,,,,,,,,,,,,,,,1.465,334.4937893000024,None,335.959707699978,None,None,1,335.959707699978,None,337.9593713999784,None,,,,,,,,,,,,,,,,,,,,,,,,,,,,,,,,P037,fencog,1,Pre,2022_Apr_22_1102,N-Back (New Version 2021),2021.1.4,120.12935528181474,
Conditions/Version_1Pr/oneback(1)_v1.xlsx,New rule: Press 'space' when you see 1-back (i.e. the same letter as the one that appeared 1 letter ago.),,,,,,,0,1,1,1,,,,,,,,,,,,,,,,,,,,,,,,,,,,,,,,,,,,,,,,,,,,,,,,,,,,,,,,,,,,,,,,,,,,,,,,,,,,,,,,,,,,,,,,,P037,fencog,1,Pre,2022_Apr_22_1102,N-Back (New Version 2021),2021.1.4,120.12935528181474,
Conditions/Version_1Pr/twoback(1)_v1.xlsx,New rule: Press 'space' when you see 2-back (i.e. the same letter as the one that appeared 2 letters ago.),E,None,,,,,0,2,2,2,0,0,0,0,,,,,,,,,,,,,,,,,,,,,,,,,,,,,,,,,339.49277029998484,None,342.46799229999306,None,space,15.949921399995219,342.46799229999306,None,339.49277029998484,None,1.665,358.45220229998813,None,360.12750609999057,None,None,1,360.12750609999057,None,362.12678709998727,None,,,,,,,,,,,,,,,,,,,,,,,,,,,,,,,,P037,fencog,1,Pre,2022_Apr_22_1102,N-Back (New Version 2021),2021.1.4,120.12935528181474,
Conditions/Version_1Pr/twoback(1)_v1.xlsx,New rule: Press 'space' when you see 2-back (i.e. the same letter as the one that appeared 2 letters ago.),p,None,,,,,0,2,2,2,0,1,1,1,,,,,,,,,,,,,,,,,,,,,,,,,,,,,,,,,,,,,,,,,,,1.09,363.6265201999922,None,364.7187263999949,None,None,1,364.7187263999949,None,366.7258574999869,None,,,,,,,,,,,,,,,,,,,,,,,,,,,,,,,,P037,fencog,1,Pre,2022_Apr_22_1102,N-Back (New Version 2021),2021.1.4,120.12935528181474,
Conditions/Version_1Pr/twoback(1)_v1.xlsx,New rule: Press 'space' when you see 2-back (i.e. the same letter as the one that appeared 2 letters ago.),e,space,,,,,0,2,2,2,0,2,2,2,,,,,,,,,,,,,,,,,,,,,,,,,,,,,,,,,,,,,,,,,,,1.715,368.2254622000037,None,369.9423947999894,None,space,1,369.9423947999894,None,370.46798019998823,None,0.5154508000123315,,,,,,,,,,,,,,,,,,,,,,,,,,,,,,,P037,fencog,1,Pre,2022_Apr_22_1102,N-Back (New Version 2021),2021.1.4,120.12935528181474,
Conditions/Version_1Pr/twoback(1)_v1.xlsx,New rule: Press 'space' when you see 2-back (i.e. the same letter as the one that appeared 2 letters ago.),s,None,,,,,0,2,2,2,0,3,3,3,,,,,,,,,,,,,,,,,,,,,,,,,,,,,,,,,,,,,,,,,,,1.515,371.9740910999826,None,373.49201220000396,None,None,1,373.49201220000396,None,375.49839599998086,None,,,,,,,,,,,,,,,,,,,,,,,,,,,,,,,,P037,fencog,1,Pre,2022_Apr_22_1102,N-Back (New Version 2021),2021.1.4,120.12935528181474,
Conditions/Version_1Pr/twoback(1)_v1.xlsx,New rule: Press 'space' when you see 2-back (i.e. the same letter as the one that appeared 2 letters ago.),S,None,,,,,0,2,2,2,0,4,4,4,,,,,,,,,,,,,,,,,,,,,,,,,,,,,,,,,,,,,,,,,,,1.565,376.99783459998434,None,378.5678121999954,None,None,1,378.5678121999954,None,380.57534869998926,None,,,,,,,,,,,,,,,,,,,,,,,,,,,,,,,,P037,fencog,1,Pre,2022_Apr_22_1102,N-Back (New Version 2021),2021.1.4,120.12935528181474,
Conditions/Version_1Pr/twoback(1)_v1.xlsx,New rule: Press 'space' when you see 2-back (i.e. the same letter as the one that appeared 2 letters ago.),s,space,,,,,0,2,2,2,0,5,5,5,,,,,,,,,,,,,,,,,,,,,,,,,,,,,,,,,,,,,,,,,,,1.74,382.07134239998413,None,383.8130201000022,None,space,1,383.8130201000022,None,384.4803114999959,None,0.6527637999970466,,,,,,,,,,,,,,,,,,,,,,,,,,,,,,,P037,fencog,1,Pre,2022_Apr_22_1102,N-Back (New Version 2021),2021.1.4,120.12935528181474,
Conditions/Version_1Pr/twoback(1)_v1.xlsx,New rule: Press 'space' when you see 2-back (i.e. the same letter as the one that appeared 2 letters ago.),P,None,,,,,0,2,2,2,0,6,6,6,,,,,,,,,,,,,,,,,,,,,,,,,,,,,,,,,,,,,,,,,,,1.915,385.986613999994,None,387.9046490000037,None,None,1,387.9046490000037,None,389.91077839999343,None,,,,,,,,,,,,,,,,,,,,,,,,,,,,,,,,P037,fencog,1,Pre,2022_Apr_22_1102,N-Back (New Version 2021),2021.1.4,120.12935528181474,
Conditions/Version_1Pr/twoback(1)_v1.xlsx,New rule: Press 'space' when you see 2-back (i.e. the same letter as the one that appeared 2 letters ago.),C,None,,,,,0,2,2,2,0,7,7,7,,,,,,,,,,,,,,,,,,,,,,,,,,,,,,,,,,,,,,,,,,,1.64,391.4102350999892,None,393.0533729000017,None,None,1,393.0533729000017,None,395.0591712000023,None,,,,,,,,,,,,,,,,,,,,,,,,,,,,,,,,P037,fencog,1,Pre,2022_Apr_22_1102,N-Back (New Version 2021),2021.1.4,120.12935528181474,
Conditions/Version_1Pr/twoback(1)_v1.xlsx,New rule: Press 'space' when you see 2-back (i.e. the same letter as the one that appeared 2 letters ago.),x,None,,,,,0,2,2,2,0,8,8,8,,,,,,,,,,,,,,,,,,,,,,,,,,,,,,,,,,,,,,,,,,,1.59,396.5587047000008,None,398.1509214999969,None,None,1,398.1509214999969,None,400.15770749998046,None,,,,,,,,,,,,,,,,,,,,,,,,,,,,,,,,P037,fencog,1,Pre,2022_Apr_22_1102,N-Back (New Version 2021),2021.1.4,120.12935528181474,
Conditions/Version_1Pr/twoback(1)_v1.xlsx,New rule: Press 'space' when you see 2-back (i.e. the same letter as the one that appeared 2 letters ago.),Z,None,,,,,0,2,2,2,0,9,9,9,,,,,,,,,,,,,,,,,,,,,,,,,,,,,,,,,,,,,,,,,,,1.765,401.6572848999931,None,403.42433300000266,None,None,1,403.42433300000266,None,405.43108680000296,None,,,,,,,,,,,,,,,,,,,,,,,,,,,,,,,,P037,fencog,1,Pre,2022_Apr_22_1102,N-Back (New Version 2021),2021.1.4,120.12935528181474,
Conditions/Version_1Pr/twoback(1)_v1.xlsx,New rule: Press 'space' when you see 2-back (i.e. the same letter as the one that appeared 2 letters ago.),,,,,,,0,2,2,2,,,,,,,,,,,,,,,,,,,,,,,,,,,,,,,,,,,,,,,,,,,,,,,,,,,,,,,,,,,,,,,,,,,,,,,,,,,,,,,,,,,,,,,,,P037,fencog,1,Pre,2022_Apr_22_1102,N-Back (New Version 2021),2021.1.4,120.12935528181474,
Conditions/Version_1Pr/threeback(1)_v1.xlsx,New rule: Press 'space' when you see 3-back (i.e. the same letter as the one that appeared 3 letters ago.),r,None,,,,,0,3,3,3,0,0,0,0,,,,,,,,,,,,,,,,,,,,,,,,,,,,,,,,,406.95479859999614,None,409.9402202999918,None,space,0.5415269999939483,409.9402202999918,None,406.95479859999614,None,1.465,410.5143121999863,None,411.98009040000034,None,None,1,411.98009040000034,None,413.9869275999954,None,,,,,,,,,,,,,,,,,,,,,,,,,,,,,,,,P037,fencog,1,Pre,2022_Apr_22_1102,N-Back (New Version 2021),2021.1.4,120.12935528181474,
Conditions/Version_1Pr/threeback(1)_v1.xlsx,New rule: Press 'space' when you see 3-back (i.e. the same letter as the one that appeared 3 letters ago.),a,None,,,,,0,3,3,3,0,1,1,1,,,,,,,,,,,,,,,,,,,,,,,,,,,,,,,,,,,,,,,,,,,1.74,415.4865456999978,None,417.2298770000052,None,None,1,417.2298770000052,None,419.23540720000165,None,,,,,,,,,,,,,,,,,,,,,,,,,,,,,,,,P037,fencog,1,Pre,2022_Apr_22_1102,N-Back (New Version 2021),2021.1.4,120.12935528181474,
Conditions/Version_1Pr/threeback(1)_v1.xlsx,New rule: Press 'space' when you see 3-back (i.e. the same letter as the one that appeared 3 letters ago.),t,None,,,,,0,3,3,3,0,2,2,2,,,,,,,,,,,,,,,,,,,,,,,,,,,,,,,,,,,,,,,,,,,1.215,420.7349074999802,None,421.95314609998604,None,None,1,421.95314609998604,None,423.9590079000045,None,,,,,,,,,,,,,,,,,,,,,,,,,,,,,,,,P037,fencog,1,Pre,2022_Apr_22_1102,N-Back (New Version 2021),2021.1.4,120.12935528181474,
Conditions/Version_1Pr/threeback(1)_v1.xlsx,New rule: Press 'space' when you see 3-back (i.e. the same letter as the one that appeared 3 letters ago.),r,space,,,,,0,3,3,3,0,3,3,3,,,,,,,,,,,,,,,,,,,,,,,,,,,,,,,,,,,,,,,,,,,1.565,425.4585520999972,None,427.0256291999831,None,space,1,427.0256291999831,None,427.6344559999998,None,0.5921308999822941,,,,,,,,,,,,,,,,,,,,,,,,,,,,,,,P037,fencog,1,Pre,2022_Apr_22_1102,N-Back (New Version 2021),2021.1.4,120.12935528181474,
Conditions/Version_1Pr/threeback(1)_v1.xlsx,New rule: Press 'space' when you see 3-back (i.e. the same letter as the one that appeared 3 letters ago.),a,None,,,,,0,3,3,3,0,4,4,4,,,,,,,,,,,,,,,,,,,,,,,,,,,,,,,,,,,,,,,,,,,1.715,429.1407692999928,None,430.8582366000046,None,space,0,430.8582366000046,None,431.39539009999135,None,0.5195138999843039,,,,,,,,,,,,,,,,,,,,,,,,,,,,,,,P037,fencog,1,Pre,2022_Apr_22_1102,N-Back (New Version 2021),2021.1.4,120.12935528181474,
Conditions/Version_1Pr/threeback(1)_v1.xlsx,New rule: Press 'space' when you see 3-back (i.e. the same letter as the one that appeared 3 letters ago.),Y,None,,,,,0,3,3,3,0,5,5,5,,,,,,,,,,,,,,,,,,,,,,,,,,,,,,,,,,,,,,,,,,,1.815,432.8977774999803,None,434.7170596999931,None,None,1,434.7170596999931,None,436.72618669999065,None,,,,,,,,,,,,,,,,,,,,,,,,,,,,,,,,P037,fencog,1,Pre,2022_Apr_22_1102,N-Back (New Version 2021),2021.1.4,120.12935528181474,
Conditions/Version_1Pr/threeback(1)_v1.xlsx,New rule: Press 'space' when you see 3-back (i.e. the same letter as the one that appeared 3 letters ago.),q,None,,,,,0,3,3,3,0,6,6,6,,,,,,,,,,,,,,,,,,,,,,,,,,,,,,,,,,,,,,,,,,,1.54,438.2214544999879,None,439.76523989997804,None,None,1,439.76523989997804,None,441.7704507999879,None,,,,,,,,,,,,,,,,,,,,,,,,,,,,,,,,P037,fencog,1,Pre,2022_Apr_22_1102,N-Back (New Version 2021),2021.1.4,120.12935528181474,
Conditions/Version_1Pr/threeback(1)_v1.xlsx,New rule: Press 'space' when you see 3-back (i.e. the same letter as the one that appeared 3 letters ago.),A,space,,,,,0,3,3,3,0,7,7,7,,,,,,,,,,,,,,,,,,,,,,,,,,,,,,,,,,,,,,,,,,,1.515,443.2697748999926,None,444.78810969999176,None,None,0,444.78810969999176,None,446.7954555999895,None,,,,,,,,,,,,,,,,,,,,,,,,,,,,,,,,P037,fencog,1,Pre,2022_Apr_22_1102,N-Back (New Version 2021),2021.1.4,120.12935528181474,
Conditions/Version_1Pr/threeback(1)_v1.xlsx,New rule: Press 'space' when you see 3-back (i.e. the same letter as the one that appeared 3 letters ago.),y,None,,,,,0,3,3,3,0,8,8,8,,,,,,,,,,,,,,,,,,,,,,,,,,,,,,,,,,,,,,,,,,,1.64,448.29330679998384,None,449.93541609999374,None,space,0,449.93541609999374,None,451.92025579998153,None,1.970231999992393,,,,,,,,,,,,,,,,,,,,,,,,,,,,,,,P037,fencog,1,Pre,2022_Apr_22_1102,N-Back (New Version 2021),2021.1.4,120.12935528181474,
Conditions/Version_1Pr/threeback(1)_v1.xlsx,New rule: Press 'space' when you see 3-back (i.e. the same letter as the one that appeared 3 letters ago.),r,None,,,,,0,3,3,3,0,9,9,9,,,,,,,,,,,,,,,,,,,,,,,,,,,,,,,,,,,,,,,,,,,1.29,453.4252606999944,None,454.7164504999819,None,None,1,454.7164504999819,None,456.7179952999868,None,,,,,,,,,,,,,,,,,,,,,,,,,,,,,,,,P037,fencog,1,Pre,2022_Apr_22_1102,N-Back (New Version 2021),2021.1.4,120.12935528181474,
Conditions/Version_1Pr/threeback(1)_v1.xlsx,New rule: Press 'space' when you see 3-back (i.e. the same letter as the one that appeared 3 letters ago.),,,,,,,0,3,3,3,,,,,,,,,,,,,,,,,,,,,,,,,,,,,,,,,,,,,,,,,,,,,,,,,,,,,,,,,,,,,,,,,,,,,,,,,,,,,,,,,,,,,,,,,P037,fencog,1,Pre,2022_Apr_22_1102,N-Back (New Version 2021),2021.1.4,120.12935528181474,
,,,,,,,,,,,,,,,,,,,,,,,,,,,,,,,,,,,,,,,,,,,,,,,,,,,,,,,,,,,,,,,,,,,,,,458.2312527000031,None,space,10.40562800000771,458.7239847999881,None,,,,,,,,,,,,,,,,,,,,,,,,,P037,fencog,1,Pre,2022_Apr_22_1102,N-Back (New Version 2021),2021.1.4,120.12935528181474,
,,,,,,,,,,,,,,,,,,,,,,,,,,,,,,,,,,,,,,,,,,,,,,,,,,,,,,,,,,,,,,,,,,,,,,,,,,,,469.15256950000185,None,space,3.307550199999241,469.6460376000032,None,,,,,,,,,,,,,,,,,,,P037,fencog,1,Pre,2022_Apr_22_1102,N-Back (New Version 2021),2021.1.4,120.12935528181474,
,,,,Conditions/Version_1/zeroback(1)_v1.xlsx,Rule: Press 'space' when you see the letter 'x' or 'X'.,b,None,,,,,,,,,0,0,0,0,0,0,0,0,,,,,,,,,,,,,,,,,,,,,,,,,,,,,,,,,,,,,,,,,,,,,,,,,,,,,,,,,,,473.0744383999845,None,476.0629736999981,None,space,1.1149039999872912,476.0629736999981,None,473.0744383999845,None,1.5432,478.7535889999999,None,None,1,478.7535889999999,None,,P037,fencog,1,Pre,2022_Apr_22_1102,N-Back (New Version 2021),2021.1.4,120.12935528181474,
,,,,Conditions/Version_1/zeroback(1)_v1.xlsx,Rule: Press 'space' when you see the letter 'x' or 'X'.,T,None,,,,,,,,,0,0,0,0,0,1,1,1,,,,,,,,,,,,,,,,,,,,,,,,,,,,,,,,,,,,,,,,,,,,,,,,,,,,,,,,,,,,,,,,,,,,,1.475,482.2340518999845,None,None,1,482.2340518999845,None,,P037,fencog,1,Pre,2022_Apr_22_1102,N-Back (New Version 2021),2021.1.4,120.12935528181474,
,,,,Conditions/Version_1/zeroback(1)_v1.xlsx,Rule: Press 'space' when you see the letter 'x' or 'X'.,L,None,,,,,,,,,0,0,0,0,0,2,2,2,,,,,,,,,,,,,,,,,,,,,,,,,,,,,,,,,,,,,,,,,,,,,,,,,,,,,,,,,,,,,,,,,,,,,1.1278,485.3754504999961,None,None,1,485.3754504999961,None,,P037,fencog,1,Pre,2022_Apr_22_1102,N-Back (New Version 2021),2021.1.4,120.12935528181474,
,,,,Conditions/Version_1/zeroback(1)_v1.xlsx,Rule: Press 'space' when you see the letter 'x' or 'X'.,x,space,,,,,,,,,0,0,0,0,0,3,3,3,,,,,,,,,,,,,,,,,,,,,,,,,,,,,,,,,,,,,,,,,,,,,,,,,,,,,,,,,,,,,,,,,,,,,1.5742,488.9562283999985,None,space,1,488.9562283999985,None,1.6455521000025328,P037,fencog,1,Pre,2022_Apr_22_1102,N-Back (New Version 2021),2021.1.4,120.12935528181474,
,,,,Conditions/Version_1/zeroback(1)_v1.xlsx,Rule: Press 'space' when you see the letter 'x' or 'X'.,o,None,,,,,,,,,0,0,0,0,0,4,4,4,,,,,,,,,,,,,,,,,,,,,,,,,,,,,,,,,,,,,,,,,,,,,,,,,,,,,,,,,,,,,,,,,,,,,1.1402,492.1055190000043,None,None,1,492.1055190000043,None,,P037,fencog,1,Pre,2022_Apr_22_1102,N-Back (New Version 2021),2021.1.4,120.12935528181474,
,,,,Conditions/Version_1/zeroback(1)_v1.xlsx,Rule: Press 'space' when you see the letter 'x' or 'X'.,P,None,,,,,,,,,0,0,0,0,0,5,5,5,,,,,,,,,,,,,,,,,,,,,,,,,,,,,,,,,,,,,,,,,,,,,,,,,,,,,,,,,,,,,,,,,,,,,1.134,495.23946199999773,None,None,1,495.23946199999773,None,,P037,fencog,1,Pre,2022_Apr_22_1102,N-Back (New Version 2021),2021.1.4,120.12935528181474,
,,,,Conditions/Version_1/zeroback(1)_v1.xlsx,Rule: Press 'space' when you see the letter 'x' or 'X'.,X,space,,,,,,,,,0,0,0,0,0,6,6,6,,,,,,,,,,,,,,,,,,,,,,,,,,,,,,,,,,,,,,,,,,,,,,,,,,,,,,,,,,,,,,,,,,,,,1.1774,498.432785699988,None,space,1,498.432785699988,None,0.4809739999764133,P037,fencog,1,Pre,2022_Apr_22_1102,N-Back (New Version 2021),2021.1.4,120.12935528181474,
,,,,Conditions/Version_1/zeroback(1)_v1.xlsx,Rule: Press 'space' when you see the letter 'x' or 'X'.,n,None,,,,,,,,,0,0,0,0,0,7,7,7,,,,,,,,,,,,,,,,,,,,,,,,,,,,,,,,,,,,,,,,,,,,,,,,,,,,,,,,,,,,,,,,,,,,,1.6052,502.04591859999346,None,None,1,502.04591859999346,None,,P037,fencog,1,Pre,2022_Apr_22_1102,N-Back (New Version 2021),2021.1.4,120.12935528181474,
,,,,Conditions/Version_1/zeroback(1)_v1.xlsx,Rule: Press 'space' when you see the letter 'x' or 'X'.,M,None,,,,,,,,,0,0,0,0,0,8,8,8,,,,,,,,,,,,,,,,,,,,,,,,,,,,,,,,,,,,,,,,,,,,,,,,,,,,,,,,,,,,,,,,,,,,,1.878,505.93645199999446,None,None,1,505.93645199999446,None,,P037,fencog,1,Pre,2022_Apr_22_1102,N-Back (New Version 2021),2021.1.4,120.12935528181474,
,,,,Conditions/Version_1/zeroback(1)_v1.xlsx,Rule: Press 'space' when you see the letter 'x' or 'X'.,a,None,,,,,,,,,0,0,0,0,0,9,9,9,,,,,,,,,,,,,,,,,,,,,,,,,,,,,,,,,,,,,,,,,,,,,,,,,,,,,,,,,,,,,,,,,,,,,1.847,509.7924146000005,None,None,1,509.7924146000005,None,,P037,fencog,1,Pre,2022_Apr_22_1102,N-Back (New Version 2021),2021.1.4,120.12935528181474,
,,,,Conditions/Version_1/zeroback(1)_v1.xlsx,Rule: Press 'space' when you see the letter 'x' or 'X'.,,,,,,,,,,,0,0,0,0,,,,,,,,,,,,,,,,,,,,,,,,,,,,,,,,,,,,,,,,,,,,,,,,,,,,,,,,,,,,,,,,,,,,,,,,,,,,,,,,,P037,fencog,1,Pre,2022_Apr_22_1102,N-Back (New Version 2021),2021.1.4,120.12935528181474,
,,,,Conditions/Version_1/oneback(1)_v1.xlsx,New rule: Press 'space' when you see 1-back (i.e. the same letter as the one that appeared 1 letter ago.),b,None,,,,,,,,,0,1,1,1,0,0,0,0,,,,,,,,,,,,,,,,,,,,,,,,,,,,,,,,,,,,,,,,,,,,,,,,,,,,,,,,,,,511.8209458999918,None,514.8237883999827,None,space,33.16196709999349,514.8237883999827,None,511.8209458999918,None,1.506,549.5310715999804,None,None,1,549.5310715999804,None,,P037,fencog,1,Pre,2022_Apr_22_1102,N-Back (New Version 2021),2021.1.4,120.12935528181474,
,,,,Conditions/Version_1/oneback(1)_v1.xlsx,New rule: Press 'space' when you see 1-back (i.e. the same letter as the one that appeared 1 letter ago.),p,None,,,,,,,,,0,1,1,1,0,1,1,1,,,,,,,,,,,,,,,,,,,,,,,,,,,,,,,,,,,,,,,,,,,,,,,,,,,,,,,,,,,,,,,,,,,,,1.1526,552.6958345999883,None,None,1,552.6958345999883,None,,P037,fencog,1,Pre,2022_Apr_22_1102,N-Back (New Version 2021),2021.1.4,120.12935528181474,
,,,,Conditions/Version_1/oneback(1)_v1.xlsx,New rule: Press 'space' when you see 1-back (i.e. the same letter as the one that appeared 1 letter ago.),M,None,,,,,,,,,0,1,1,1,0,2,2,2,,,,,,,,,,,,,,,,,,,,,,,,,,,,,,,,,,,,,,,,,,,,,,,,,,,,,,,,,,,,,,,,,,,,,1.103,555.8036504999909,None,None,1,555.8036504999909,None,,P037,fencog,1,Pre,2022_Apr_22_1102,N-Back (New Version 2021),2021.1.4,120.12935528181474,
,,,,Conditions/Version_1/oneback(1)_v1.xlsx,New rule: Press 'space' when you see 1-back (i.e. the same letter as the one that appeared 1 letter ago.),M,space,,,,,,,,,0,1,1,1,0,3,3,3,,,,,,,,,,,,,,,,,,,,,,,,,,,,,,,,,,,,,,,,,,,,,,,,,,,,,,,,,,,,,,,,,,,,,1.6238,559.4357680999965,None,space,1,559.4357680999965,None,0.6059089000045788,P037,fencog,1,Pre,2022_Apr_22_1102,N-Back (New Version 2021),2021.1.4,120.12935528181474,
,,,,Conditions/Version_1/oneback(1)_v1.xlsx,New rule: Press 'space' when you see 1-back (i.e. the same letter as the one that appeared 1 letter ago.),n,None,,,,,,,,,0,1,1,1,0,4,4,4,,,,,,,,,,,,,,,,,,,,,,,,,,,,,,,,,,,,,,,,,,,,,,,,,,,,,,,,,,,,,,,,,,,,,1.7974,563.2405761999835,None,None,1,563.2405761999835,None,,P037,fencog,1,Pre,2022_Apr_22_1102,N-Back (New Version 2021),2021.1.4,120.12935528181474,
,,,,Conditions/Version_1/oneback(1)_v1.xlsx,New rule: Press 'space' when you see 1-back (i.e. the same letter as the one that appeared 1 letter ago.),g,None,,,,,,,,,0,1,1,1,0,5,5,5,,,,,,,,,,,,,,,,,,,,,,,,,,,,,,,,,,,,,,,,,,,,,,,,,,,,,,,,,,,,,,,,,,,,,1.1898,566.4355976999796,None,None,1,566.4355976999796,None,,P037,fencog,1,Pre,2022_Apr_22_1102,N-Back (New Version 2021),2021.1.4,120.12935528181474,
,,,,Conditions/Version_1/oneback(1)_v1.xlsx,New rule: Press 'space' when you see 1-back (i.e. the same letter as the one that appeared 1 letter ago.),P,None,,,,,,,,,0,1,1,1,0,6,6,6,,,,,,,,,,,,,,,,,,,,,,,,,,,,,,,,,,,,,,,,,,,,,,,,,,,,,,,,,,,,,,,,,,,,,1.5866,570.0323066999845,None,None,1,570.0323066999845,None,,P037,fencog,1,Pre,2022_Apr_22_1102,N-Back (New Version 2021),2021.1.4,120.12935528181474,
,,,,Conditions/Version_1/oneback(1)_v1.xlsx,New rule: Press 'space' when you see 1-back (i.e. the same letter as the one that appeared 1 letter ago.),o,None,,,,,,,,,0,1,1,1,0,7,7,7,,,,,,,,,,,,,,,,,,,,,,,,,,,,,,,,,,,,,,,,,,,,,,,,,,,,,,,,,,,,,,,,,,,,,1.537,573.5731025999994,None,None,1,573.5731025999994,None,,P037,fencog,1,Pre,2022_Apr_22_1102,N-Back (New Version 2021),2021.1.4,120.12935528181474,
,,,,Conditions/Version_1/oneback(1)_v1.xlsx,New rule: Press 'space' when you see 1-back (i.e. the same letter as the one that appeared 1 letter ago.),f,None,,,,,,,,,0,1,1,1,0,8,8,8,,,,,,,,,,,,,,,,,,,,,,,,,,,,,,,,,,,,,,,,,,,,,,,,,,,,,,,,,,,,,,,,,,,,,1.196,576.7738215999852,None,None,1,576.7738215999852,None,,P037,fencog,1,Pre,2022_Apr_22_1102,N-Back (New Version 2021),2021.1.4,120.12935528181474,
,,,,Conditions/Version_1/oneback(1)_v1.xlsx,New rule: Press 'space' when you see 1-back (i.e. the same letter as the one that appeared 1 letter ago.),F,space,,,,,,,,,0,1,1,1,0,9,9,9,,,,,,,,,,,,,,,,,,,,,,,,,,,,,,,,,,,,,,,,,,,,,,,,,,,,,,,,,,,,,,,,,,,,,1.7664,580.5480373000028,None,space,1,580.5480373000028,None,0.46992069997941144,P037,fencog,1,Pre,2022_Apr_22_1102,N-Back (New Version 2021),2021.1.4,120.12935528181474,
,,,,Conditions/Version_1/oneback(1)_v1.xlsx,New rule: Press 'space' when you see 1-back (i.e. the same letter as the one that appeared 1 letter ago.),,,,,,,,,,,0,1,1,1,,,,,,,,,,,,,,,,,,,,,,,,,,,,,,,,,,,,,,,,,,,,,,,,,,,,,,,,,,,,,,,,,,,,,,,,,,,,,,,,,P037,fencog,1,Pre,2022_Apr_22_1102,N-Back (New Version 2021),2021.1.4,120.12935528181474,
,,,,Conditions/Version_1/twoback(1)_v1.xlsx,New rule: Press 'space' when you see 2-back (i.e. the same letter as the one that appeared 2 letters ago.),b,None,,,,,,,,,0,2,2,2,0,0,0,0,,,,,,,,,,,,,,,,,,,,,,,,,,,,,,,,,,,,,,,,,,,,,,,,,,,,,,,,,,,582.5742805000045,None,585.5635608999874,None,space,10.206168600008823,585.5635608999874,None,582.5742805000045,None,1.8222,597.6252415000054,None,None,1,597.6252415000054,None,,P037,fencog,1,Pre,2022_Apr_22_1102,N-Back (New Version 2021),2021.1.4,120.12935528181474,
,,,,Conditions/Version_1/twoback(1)_v1.xlsx,New rule: Press 'space' when you see 2-back (i.e. the same letter as the one that appeared 2 letters ago.),h,None,,,,,,,,,0,2,2,2,0,1,1,1,,,,,,,,,,,,,,,,,,,,,,,,,,,,,,,,,,,,,,,,,,,,,,,,,,,,,,,,,,,,,,,,,,,,,1.94,601.5748412999965,None,None,1,601.5748412999965,None,,P037,fencog,1,Pre,2022_Apr_22_1102,N-Back (New Version 2021),2021.1.4,120.12935528181474,
,,,,Conditions/Version_1/twoback(1)_v1.xlsx,New rule: Press 'space' when you see 2-back (i.e. the same letter as the one that appeared 2 letters ago.),j,None,,,,,,,,,0,2,2,2,0,2,2,2,,,,,,,,,,,,,,,,,,,,,,,,,,,,,,,,,,,,,,,,,,,,,,,,,,,,,,,,,,,,,,,,,,,,,1.9152,605.4928568000032,None,None,1,605.4928568000032,None,,P037,fencog,1,Pre,2022_Apr_22_1102,N-Back (New Version 2021),2021.1.4,120.12935528181474,
,,,,Conditions/Version_1/twoback(1)_v1.xlsx,New rule: Press 'space' when you see 2-back (i.e. the same letter as the one that appeared 2 letters ago.),H,space,,,,,,,,,0,2,2,2,0,3,3,3,,,,,,,,,,,,,,,,,,,,,,,,,,,,,,,,,,,,,,,,,,,,,,,,,,,,,,,,,,,,,,,,,,,,,1.3696,608.876695599989,None,space,1,608.876695599989,None,0.4528299999947194,P037,fencog,1,Pre,2022_Apr_22_1102,N-Back (New Version 2021),2021.1.4,120.12935528181474,
,,,,Conditions/Version_1/twoback(1)_v1.xlsx,New rule: Press 'space' when you see 2-back (i.e. the same letter as the one that appeared 2 letters ago.),p,None,,,,,,,,,0,2,2,2,0,4,4,4,,,,,,,,,,,,,,,,,,,,,,,,,,,,,,,,,,,,,,,,,,,,,,,,,,,,,,,,,,,,,,,,,,,,,1.5866,612.4698948999867,None,None,1,612.4698948999867,None,,P037,fencog,1,Pre,2022_Apr_22_1102,N-Back (New Version 2021),2021.1.4,120.12935528181474,
,,,,Conditions/Version_1/twoback(1)_v1.xlsx,New rule: Press 'space' when you see 2-back (i.e. the same letter as the one that appeared 2 letters ago.),p,None,,,,,,,,,0,2,2,2,0,5,5,5,,,,,,,,,,,,,,,,,,,,,,,,,,,,,,,,,,,,,,,,,,,,,,,,,,,,,,,,,,,,,,,,,,,,,1.8966,616.3692698999948,None,None,1,616.3692698999948,None,,P037,fencog,1,Pre,2022_Apr_22_1102,N-Back (New Version 2021),2021.1.4,120.12935528181474,
,,,,Conditions/Version_1/twoback(1)_v1.xlsx,New rule: Press 'space' when you see 2-back (i.e. the same letter as the one that appeared 2 letters ago.),w,None,,,,,,,,,0,2,2,2,0,6,6,6,,,,,,,,,,,,,,,,,,,,,,,,,,,,,,,,,,,,,,,,,,,,,,,,,,,,,,,,,,,,,,,,,,,,,1.32,619.7026660999982,None,None,1,619.7026660999982,None,,P037,fencog,1,Pre,2022_Apr_22_1102,N-Back (New Version 2021),2021.1.4,120.12935528181474,
,,,,Conditions/Version_1/twoback(1)_v1.xlsx,New rule: Press 'space' when you see 2-back (i.e. the same letter as the one that appeared 2 letters ago.),R,None,,,,,,,,,0,2,2,2,0,7,7,7,,,,,,,,,,,,,,,,,,,,,,,,,,,,,,,,,,,,,,,,,,,,,,,,,,,,,,,,,,,,,,,,,,,,,1.6982,623.4140152999898,None,None,1,623.4140152999898,None,,P037,fencog,1,Pre,2022_Apr_22_1102,N-Back (New Version 2021),2021.1.4,120.12935528181474,
,,,,Conditions/Version_1/twoback(1)_v1.xlsx,New rule: Press 'space' when you see 2-back (i.e. the same letter as the one that appeared 2 letters ago.),a,None,,,,,,,,,0,2,2,2,0,8,8,8,,,,,,,,,,,,,,,,,,,,,,,,,,,,,,,,,,,,,,,,,,,,,,,,,,,,,,,,,,,,,,,,,,,,,1.1526,626.574821999995,None,None,1,626.574821999995,None,,P037,fencog,1,Pre,2022_Apr_22_1102,N-Back (New Version 2021),2021.1.4,120.12935528181474,
,,,,Conditions/Version_1/twoback(1)_v1.xlsx,New rule: Press 'space' when you see 2-back (i.e. the same letter as the one that appeared 2 letters ago.),r,space,,,,,,,,,0,2,2,2,0,9,9,9,,,,,,,,,,,,,,,,,,,,,,,,,,,,,,,,,,,,,,,,,,,,,,,,,,,,,,,,,,,,,,,,,,,,,1.6548,630.2397406999953,None,space,1,630.2397406999953,None,0.4579661000170745,P037,fencog,1,Pre,2022_Apr_22_1102,N-Back (New Version 2021),2021.1.4,120.12935528181474,
,,,,Conditions/Version_1/twoback(1)_v1.xlsx,New rule: Press 'space' when you see 2-back (i.e. the same letter as the one that appeared 2 letters ago.),,,,,,,,,,,0,2,2,2,,,,,,,,,,,,,,,,,,,,,,,,,,,,,,,,,,,,,,,,,,,,,,,,,,,,,,,,,,,,,,,,,,,,,,,,,,,,,,,,,P037,fencog,1,Pre,2022_Apr_22_1102,N-Back (New Version 2021),2021.1.4,120.12935528181474,
,,,,Conditions/Version_1/threeback(1)_v1.xlsx,New rule: Press 'space' when you see 3-back (i.e. the same letter as the one that appeared 3 letters ago.),r,None,,,,,,,,,0,3,3,3,0,0,0,0,,,,,,,,,,,,,,,,,,,,,,,,,,,,,,,,,,,,,,,,,,,,,,,,,,,,,,,,,,,632.2615454999905,None,635.2486091000028,None,space,6.9931880999938585,635.2486091000028,None,632.2615454999905,None,1.8966,644.1689729999925,None,None,1,644.1689729999925,None,,P037,fencog,1,Pre,2022_Apr_22_1102,N-Back (New Version 2021),2021.1.4,120.12935528181474,
,,,,Conditions/Version_1/threeback(1)_v1.xlsx,New rule: Press 'space' when you see 3-back (i.e. the same letter as the one that appeared 3 letters ago.),o,None,,,,,,,,,0,3,3,3,0,1,1,1,,,,,,,,,,,,,,,,,,,,,,,,,,,,,,,,,,,,,,,,,,,,,,,,,,,,,,,,,,,,,,,,,,,,,1.7416,647.9176513999992,None,None,1,647.9176513999992,None,,P037,fencog,1,Pre,2022_Apr_22_1102,N-Back (New Version 2021),2021.1.4,120.12935528181474,
,,,,Conditions/Version_1/threeback(1)_v1.xlsx,New rule: Press 'space' when you see 3-back (i.e. the same letter as the one that appeared 3 letters ago.),P,None,,,,,,,,,0,3,3,3,0,2,2,2,,,,,,,,,,,,,,,,,,,,,,,,,,,,,,,,,,,,,,,,,,,,,,,,,,,,,,,,,,,,,,,,,,,,,1.2394,651.1595608999778,None,None,1,651.1595608999778,None,,P037,fencog,1,Pre,2022_Apr_22_1102,N-Back (New Version 2021),2021.1.4,120.12935528181474,
,,,,Conditions/Version_1/threeback(1)_v1.xlsx,New rule: Press 'space' when you see 3-back (i.e. the same letter as the one that appeared 3 letters ago.),R,space,,,,,,,,,0,3,3,3,0,3,3,3,,,,,,,,,,,,,,,,,,,,,,,,,,,,,,,,,,,,,,,,,,,,,,,,,,,,,,,,,,,,,,,,,,,,,1.0286,654.199200699979,None,space,1,654.199200699979,None,0.6341976000112481,P037,fencog,1,Pre,2022_Apr_22_1102,N-Back (New Version 2021),2021.1.4,120.12935528181474,
,,,,Conditions/Version_1/threeback(1)_v1.xlsx,New rule: Press 'space' when you see 3-back (i.e. the same letter as the one that appeared 3 letters ago.),p,None,,,,,,,,,0,3,3,3,0,4,4,4,,,,,,,,,,,,,,,,,,,,,,,,,,,,,,,,,,,,,,,,,,,,,,,,,,,,,,,,,,,,,,,,,,,,,1.444,657.6481204000011,None,None,1,657.6481204000011,None,,P037,fencog,1,Pre,2022_Apr_22_1102,N-Back (New Version 2021),2021.1.4,120.12935528181474,
,,,,Conditions/Version_1/threeback(1)_v1.xlsx,New rule: Press 'space' when you see 3-back (i.e. the same letter as the one that appeared 3 letters ago.),E,None,,,,,,,,,0,3,3,3,0,5,5,5,,,,,,,,,,,,,,,,,,,,,,,,,,,,,,,,,,,,,,,,,,,,,,,,,,,,,,,,,,,,,,,,,,,,,1.7354,661.388739099988,None,None,1,661.388739099988,None,,P037,fencog,1,Pre,2022_Apr_22_1102,N-Back (New Version 2021),2021.1.4,120.12935528181474,
,,,,Conditions/Version_1/threeback(1)_v1.xlsx,New rule: Press 'space' when you see 3-back (i.e. the same letter as the one that appeared 3 letters ago.),e,None,,,,,,,,,0,3,3,3,0,6,6,6,,,,,,,,,,,,,,,,,,,,,,,,,,,,,,,,,,,,,,,,,,,,,,,,,,,,,,,,,,,,,,,,,,,,,1.1588,664.5520740999782,None,None,1,664.5520740999782,None,,P037,fencog,1,Pre,2022_Apr_22_1102,N-Back (New Version 2021),2021.1.4,120.12935528181474,
,,,,Conditions/Version_1/threeback(1)_v1.xlsx,New rule: Press 'space' when you see 3-back (i.e. the same letter as the one that appeared 3 letters ago.),m,None,,,,,,,,,0,3,3,3,0,7,7,7,,,,,,,,,,,,,,,,,,,,,,,,,,,,,,,,,,,,,,,,,,,,,,,,,,,,,,,,,,,,,,,,,,,,,1.7788,668.338917599991,None,None,1,668.338917599991,None,,P037,fencog,1,Pre,2022_Apr_22_1102,N-Back (New Version 2021),2021.1.4,120.12935528181474,
,,,,Conditions/Version_1/threeback(1)_v1.xlsx,New rule: Press 'space' when you see 3-back (i.e. the same letter as the one that appeared 3 letters ago.),n,None,,,,,,,,,0,3,3,3,0,8,8,8,,,,,,,,,,,,,,,,,,,,,,,,,,,,,,,,,,,,,,,,,,,,,,,,,,,,,,,,,,,,,,,,,,,,,1.2022,671.545023499988,None,None,1,671.545023499988,None,,P037,fencog,1,Pre,2022_Apr_22_1102,N-Back (New Version 2021),2021.1.4,120.12935528181474,
,,,,Conditions/Version_1/threeback(1)_v1.xlsx,New rule: Press 'space' when you see 3-back (i.e. the same letter as the one that appeared 3 letters ago.),e,space,,,,,,,,,0,3,3,3,0,9,9,9,,,,,,,,,,,,,,,,,,,,,,,,,,,,,,,,,,,,,,,,,,,,,,,,,,,,,,,,,,,,,,,,,,,,,1.103,674.6640185999859,None,space,1,674.6640185999859,None,0.49769580000429414,P037,fencog,1,Pre,2022_Apr_22_1102,N-Back (New Version 2021),2021.1.4,120.12935528181474,
,,,,Conditions/Version_1/threeback(1)_v1.xlsx,New rule: Press 'space' when you see 3-back (i.e. the same letter as the one that appeared 3 letters ago.),,,,,,,,,,,0,3,3,3,,,,,,,,,,,,,,,,,,,,,,,,,,,,,,,,,,,,,,,,,,,,,,,,,,,,,,,,,,,,,,,,,,,,,,,,,,,,,,,,,P037,fencog,1,Pre,2022_Apr_22_1102,N-Back (New Version 2021),2021.1.4,120.12935528181474,
,,,,Conditions/Version_1/oneback(2)_v1.xlsx,New rule: Press 'space' when you see 1-back (i.e. the same letter as the one that appeared 1 letter ago.),q,None,,,,,,,,,0,4,4,4,0,0,0,0,,,,,,,,,,,,,,,,,,,,,,,,,,,,,,,,,,,,,,,,,,,,,,,,,,,,,,,,,,,676.6891452999844,None,679.6774128999969,None,space,2.268137500010198,679.6774128999969,None,676.6891452999844,None,1.506,683.484214199998,None,None,1,683.484214199998,None,,P037,fencog,1,Pre,2022_Apr_22_1102,N-Back (New Version 2021),2021.1.4,120.12935528181474,
,,,,Conditions/Version_1/oneback(2)_v1.xlsx,New rule: Press 'space' when you see 1-back (i.e. the same letter as the one that appeared 1 letter ago.),Q,space,,,,,,,,,0,4,4,4,0,1,1,1,,,,,,,,,,,,,,,,,,,,,,,,,,,,,,,,,,,,,,,,,,,,,,,,,,,,,,,,,,,,,,,,,,,,,1.9586,687.4572214999935,None,space,1,687.4572214999935,None,0.8164508999907412,P037,fencog,1,Pre,2022_Apr_22_1102,N-Back (New Version 2021),2021.1.4,120.12935528181474,
,,,,Conditions/Version_1/oneback(2)_v1.xlsx,New rule: Press 'space' when you see 1-back (i.e. the same letter as the one that appeared 1 letter ago.),P,None,,,,,,,,,0,4,4,4,0,2,2,2,,,,,,,,,,,,,,,,,,,,,,,,,,,,,,,,,,,,,,,,,,,,,,,,,,,,,,,,,,,,,,,,,,,,,1.0658,690.5324215999863,None,None,1,690.5324215999863,None,,P037,fencog,1,Pre,2022_Apr_22_1102,N-Back (New Version 2021),2021.1.4,120.12935528181474,
,,,,Conditions/Version_1/oneback(2)_v1.xlsx,New rule: Press 'space' when you see 1-back (i.e. the same letter as the one that appeared 1 letter ago.),o,None,,,,,,,,,0,4,4,4,0,3,3,3,,,,,,,,,,,,,,,,,,,,,,,,,,,,,,,,,,,,,,,,,,,,,,,,,,,,,,,,,,,,,,,,,,,,,1.9834,694.5224871999817,None,None,1,694.5224871999817,None,,P037,fencog,1,Pre,2022_Apr_22_1102,N-Back (New Version 2021),2021.1.4,120.12935528181474,
,,,,Conditions/Version_1/oneback(2)_v1.xlsx,New rule: Press 'space' when you see 1-back (i.e. the same letter as the one that appeared 1 letter ago.),m,None,,,,,,,,,0,4,4,4,0,4,4,4,,,,,,,,,,,,,,,,,,,,,,,,,,,,,,,,,,,,,,,,,,,,,,,,,,,,,,,,,,,,,,,,,,,,,1.4688,698.0029143999855,None,None,1,698.0029143999855,None,,P037,fencog,1,Pre,2022_Apr_22_1102,N-Back (New Version 2021),2021.1.4,120.12935528181474,
,,,,Conditions/Version_1/oneback(2)_v1.xlsx,New rule: Press 'space' when you see 1-back (i.e. the same letter as the one that appeared 1 letter ago.),Z,None,,,,,,,,,0,4,4,4,0,5,5,5,,,,,,,,,,,,,,,,,,,,,,,,,,,,,,,,,,,,,,,,,,,,,,,,,,,,,,,,,,,,,,,,,,,,,1.9028,701.917952799995,None,None,1,701.917952799995,None,,P037,fencog,1,Pre,2022_Apr_22_1102,N-Back (New Version 2021),2021.1.4,120.12935528181474,
,,,,Conditions/Version_1/oneback(2)_v1.xlsx,New rule: Press 'space' when you see 1-back (i.e. the same letter as the one that appeared 1 letter ago.),c,None,,,,,,,,,0,4,4,4,0,6,6,6,,,,,,,,,,,,,,,,,,,,,,,,,,,,,,,,,,,,,,,,,,,,,,,,,,,,,,,,,,,,,,,,,,,,,1.6858,705.6094702999981,None,None,1,705.6094702999981,None,,P037,fencog,1,Pre,2022_Apr_22_1102,N-Back (New Version 2021),2021.1.4,120.12935528181474,
,,,,Conditions/Version_1/oneback(2)_v1.xlsx,New rule: Press 'space' when you see 1-back (i.e. the same letter as the one that appeared 1 letter ago.),c,space,,,,,,,,,0,4,4,4,0,7,7,7,,,,,,,,,,,,,,,,,,,,,,,,,,,,,,,,,,,,,,,,,,,,,,,,,,,,,,,,,,,,,,,,,,,,,1.5246,709.1331726999779,None,space,1,709.1331726999779,None,0.7245976999984123,P037,fencog,1,Pre,2022_Apr_22_1102,N-Back (New Version 2021),2021.1.4,120.12935528181474,
,,,,Conditions/Version_1/oneback(2)_v1.xlsx,New rule: Press 'space' when you see 1-back (i.e. the same letter as the one that appeared 1 letter ago.),P,None,,,,,,,,,0,4,4,4,0,8,8,8,,,,,,,,,,,,,,,,,,,,,,,,,,,,,,,,,,,,,,,,,,,,,,,,,,,,,,,,,,,,,,,,,,,,,1.8532,712.99010179998,None,None,1,712.99010179998,None,,P037,fencog,1,Pre,2022_Apr_22_1102,N-Back (New Version 2021),2021.1.4,120.12935528181474,
,,,,Conditions/Version_1/oneback(2)_v1.xlsx,New rule: Press 'space' when you see 1-back (i.e. the same letter as the one that appeared 1 letter ago.),p,space,,,,,,,,,0,4,4,4,0,9,9,9,,,,,,,,,,,,,,,,,,,,,,,,,,,,,,,,,,,,,,,,,,,,,,,,,,,,,,,,,,,,,,,,,,,,,1.9896,716.9807462999888,None,space,1,716.9807462999888,None,0.4769619000144303,P037,fencog,1,Pre,2022_Apr_22_1102,N-Back (New Version 2021),2021.1.4,120.12935528181474,
,,,,Conditions/Version_1/oneback(2)_v1.xlsx,New rule: Press 'space' when you see 1-back (i.e. the same letter as the one that appeared 1 letter ago.),,,,,,,,,,,0,4,4,4,,,,,,,,,,,,,,,,,,,,,,,,,,,,,,,,,,,,,,,,,,,,,,,,,,,,,,,,,,,,,,,,,,,,,,,,,,,,,,,,,P037,fencog,1,Pre,2022_Apr_22_1102,N-Back (New Version 2021),2021.1.4,120.12935528181474,
,,,,Conditions/Version_1/zeroback(2)_v1.xlsx,New rule: Press 'space' when you see the letter 'x' or 'X'.,p,None,,,,,,,,,0,5,5,5,0,0,0,0,,,,,,,,,,,,,,,,,,,,,,,,,,,,,,,,,,,,,,,,,,,,,,,,,,,,,,,,,,,718.9983661999868,None,721.981129199994,None,space,17.59649480000371,721.981129199994,None,718.9983661999868,None,1.8904,741.4984143000038,None,None,1,741.4984143000038,None,,P037,fencog,1,Pre,2022_Apr_22_1102,N-Back (New Version 2021),2021.1.4,120.12935528181474,
,,,,Conditions/Version_1/zeroback(2)_v1.xlsx,New rule: Press 'space' when you see the letter 'x' or 'X'.,L,None,,,,,,,,,0,5,5,5,0,1,1,1,,,,,,,,,,,,,,,,,,,,,,,,,,,,,,,,,,,,,,,,,,,,,,,,,,,,,,,,,,,,,,,,,,,,,1.692,745.1890696999908,None,None,1,745.1890696999908,None,,P037,fencog,1,Pre,2022_Apr_22_1102,N-Back (New Version 2021),2021.1.4,120.12935528181474,
,,,,Conditions/Version_1/zeroback(2)_v1.xlsx,New rule: Press 'space' when you see the letter 'x' or 'X'.,G,None,,,,,,,,,0,5,5,5,0,2,2,2,,,,,,,,,,,,,,,,,,,,,,,,,,,,,,,,,,,,,,,,,,,,,,,,,,,,,,,,,,,,,,,,,,,,,1.3634,748.5570530999976,None,None,1,748.5570530999976,None,,P037,fencog,1,Pre,2022_Apr_22_1102,N-Back (New Version 2021),2021.1.4,120.12935528181474,
,,,,Conditions/Version_1/zeroback(2)_v1.xlsx,New rule: Press 'space' when you see the letter 'x' or 'X'.,y,None,,,,,,,,,0,5,5,5,0,3,3,3,,,,,,,,,,,,,,,,,,,,,,,,,,,,,,,,,,,,,,,,,,,,,,,,,,,,,,,,,,,,,,,,,,,,,1.9524,752.5210977999959,None,None,1,752.5210977999959,None,,P037,fencog,1,Pre,2022_Apr_22_1102,N-Back (New Version 2021),2021.1.4,120.12935528181474,
,,,,Conditions/Version_1/zeroback(2)_v1.xlsx,New rule: Press 'space' when you see the letter 'x' or 'X'.,Y,None,,,,,,,,,0,5,5,5,0,4,4,4,,,,,,,,,,,,,,,,,,,,,,,,,,,,,,,,,,,,,,,,,,,,,,,,,,,,,,,,,,,,,,,,,,,,,1.8594,756.3958591999835,None,None,1,756.3958591999835,None,,P037,fencog,1,Pre,2022_Apr_22_1102,N-Back (New Version 2021),2021.1.4,120.12935528181474,
,,,,Conditions/Version_1/zeroback(2)_v1.xlsx,New rule: Press 'space' when you see the letter 'x' or 'X'.,W,None,,,,,,,,,0,5,5,5,0,5,5,5,,,,,,,,,,,,,,,,,,,,,,,,,,,,,,,,,,,,,,,,,,,,,,,,,,,,,,,,,,,,,,,,,,,,,1.971,760.3763668999891,None,None,1,760.3763668999891,None,,P037,fencog,1,Pre,2022_Apr_22_1102,N-Back (New Version 2021),2021.1.4,120.12935528181474,
,,,,Conditions/Version_1/zeroback(2)_v1.xlsx,New rule: Press 'space' when you see the letter 'x' or 'X'.,x,space,,,,,,,,,0,5,5,5,0,6,6,6,,,,,,,,,,,,,,,,,,,,,,,,,,,,,,,,,,,,,,,,,,,,,,,,,,,,,,,,,,,,,,,,,,,,,1.6858,764.068228499993,None,space,1,764.068228499993,None,0.4535617000074126,P037,fencog,1,Pre,2022_Apr_22_1102,N-Back (New Version 2021),2021.1.4,120.12935528181474,
,,,,Conditions/Version_1/zeroback(2)_v1.xlsx,New rule: Press 'space' when you see the letter 'x' or 'X'.,X,space,,,,,,,,,0,5,5,5,0,7,7,7,,,,,,,,,,,,,,,,,,,,,,,,,,,,,,,,,,,,,,,,,,,,,,,,,,,,,,,,,,,,,,,,,,,,,1.7912,767.8674035999866,None,space,1,767.8674035999866,None,0.43019730001105927,P037,fencog,1,Pre,2022_Apr_22_1102,N-Back (New Version 2021),2021.1.4,120.12935528181474,
,,,,Conditions/Version_1/zeroback(2)_v1.xlsx,New rule: Press 'space' when you see the letter 'x' or 'X'.,p,None,,,,,,,,,0,5,5,5,0,8,8,8,,,,,,,,,,,,,,,,,,,,,,,,,,,,,,,,,,,,,,,,,,,,,,,,,,,,,,,,,,,,,,,,,,,,,1.289,771.1667038000014,None,None,1,771.1667038000014,None,,P037,fencog,1,Pre,2022_Apr_22_1102,N-Back (New Version 2021),2021.1.4,120.12935528181474,
,,,,Conditions/Version_1/zeroback(2)_v1.xlsx,New rule: Press 'space' when you see the letter 'x' or 'X'.,h,None,,,,,,,,,0,5,5,5,0,9,9,9,,,,,,,,,,,,,,,,,,,,,,,,,,,,,,,,,,,,,,,,,,,,,,,,,,,,,,,,,,,,,,,,,,,,,1.0596,774.2399699999951,None,None,1,774.2399699999951,None,,P037,fencog,1,Pre,2022_Apr_22_1102,N-Back (New Version 2021),2021.1.4,120.12935528181474,
,,,,Conditions/Version_1/zeroback(2)_v1.xlsx,New rule: Press 'space' when you see the letter 'x' or 'X'.,,,,,,,,,,,0,5,5,5,,,,,,,,,,,,,,,,,,,,,,,,,,,,,,,,,,,,,,,,,,,,,,,,,,,,,,,,,,,,,,,,,,,,,,,,,,,,,,,,,P037,fencog,1,Pre,2022_Apr_22_1102,N-Back (New Version 2021),2021.1.4,120.12935528181474,
,,,,Conditions/Version_1/threeback(2)_v1.xlsx,New rule: Press 'space' when you see 3-back (i.e. the same letter as the one that appeared 3 letters ago.),q,None,,,,,,,,,0,6,6,6,0,0,0,0,,,,,,,,,,,,,,,,,,,,,,,,,,,,,,,,,,,,,,,,,,,,,,,,,,,,,,,,,,,776.264881399984,None,779.2561632999859,None,space,15.425423600012437,779.2561632999859,None,776.264881399984,None,1.4254,796.1417547999881,None,None,1,796.1417547999881,None,,P037,fencog,1,Pre,2022_Apr_22_1102,N-Back (New Version 2021),2021.1.4,120.12935528181474,
,,,,Conditions/Version_1/threeback(2)_v1.xlsx,New rule: Press 'space' when you see 3-back (i.e. the same letter as the one that appeared 3 letters ago.),Y,None,,,,,,,,,0,6,6,6,0,1,1,1,,,,,,,,,,,,,,,,,,,,,,,,,,,,,,,,,,,,,,,,,,,,,,,,,,,,,,,,,,,,,,,,,,,,,1.0472,799.1980407999945,None,None,1,799.1980407999945,None,,P037,fencog,1,Pre,2022_Apr_22_1102,N-Back (New Version 2021),2021.1.4,120.12935528181474,
,,,,Conditions/Version_1/threeback(2)_v1.xlsx,New rule: Press 'space' when you see 3-back (i.e. the same letter as the one that appeared 3 letters ago.),p,None,,,,,,,,,0,6,6,6,0,2,2,2,,,,,,,,,,,,,,,,,,,,,,,,,,,,,,,,,,,,,,,,,,,,,,,,,,,,,,,,,,,,,,,,,,,,,1.2952,802.4970490999985,None,None,1,802.4970490999985,None,,P037,fencog,1,Pre,2022_Apr_22_1102,N-Back (New Version 2021),2021.1.4,120.12935528181474,
,,,,Conditions/Version_1/threeback(2)_v1.xlsx,New rule: Press 'space' when you see 3-back (i.e. the same letter as the one that appeared 3 letters ago.),p,None,,,,,,,,,0,6,6,6,0,3,3,3,,,,,,,,,,,,,,,,,,,,,,,,,,,,,,,,,,,,,,,,,,,,,,,,,,,,,,,,,,,,,,,,,,,,,1.1898,805.6879633999779,None,None,1,805.6879633999779,None,,P037,fencog,1,Pre,2022_Apr_22_1102,N-Back (New Version 2021),2021.1.4,120.12935528181474,
,,,,Conditions/Version_1/threeback(2)_v1.xlsx,New rule: Press 'space' when you see 3-back (i.e. the same letter as the one that appeared 3 letters ago.),y,space,,,,,,,,,0,6,6,6,0,4,4,4,,,,,,,,,,,,,,,,,,,,,,,,,,,,,,,,,,,,,,,,,,,,,,,,,,,,,,,,,,,,,,,,,,,,,1.7912,809.4783827999781,None,space,1,809.4783827999781,None,0.7871249000017997,P037,fencog,1,Pre,2022_Apr_22_1102,N-Back (New Version 2021),2021.1.4,120.12935528181474,
,,,,Conditions/Version_1/threeback(2)_v1.xlsx,New rule: Press 'space' when you see 3-back (i.e. the same letter as the one that appeared 3 letters ago.),u,None,,,,,,,,,0,6,6,6,0,5,5,5,,,,,,,,,,,,,,,,,,,,,,,,,,,,,,,,,,,,,,,,,,,,,,,,,,,,,,,,,,,,,,,,,,,,,1.8098,813.2939850999974,None,None,1,813.2939850999974,None,,P037,fencog,1,Pre,2022_Apr_22_1102,N-Back (New Version 2021),2021.1.4,120.12935528181474,
,,,,Conditions/Version_1/threeback(2)_v1.xlsx,New rule: Press 'space' when you see 3-back (i.e. the same letter as the one that appeared 3 letters ago.),P,space,,,,,,,,,0,6,6,6,0,6,6,6,,,,,,,,,,,,,,,,,,,,,,,,,,,,,,,,,,,,,,,,,,,,,,,,,,,,,,,,,,,,,,,,,,,,,1.4068,816.7024111999781,None,space,1,816.7024111999781,None,0.9712101999903098,P037,fencog,1,Pre,2022_Apr_22_1102,N-Back (New Version 2021),2021.1.4,120.12935528181474,
,,,,Conditions/Version_1/threeback(2)_v1.xlsx,New rule: Press 'space' when you see 3-back (i.e. the same letter as the one that appeared 3 letters ago.),a,None,,,,,,,,,0,6,6,6,0,7,7,7,,,,,,,,,,,,,,,,,,,,,,,,,,,,,,,,,,,,,,,,,,,,,,,,,,,,,,,,,,,,,,,,,,,,,1.01,819.7265040999919,None,None,1,819.7265040999919,None,,P037,fencog,1,Pre,2022_Apr_22_1102,N-Back (New Version 2021),2021.1.4,120.12935528181474,
,,,,Conditions/Version_1/threeback(2)_v1.xlsx,New rule: Press 'space' when you see 3-back (i.e. the same letter as the one that appeared 3 letters ago.),U,space,,,,,,,,,0,6,6,6,0,8,8,8,,,,,,,,,,,,,,,,,,,,,,,,,,,,,,,,,,,,,,,,,,,,,,,,,,,,,,,,,,,,,,,,,,,,,1.3386,823.0756335000042,None,None,0,823.0756335000042,None,,P037,fencog,1,Pre,2022_Apr_22_1102,N-Back (New Version 2021),2021.1.4,120.12935528181474,
,,,,Conditions/Version_1/threeback(2)_v1.xlsx,New rule: Press 'space' when you see 3-back (i.e. the same letter as the one that appeared 3 letters ago.),q,None,,,,,,,,,0,6,6,6,0,9,9,9,,,,,,,,,,,,,,,,,,,,,,,,,,,,,,,,,,,,,,,,,,,,,,,,,,,,,,,,,,,,,,,,,,,,,1.6548,826.7422317999881,None,None,1,826.7422317999881,None,,P037,fencog,1,Pre,2022_Apr_22_1102,N-Back (New Version 2021),2021.1.4,120.12935528181474,
,,,,Conditions/Version_1/threeback(2)_v1.xlsx,New rule: Press 'space' when you see 3-back (i.e. the same letter as the one that appeared 3 letters ago.),,,,,,,,,,,0,6,6,6,,,,,,,,,,,,,,,,,,,,,,,,,,,,,,,,,,,,,,,,,,,,,,,,,,,,,,,,,,,,,,,,,,,,,,,,,,,,,,,,,P037,fencog,1,Pre,2022_Apr_22_1102,N-Back (New Version 2021),2021.1.4,120.12935528181474,
,,,,Conditions/Version_1/twoback(2)_v1.xlsx,New rule: Press 'space' when you see 2-back (i.e. the same letter as the one that appeared 2 letters ago.),q,None,,,,,,,,,0,7,7,7,0,0,0,0,,,,,,,,,,,,,,,,,,,,,,,,,,,,,,,,,,,,,,,,,,,,,,,,,,,,,,,,,,,828.7691736999841,None,831.7583044999919,None,space,0.5629973000031896,831.7583044999919,None,828.7691736999841,None,1.7044,834.0624937999819,None,None,1,834.0624937999819,None,,P037,fencog,1,Pre,2022_Apr_22_1102,N-Back (New Version 2021),2021.1.4,120.12935528181474,
,,,,Conditions/Version_1/twoback(2)_v1.xlsx,New rule: Press 'space' when you see 2-back (i.e. the same letter as the one that appeared 2 letters ago.),r,None,,,,,,,,,0,7,7,7,0,1,1,1,,,,,,,,,,,,,,,,,,,,,,,,,,,,,,,,,,,,,,,,,,,,,,,,,,,,,,,,,,,,,,,,,,,,,1.1526,837.2199277000036,None,None,1,837.2199277000036,None,,P037,fencog,1,Pre,2022_Apr_22_1102,N-Back (New Version 2021),2021.1.4,120.12935528181474,
,,,,Conditions/Version_1/twoback(2)_v1.xlsx,New rule: Press 'space' when you see 2-back (i.e. the same letter as the one that appeared 2 letters ago.),q,space,,,,,,,,,0,7,7,7,0,2,2,2,,,,,,,,,,,,,,,,,,,,,,,,,,,,,,,,,,,,,,,,,,,,,,,,,,,,,,,,,,,,,,,,,,,,,1.1588,840.3857029000064,None,space,1,840.3857029000064,None,0.7437308999942616,P037,fencog,1,Pre,2022_Apr_22_1102,N-Back (New Version 2021),2021.1.4,120.12935528181474,
,,,,Conditions/Version_1/twoback(2)_v1.xlsx,New rule: Press 'space' when you see 2-back (i.e. the same letter as the one that appeared 2 letters ago.),P,None,,,,,,,,,0,7,7,7,0,3,3,3,,,,,,,,,,,,,,,,,,,,,,,,,,,,,,,,,,,,,,,,,,,,,,,,,,,,,,,,,,,,,,,,,,,,,1.4626,843.8513474999927,None,None,1,843.8513474999927,None,,P037,fencog,1,Pre,2022_Apr_22_1102,N-Back (New Version 2021),2021.1.4,120.12935528181474,
,,,,Conditions/Version_1/twoback(2)_v1.xlsx,New rule: Press 'space' when you see 2-back (i.e. the same letter as the one that appeared 2 letters ago.),p,None,,,,,,,,,0,7,7,7,0,4,4,4,,,,,,,,,,,,,,,,,,,,,,,,,,,,,,,,,,,,,,,,,,,,,,,,,,,,,,,,,,,,,,,,,,,,,1.351,847.2086692999874,None,None,1,847.2086692999874,None,,P037,fencog,1,Pre,2022_Apr_22_1102,N-Back (New Version 2021),2021.1.4,120.12935528181474,
,,,,Conditions/Version_1/twoback(2)_v1.xlsx,New rule: Press 'space' when you see 2-back (i.e. the same letter as the one that appeared 2 letters ago.),H,None,,,,,,,,,0,7,7,7,0,5,5,5,,,,,,,,,,,,,,,,,,,,,,,,,,,,,,,,,,,,,,,,,,,,,,,,,,,,,,,,,,,,,,,,,,,,,1.258,850.4660665999982,None,None,1,850.4660665999982,None,,P037,fencog,1,Pre,2022_Apr_22_1102,N-Back (New Version 2021),2021.1.4,120.12935528181474,
,,,,Conditions/Version_1/twoback(2)_v1.xlsx,New rule: Press 'space' when you see 2-back (i.e. the same letter as the one that appeared 2 letters ago.),g,None,,,,,,,,,0,7,7,7,0,6,6,6,,,,,,,,,,,,,,,,,,,,,,,,,,,,,,,,,,,,,,,,,,,,,,,,,,,,,,,,,,,,,,,,,,,,,1.8966,854.3649331000051,None,None,1,854.3649331000051,None,,P037,fencog,1,Pre,2022_Apr_22_1102,N-Back (New Version 2021),2021.1.4,120.12935528181474,
,,,,Conditions/Version_1/twoback(2)_v1.xlsx,New rule: Press 'space' when you see 2-back (i.e. the same letter as the one that appeared 2 letters ago.),j,None,,,,,,,,,0,7,7,7,0,7,7,7,,,,,,,,,,,,,,,,,,,,,,,,,,,,,,,,,,,,,,,,,,,,,,,,,,,,,,,,,,,,,,,,,,,,,1.5618,857.9305164999969,None,None,1,857.9305164999969,None,,P037,fencog,1,Pre,2022_Apr_22_1102,N-Back (New Version 2021),2021.1.4,120.12935528181474,
,,,,Conditions/Version_1/twoback(2)_v1.xlsx,New rule: Press 'space' when you see 2-back (i.e. the same letter as the one that appeared 2 letters ago.),g,space,,,,,,,,,0,7,7,7,0,8,8,8,,,,,,,,,,,,,,,,,,,,,,,,,,,,,,,,,,,,,,,,,,,,,,,,,,,,,,,,,,,,,,,,,,,,,1.9028,861.8376629999839,None,space,1,861.8376629999839,None,0.8356918999925256,P037,fencog,1,Pre,2022_Apr_22_1102,N-Back (New Version 2021),2021.1.4,120.12935528181474,
,,,,Conditions/Version_1/twoback(2)_v1.xlsx,New rule: Press 'space' when you see 2-back (i.e. the same letter as the one that appeared 2 letters ago.),G,None,,,,,,,,,0,7,7,7,0,9,9,9,,,,,,,,,,,,,,,,,,,,,,,,,,,,,,,,,,,,,,,,,,,,,,,,,,,,,,,,,,,,,,,,,,,,,1.5804,865.4199960999831,None,None,1,865.4199960999831,None,,P037,fencog,1,Pre,2022_Apr_22_1102,N-Back (New Version 2021),2021.1.4,120.12935528181474,
,,,,Conditions/Version_1/twoback(2)_v1.xlsx,New rule: Press 'space' when you see 2-back (i.e. the same letter as the one that appeared 2 letters ago.),,,,,,,,,,,0,7,7,7,,,,,,,,,,,,,,,,,,,,,,,,,,,,,,,,,,,,,,,,,,,,,,,,,,,,,,,,,,,,,,,,,,,,,,,,,,,,,,,,,P037,fencog,1,Pre,2022_Apr_22_1102,N-Back (New Version 2021),2021.1.4,120.12935528181474,
,,,,Conditions/Version_1/threeback(3)_v1.xlsx,New rule: Press 'space' when you see 3-back (i.e. the same letter as the one that appeared 3 letters ago.),w,None,,,,,,,,,0,8,8,8,0,0,0,0,,,,,,,,,,,,,,,,,,,,,,,,,,,,,,,,,,,,,,,,,,,,,,,,,,,,,,,,,,,867.4396994999843,None,870.4286127999949,None,space,2.540779400005704,870.4286127999949,None,867.4396994999843,None,1.258,874.2507421000046,None,None,1,874.2507421000046,None,,P037,fencog,1,Pre,2022_Apr_22_1102,N-Back (New Version 2021),2021.1.4,120.12935528181474,
,,,,Conditions/Version_1/threeback(3)_v1.xlsx,New rule: Press 'space' when you see 3-back (i.e. the same letter as the one that appeared 3 letters ago.),p,None,,,,,,,,,0,8,8,8,0,1,1,1,,,,,,,,,,,,,,,,,,,,,,,,,,,,,,,,,,,,,,,,,,,,,,,,,,,,,,,,,,,,,,,,,,,,,1.6114,877.8663121999998,None,None,1,877.8663121999998,None,,P037,fencog,1,Pre,2022_Apr_22_1102,N-Back (New Version 2021),2021.1.4,120.12935528181474,
,,,,Conditions/Version_1/threeback(3)_v1.xlsx,New rule: Press 'space' when you see 3-back (i.e. the same letter as the one that appeared 3 letters ago.),P,None,,,,,,,,,0,8,8,8,0,2,2,2,,,,,,,,,,,,,,,,,,,,,,,,,,,,,,,,,,,,,,,,,,,,,,,,,,,,,,,,,,,,,,,,,,,,,1.5122,881.3819458999787,None,None,1,881.3819458999787,None,,P037,fencog,1,Pre,2022_Apr_22_1102,N-Back (New Version 2021),2021.1.4,120.12935528181474,
,,,,Conditions/Version_1/threeback(3)_v1.xlsx,New rule: Press 'space' when you see 3-back (i.e. the same letter as the one that appeared 3 letters ago.),i,None,,,,,,,,,0,8,8,8,0,3,3,3,,,,,,,,,,,,,,,,,,,,,,,,,,,,,,,,,,,,,,,,,,,,,,,,,,,,,,,,,,,,,,,,,,,,,1.01,884.3981694999966,None,None,1,884.3981694999966,None,,P037,fencog,1,Pre,2022_Apr_22_1102,N-Back (New Version 2021),2021.1.4,120.12935528181474,
,,,,Conditions/Version_1/threeback(3)_v1.xlsx,New rule: Press 'space' when you see 3-back (i.e. the same letter as the one that appeared 3 letters ago.),f,None,,,,,,,,,0,8,8,8,0,4,4,4,,,,,,,,,,,,,,,,,,,,,,,,,,,,,,,,,,,,,,,,,,,,,,,,,,,,,,,,,,,,,,,,,,,,,1.3944,887.8050195999967,None,None,1,887.8050195999967,None,,P037,fencog,1,Pre,2022_Apr_22_1102,N-Back (New Version 2021),2021.1.4,120.12935528181474,
,,,,Conditions/Version_1/threeback(3)_v1.xlsx,New rule: Press 'space' when you see 3-back (i.e. the same letter as the one that appeared 3 letters ago.),o,None,,,,,,,,,0,8,8,8,0,5,5,5,,,,,,,,,,,,,,,,,,,,,,,,,,,,,,,,,,,,,,,,,,,,,,,,,,,,,,,,,,,,,,,,,,,,,1.3014,891.1124390999903,None,None,1,891.1124390999903,None,,P037,fencog,1,Pre,2022_Apr_22_1102,N-Back (New Version 2021),2021.1.4,120.12935528181474,
,,,,Conditions/Version_1/threeback(3)_v1.xlsx,New rule: Press 'space' when you see 3-back (i.e. the same letter as the one that appeared 3 letters ago.),w,None,,,,,,,,,0,8,8,8,0,6,6,6,,,,,,,,,,,,,,,,,,,,,,,,,,,,,,,,,,,,,,,,,,,,,,,,,,,,,,,,,,,,,,,,,,,,,1.165,894.2782936999865,None,None,1,894.2782936999865,None,,P037,fencog,1,Pre,2022_Apr_22_1102,N-Back (New Version 2021),2021.1.4,120.12935528181474,
,,,,Conditions/Version_1/threeback(3)_v1.xlsx,New rule: Press 'space' when you see 3-back (i.e. the same letter as the one that appeared 3 letters ago.),F,space,,,,,,,,,0,8,8,8,0,7,7,7,,,,,,,,,,,,,,,,,,,,,,,,,,,,,,,,,,,,,,,,,,,,,,,,,,,,,,,,,,,,,,,,,,,,,1.0348,897.3188943999994,None,space,1,897.3188943999994,None,0.8024759000109043,P037,fencog,1,Pre,2022_Apr_22_1102,N-Back (New Version 2021),2021.1.4,120.12935528181474,
,,,,Conditions/Version_1/threeback(3)_v1.xlsx,New rule: Press 'space' when you see 3-back (i.e. the same letter as the one that appeared 3 letters ago.),p,None,,,,,,,,,0,8,8,8,0,8,8,8,,,,,,,,,,,,,,,,,,,,,,,,,,,,,,,,,,,,,,,,,,,,,,,,,,,,,,,,,,,,,,,,,,,,,1.8842,901.2093854999985,None,None,1,901.2093854999985,None,,P037,fencog,1,Pre,2022_Apr_22_1102,N-Back (New Version 2021),2021.1.4,120.12935528181474,
,,,,Conditions/Version_1/threeback(3)_v1.xlsx,New rule: Press 'space' when you see 3-back (i.e. the same letter as the one that appeared 3 letters ago.),W,space,,,,,,,,,0,8,8,8,0,9,9,9,,,,,,,,,,,,,,,,,,,,,,,,,,,,,,,,,,,,,,,,,,,,,,,,,,,,,,,,,,,,,,,,,,,,,1.568,904.7834072999831,None,space,1,904.7834072999831,None,1.4981262999936007,P037,fencog,1,Pre,2022_Apr_22_1102,N-Back (New Version 2021),2021.1.4,120.12935528181474,
,,,,Conditions/Version_1/threeback(3)_v1.xlsx,New rule: Press 'space' when you see 3-back (i.e. the same letter as the one that appeared 3 letters ago.),,,,,,,,,,,0,8,8,8,,,,,,,,,,,,,,,,,,,,,,,,,,,,,,,,,,,,,,,,,,,,,,,,,,,,,,,,,,,,,,,,,,,,,,,,,,,,,,,,,P037,fencog,1,Pre,2022_Apr_22_1102,N-Back (New Version 2021),2021.1.4,120.12935528181474,
,,,,Conditions/Version_1/zeroback(3)_v1.xlsx,New rule: Press 'space' when you see the letter 'x' or 'X'.,X,space,,,,,,,,,0,9,9,9,0,0,0,0,,,,,,,,,,,,,,,,,,,,,,,,,,,,,,,,,,,,,,,,,,,,,,,,,,,,,,,,,,,906.8037272999936,None,909.7918935999915,None,space,0.44168779999017715,909.7918935999915,None,906.8037272999936,None,1.3014,911.5648935000063,None,space,1,911.5648935000063,None,0.5166291999921668,P037,fencog,1,Pre,2022_Apr_22_1102,N-Back (New Version 2021),2021.1.4,120.12935528181474,
,,,,Conditions/Version_1/zeroback(3)_v1.xlsx,New rule: Press 'space' when you see the letter 'x' or 'X'.,B,None,,,,,,,,,0,9,9,9,0,1,1,1,,,,,,,,,,,,,,,,,,,,,,,,,,,,,,,,,,,,,,,,,,,,,,,,,,,,,,,,,,,,,,,,,,,,,1.382,914.9505912000022,None,None,1,914.9505912000022,None,,P037,fencog,1,Pre,2022_Apr_22_1102,N-Back (New Version 2021),2021.1.4,120.12935528181474,
,,,,Conditions/Version_1/zeroback(3)_v1.xlsx,New rule: Press 'space' when you see the letter 'x' or 'X'.,m,None,,,,,,,,,0,9,9,9,0,2,2,2,,,,,,,,,,,,,,,,,,,,,,,,,,,,,,,,,,,,,,,,,,,,,,,,,,,,,,,,,,,,,,,,,,,,,1.4316,918.3878290999855,None,None,1,918.3878290999855,None,,P037,fencog,1,Pre,2022_Apr_22_1102,N-Back (New Version 2021),2021.1.4,120.12935528181474,
,,,,Conditions/Version_1/zeroback(3)_v1.xlsx,New rule: Press 'space' when you see the letter 'x' or 'X'.,m,None,,,,,,,,,0,9,9,9,0,3,3,3,,,,,,,,,,,,,,,,,,,,,,,,,,,,,,,,,,,,,,,,,,,,,,,,,,,,,,,,,,,,,,,,,,,,,1.9586,922.345016599982,None,None,1,922.345016599982,None,,P037,fencog,1,Pre,2022_Apr_22_1102,N-Back (New Version 2021),2021.1.4,120.12935528181474,
,,,,Conditions/Version_1/zeroback(3)_v1.xlsx,New rule: Press 'space' when you see the letter 'x' or 'X'.,o,None,,,,,,,,,0,9,9,9,0,4,4,4,,,,,,,,,,,,,,,,,,,,,,,,,,,,,,,,,,,,,,,,,,,,,,,,,,,,,,,,,,,,,,,,,,,,,1.8222,926.1689174000057,None,None,1,926.1689174000057,None,,P037,fencog,1,Pre,2022_Apr_22_1102,N-Back (New Version 2021),2021.1.4,120.12935528181474,
,,,,Conditions/Version_1/zeroback(3)_v1.xlsx,New rule: Press 'space' when you see the letter 'x' or 'X'.,p,None,,,,,,,,,0,9,9,9,0,5,5,5,,,,,,,,,,,,,,,,,,,,,,,,,,,,,,,,,,,,,,,,,,,,,,,,,,,,,,,,,,,,,,,,,,,,,1.9152,930.0865889999841,None,None,1,930.0865889999841,None,,P037,fencog,1,Pre,2022_Apr_22_1102,N-Back (New Version 2021),2021.1.4,120.12935528181474,
,,,,Conditions/Version_1/zeroback(3)_v1.xlsx,New rule: Press 'space' when you see the letter 'x' or 'X'.,G,None,,,,,,,,,0,9,9,9,0,6,6,6,,,,,,,,,,,,,,,,,,,,,,,,,,,,,,,,,,,,,,,,,,,,,,,,,,,,,,,,,,,,,,,,,,,,,1.2456,933.3436767999956,None,None,1,933.3436767999956,None,,P037,fencog,1,Pre,2022_Apr_22_1102,N-Back (New Version 2021),2021.1.4,120.12935528181474,
,,,,Conditions/Version_1/zeroback(3)_v1.xlsx,New rule: Press 'space' when you see the letter 'x' or 'X'.,X,space,,,,,,,,,0,9,9,9,0,7,7,7,,,,,,,,,,,,,,,,,,,,,,,,,,,,,,,,,,,,,,,,,,,,,,,,,,,,,,,,,,,,,,,,,,,,,1.971,937.3249549999891,None,space,1,937.3249549999891,None,0.7243381000007503,P037,fencog,1,Pre,2022_Apr_22_1102,N-Back (New Version 2021),2021.1.4,120.12935528181474,
,,,,Conditions/Version_1/zeroback(3)_v1.xlsx,New rule: Press 'space' when you see the letter 'x' or 'X'.,p,None,,,,,,,,,0,9,9,9,0,8,8,8,,,,,,,,,,,,,,,,,,,,,,,,,,,,,,,,,,,,,,,,,,,,,,,,,,,,,,,,,,,,,,,,,,,,,1.2952,940.6338328999991,None,None,1,940.6338328999991,None,,P037,fencog,1,Pre,2022_Apr_22_1102,N-Back (New Version 2021),2021.1.4,120.12935528181474,
,,,,Conditions/Version_1/zeroback(3)_v1.xlsx,New rule: Press 'space' when you see the letter 'x' or 'X'.,x,space,,,,,,,,,0,9,9,9,0,9,9,9,,,,,,,,,,,,,,,,,,,,,,,,,,,,,,,,,,,,,,,,,,,,,,,,,,,,,,,,,,,,,,,,,,,,,1.3882,944.0310517000034,None,space,1,944.0310517000034,None,0.778320800018264,P037,fencog,1,Pre,2022_Apr_22_1102,N-Back (New Version 2021),2021.1.4,120.12935528181474,
,,,,Conditions/Version_1/zeroback(3)_v1.xlsx,New rule: Press 'space' when you see the letter 'x' or 'X'.,,,,,,,,,,,0,9,9,9,,,,,,,,,,,,,,,,,,,,,,,,,,,,,,,,,,,,,,,,,,,,,,,,,,,,,,,,,,,,,,,,,,,,,,,,,,,,,,,,,P037,fencog,1,Pre,2022_Apr_22_1102,N-Back (New Version 2021),2021.1.4,120.12935528181474,
,,,,Conditions/Version_1/twoback(3)_v1.xlsx,New rule: Press 'space' when you see 2-back (i.e. the same letter as the one that appeared 2 letters ago.),e,None,,,,,,,,,0,10,10,10,0,0,0,0,,,,,,,,,,,,,,,,,,,,,,,,,,,,,,,,,,,,,,,,,,,,,,,,,,,,,,,,,,,946.0609502999869,None,949.0479454000015,None,space,0.5215755000244826,949.0479454000015,None,946.0609502999869,None,1.2332,950.8367604999803,None,None,1,950.8367604999803,None,,P037,fencog,1,Pre,2022_Apr_22_1102,N-Back (New Version 2021),2021.1.4,120.12935528181474,
,,,,Conditions/Version_1/twoback(3)_v1.xlsx,New rule: Press 'space' when you see 2-back (i.e. the same letter as the one that appeared 2 letters ago.),o,None,,,,,,,,,0,10,10,10,0,1,1,1,,,,,,,,,,,,,,,,,,,,,,,,,,,,,,,,,,,,,,,,,,,,,,,,,,,,,,,,,,,,,,,,,,,,,1.1216,953.9607229999965,None,None,1,953.9607229999965,None,,P037,fencog,1,Pre,2022_Apr_22_1102,N-Back (New Version 2021),2021.1.4,120.12935528181474,
,,,,Conditions/Version_1/twoback(3)_v1.xlsx,New rule: Press 'space' when you see 2-back (i.e. the same letter as the one that appeared 2 letters ago.),P,None,,,,,,,,,0,10,10,10,0,2,2,2,,,,,,,,,,,,,,,,,,,,,,,,,,,,,,,,,,,,,,,,,,,,,,,,,,,,,,,,,,,,,,,,,,,,,1.6362,957.6013579999853,None,None,1,957.6013579999853,None,,P037,fencog,1,Pre,2022_Apr_22_1102,N-Back (New Version 2021),2021.1.4,120.12935528181474,
,,,,Conditions/Version_1/twoback(3)_v1.xlsx,New rule: Press 'space' when you see 2-back (i.e. the same letter as the one that appeared 2 letters ago.),z,None,,,,,,,,,0,10,10,10,0,3,3,3,,,,,,,,,,,,,,,,,,,,,,,,,,,,,,,,,,,,,,,,,,,,,,,,,,,,,,,,,,,,,,,,,,,,,1.6796,961.2851858999929,None,None,1,961.2851858999929,None,,P037,fencog,1,Pre,2022_Apr_22_1102,N-Back (New Version 2021),2021.1.4,120.12935528181474,
,,,,Conditions/Version_1/twoback(3)_v1.xlsx,New rule: Press 'space' when you see 2-back (i.e. the same letter as the one that appeared 2 letters ago.),X,None,,,,,,,,,0,10,10,10,0,4,4,4,,,,,,,,,,,,,,,,,,,,,,,,,,,,,,,,,,,,,,,,,,,,,,,,,,,,,,,,,,,,,,,,,,,,,1.94,965.235085399996,None,None,1,965.235085399996,None,,P037,fencog,1,Pre,2022_Apr_22_1102,N-Back (New Version 2021),2021.1.4,120.12935528181474,
,,,,Conditions/Version_1/twoback(3)_v1.xlsx,New rule: Press 'space' when you see 2-back (i.e. the same letter as the one that appeared 2 letters ago.),z,space,,,,,,,,,0,10,10,10,0,5,5,5,,,,,,,,,,,,,,,,,,,,,,,,,,,,,,,,,,,,,,,,,,,,,,,,,,,,,,,,,,,,,,,,,,,,,1.3634,968.6106445000041,None,space,1,968.6106445000041,None,0.5108266999886837,P037,fencog,1,Pre,2022_Apr_22_1102,N-Back (New Version 2021),2021.1.4,120.12935528181474,
,,,,Conditions/Version_1/twoback(3)_v1.xlsx,New rule: Press 'space' when you see 2-back (i.e. the same letter as the one that appeared 2 letters ago.),x,space,,,,,,,,,0,10,10,10,0,6,6,6,,,,,,,,,,,,,,,,,,,,,,,,,,,,,,,,,,,,,,,,,,,,,,,,,,,,,,,,,,,,,,,,,,,,,1.103,971.7220922999841,None,space,1,971.7220922999841,None,0.47119050001492724,P037,fencog,1,Pre,2022_Apr_22_1102,N-Back (New Version 2021),2021.1.4,120.12935528181474,
,,,,Conditions/Version_1/twoback(3)_v1.xlsx,New rule: Press 'space' when you see 2-back (i.e. the same letter as the one that appeared 2 letters ago.),c,None,,,,,,,,,0,10,10,10,0,7,7,7,,,,,,,,,,,,,,,,,,,,,,,,,,,,,,,,,,,,,,,,,,,,,,,,,,,,,,,,,,,,,,,,,,,,,1.3386,975.0628902000026,None,None,1,975.0628902000026,None,,P037,fencog,1,Pre,2022_Apr_22_1102,N-Back (New Version 2021),2021.1.4,120.12935528181474,
,,,,Conditions/Version_1/twoback(3)_v1.xlsx,New rule: Press 'space' when you see 2-back (i.e. the same letter as the one that appeared 2 letters ago.),i,None,,,,,,,,,0,10,10,10,0,8,8,8,,,,,,,,,,,,,,,,,,,,,,,,,,,,,,,,,,,,,,,,,,,,,,,,,,,,,,,,,,,,,,,,,,,,,1.63,978.6951199999894,None,None,1,978.6951199999894,None,,P037,fencog,1,Pre,2022_Apr_22_1102,N-Back (New Version 2021),2021.1.4,120.12935528181474,
,,,,Conditions/Version_1/twoback(3)_v1.xlsx,New rule: Press 'space' when you see 2-back (i.e. the same letter as the one that appeared 2 letters ago.),C,space,,,,,,,,,0,10,10,10,0,9,9,9,,,,,,,,,,,,,,,,,,,,,,,,,,,,,,,,,,,,,,,,,,,,,,,,,,,,,,,,,,,,,,,,,,,,,1.9834,982.6829297999793,None,space,1,982.6829297999793,None,0.7104174999985844,P037,fencog,1,Pre,2022_Apr_22_1102,N-Back (New Version 2021),2021.1.4,120.12935528181474,
,,,,Conditions/Version_1/twoback(3)_v1.xlsx,New rule: Press 'space' when you see 2-back (i.e. the same letter as the one that appeared 2 letters ago.),,,,,,,,,,,0,10,10,10,,,,,,,,,,,,,,,,,,,,,,,,,,,,,,,,,,,,,,,,,,,,,,,,,,,,,,,,,,,,,,,,,,,,,,,,,,,,,,,,,P037,fencog,1,Pre,2022_Apr_22_1102,N-Back (New Version 2021),2021.1.4,120.12935528181474,
,,,,Conditions/Version_1/oneback(3)_v1.xlsx,New rule: Press 'space' when you see 1-back (i.e. the same letter as the one that appeared 1 letter ago.),o,None,,,,,,,,,0,11,11,11,0,0,0,0,,,,,,,,,,,,,,,,,,,,,,,,,,,,,,,,,,,,,,,,,,,,,,,,,,,,,,,,,,,984.7297370999877,None,987.702412499988,None,space,0.7310534999996889,987.702412499988,None,984.7297370999877,None,1.6052,990.0668842000014,None,None,1,990.0668842000014,None,,P037,fencog,1,Pre,2022_Apr_22_1102,N-Back (New Version 2021),2021.1.4,120.12935528181474,
,,,,Conditions/Version_1/oneback(3)_v1.xlsx,New rule: Press 'space' when you see 1-back (i.e. the same letter as the one that appeared 1 letter ago.),O,space,,,,,,,,,0,11,11,11,0,1,1,1,,,,,,,,,,,,,,,,,,,,,,,,,,,,,,,,,,,,,,,,,,,,,,,,,,,,,,,,,,,,,,,,,,,,,1.63,993.7004667999863,None,space,1,993.7004667999863,None,0.6449672000017017,P037,fencog,1,Pre,2022_Apr_22_1102,N-Back (New Version 2021),2021.1.4,120.12935528181474,
,,,,Conditions/Version_1/oneback(3)_v1.xlsx,New rule: Press 'space' when you see 1-back (i.e. the same letter as the one that appeared 1 letter ago.),h,None,,,,,,,,,0,11,11,11,0,2,2,2,,,,,,,,,,,,,,,,,,,,,,,,,,,,,,,,,,,,,,,,,,,,,,,,,,,,,,,,,,,,,,,,,,,,,1.909,997.6249001999968,None,None,1,997.6249001999968,None,,P037,fencog,1,Pre,2022_Apr_22_1102,N-Back (New Version 2021),2021.1.4,120.12935528181474,
,,,,Conditions/Version_1/oneback(3)_v1.xlsx,New rule: Press 'space' when you see 1-back (i.e. the same letter as the one that appeared 1 letter ago.),g,None,,,,,,,,,0,11,11,11,0,3,3,3,,,,,,,,,,,,,,,,,,,,,,,,,,,,,,,,,,,,,,,,,,,,,,,,,,,,,,,,,,,,,,,,,,,,,1.6238,1001.254944699991,None,None,1,1001.254944699991,None,,P037,fencog,1,Pre,2022_Apr_22_1102,N-Back (New Version 2021),2021.1.4,120.12935528181474,
,,,,Conditions/Version_1/oneback(3)_v1.xlsx,New rule: Press 'space' when you see 1-back (i.e. the same letter as the one that appeared 1 letter ago.),n,None,,,,,,,,,0,11,11,11,0,4,4,4,,,,,,,,,,,,,,,,,,,,,,,,,,,,,,,,,,,,,,,,,,,,,,,,,,,,,,,,,,,,,,,,,,,,,1.4688,1004.7303391000023,None,None,1,1004.7303391000023,None,,P037,fencog,1,Pre,2022_Apr_22_1102,N-Back (New Version 2021),2021.1.4,120.12935528181474,
,,,,Conditions/Version_1/oneback(3)_v1.xlsx,New rule: Press 'space' when you see 1-back (i.e. the same letter as the one that appeared 1 letter ago.),z,None,,,,,,,,,0,11,11,11,0,5,5,5,,,,,,,,,,,,,,,,,,,,,,,,,,,,,,,,,,,,,,,,,,,,,,,,,,,,,,,,,,,,,,,,,,,,,1.5804,1008.3200133999926,None,None,1,1008.3200133999926,None,,P037,fencog,1,Pre,2022_Apr_22_1102,N-Back (New Version 2021),2021.1.4,120.12935528181474,
,,,,Conditions/Version_1/oneback(3)_v1.xlsx,New rule: Press 'space' when you see 1-back (i.e. the same letter as the one that appeared 1 letter ago.),X,None,,,,,,,,,0,11,11,11,0,6,6,6,,,,,,,,,,,,,,,,,,,,,,,,,,,,,,,,,,,,,,,,,,,,,,,,,,,,,,,,,,,,,,,,,,,,,1.1836,1011.5024961000017,None,None,1,1011.5024961000017,None,,P037,fencog,1,Pre,2022_Apr_22_1102,N-Back (New Version 2021),2021.1.4,120.12935528181474,
,,,,Conditions/Version_1/oneback(3)_v1.xlsx,New rule: Press 'space' when you see 1-back (i.e. the same letter as the one that appeared 1 letter ago.),r,None,,,,,,,,,0,11,11,11,0,7,7,7,,,,,,,,,,,,,,,,,,,,,,,,,,,,,,,,,,,,,,,,,,,,,,,,,,,,,,,,,,,,,,,,,,,,,1.01,1014.5177893999789,None,None,1,1014.5177893999789,None,,P037,fencog,1,Pre,2022_Apr_22_1102,N-Back (New Version 2021),2021.1.4,120.12935528181474,
,,,,Conditions/Version_1/oneback(3)_v1.xlsx,New rule: Press 'space' when you see 1-back (i.e. the same letter as the one that appeared 1 letter ago.),r,space,,,,,,,,,0,11,11,11,0,8,8,8,,,,,,,,,,,,,,,,,,,,,,,,,,,,,,,,,,,,,,,,,,,,,,,,,,,,,,,,,,,,,,,,,,,,,1.723,1018.2415438999888,None,space,1,1018.2415438999888,None,0.7920663999975659,P037,fencog,1,Pre,2022_Apr_22_1102,N-Back (New Version 2021),2021.1.4,120.12935528181474,
,,,,Conditions/Version_1/oneback(3)_v1.xlsx,New rule: Press 'space' when you see 1-back (i.e. the same letter as the one that appeared 1 letter ago.),P,None,,,,,,,,,0,11,11,11,0,9,9,9,,,,,,,,,,,,,,,,,,,,,,,,,,,,,,,,,,,,,,,,,,,,,,,,,,,,,,,,,,,,,,,,,,,,,1.1278,1021.3773512000043,None,None,1,1021.3773512000043,None,,P037,fencog,1,Pre,2022_Apr_22_1102,N-Back (New Version 2021),2021.1.4,120.12935528181474,
,,,,Conditions/Version_1/oneback(3)_v1.xlsx,New rule: Press 'space' when you see 1-back (i.e. the same letter as the one that appeared 1 letter ago.),,,,,,,,,,,0,11,11,11,,,,,,,,,,,,,,,,,,,,,,,,,,,,,,,,,,,,,,,,,,,,,,,,,,,,,,,,,,,,,,,,,,,,,,,,,,,,,,,,,P037,fencog,1,Pre,2022_Apr_22_1102,N-Back (New Version 2021),2021.1.4,120.12935528181474,
,,,,Conditions/Version_1/twoback(4)_v1.xlsx,New rule: Press 'space' when you see 2-back (i.e. the same letter as the one that appeared 2 letters ago.),r,None,,,,,,,,,0,12,12,12,0,0,0,0,,,,,,,,,,,,,,,,,,,,,,,,,,,,,,,,,,,,,,,,,,,,,,,,,,,,,,,,,,,1023.4063306000025,None,1026.3919841999887,None,space,0.4575333999819122,1026.3919841999887,None,1023.4063306000025,None,1.0968,1028.0147651000007,None,None,1,1028.0147651000007,None,,P037,fencog,1,Pre,2022_Apr_22_1102,N-Back (New Version 2021),2021.1.4,120.12935528181474,
,,,,Conditions/Version_1/twoback(4)_v1.xlsx,New rule: Press 'space' when you see 2-back (i.e. the same letter as the one that appeared 2 letters ago.),T,None,,,,,,,,,0,12,12,12,0,1,1,1,,,,,,,,,,,,,,,,,,,,,,,,,,,,,,,,,,,,,,,,,,,,,,,,,,,,,,,,,,,,,,,,,,,,,1.9896,1032.0126424999908,None,None,1,1032.0126424999908,None,,P037,fencog,1,Pre,2022_Apr_22_1102,N-Back (New Version 2021),2021.1.4,120.12935528181474,
,,,,Conditions/Version_1/twoback(4)_v1.xlsx,New rule: Press 'space' when you see 2-back (i.e. the same letter as the one that appeared 2 letters ago.),o,None,,,,,,,,,0,12,12,12,0,2,2,2,,,,,,,,,,,,,,,,,,,,,,,,,,,,,,,,,,,,,,,,,,,,,,,,,,,,,,,,,,,,,,,,,,,,,1.3324,1035.3451976999932,None,None,1,1035.3451976999932,None,,P037,fencog,1,Pre,2022_Apr_22_1102,N-Back (New Version 2021),2021.1.4,120.12935528181474,
,,,,Conditions/Version_1/twoback(4)_v1.xlsx,New rule: Press 'space' when you see 2-back (i.e. the same letter as the one that appeared 2 letters ago.),p,None,,,,,,,,,0,12,12,12,0,3,3,3,,,,,,,,,,,,,,,,,,,,,,,,,,,,,,,,,,,,,,,,,,,,,,,,,,,,,,,,,,,,,,,,,,,,,1.4874,1038.8356264999893,None,None,1,1038.8356264999893,None,,P037,fencog,1,Pre,2022_Apr_22_1102,N-Back (New Version 2021),2021.1.4,120.12935528181474,
,,,,Conditions/Version_1/twoback(4)_v1.xlsx,New rule: Press 'space' when you see 2-back (i.e. the same letter as the one that appeared 2 letters ago.),p,None,,,,,,,,,0,12,12,12,0,4,4,4,,,,,,,,,,,,,,,,,,,,,,,,,,,,,,,,,,,,,,,,,,,,,,,,,,,,,,,,,,,,,,,,,,,,,1.1774,1042.0181516000011,None,None,1,1042.0181516000011,None,,P037,fencog,1,Pre,2022_Apr_22_1102,N-Back (New Version 2021),2021.1.4,120.12935528181474,
,,,,Conditions/Version_1/twoback(4)_v1.xlsx,New rule: Press 'space' when you see 2-back (i.e. the same letter as the one that appeared 2 letters ago.),y,None,,,,,,,,,0,12,12,12,0,5,5,5,,,,,,,,,,,,,,,,,,,,,,,,,,,,,,,,,,,,,,,,,,,,,,,,,,,,,,,,,,,,,,,,,,,,,1.9152,1045.934443599981,None,None,1,1045.934443599981,None,,P037,fencog,1,Pre,2022_Apr_22_1102,N-Back (New Version 2021),2021.1.4,120.12935528181474,
,,,,Conditions/Version_1/twoback(4)_v1.xlsx,New rule: Press 'space' when you see 2-back (i.e. the same letter as the one that appeared 2 letters ago.),P,space,,,,,,,,,0,12,12,12,0,6,6,6,,,,,,,,,,,,,,,,,,,,,,,,,,,,,,,,,,,,,,,,,,,,,,,,,,,,,,,,,,,,,,,,,,,,,1.6672,1049.615805999987,None,space,1,1049.615805999987,None,0.8816342999925837,P037,fencog,1,Pre,2022_Apr_22_1102,N-Back (New Version 2021),2021.1.4,120.12935528181474,
,,,,Conditions/Version_1/twoback(4)_v1.xlsx,New rule: Press 'space' when you see 2-back (i.e. the same letter as the one that appeared 2 letters ago.),y,None,,,,,,,,,0,12,12,12,0,7,7,7,,,,,,,,,,,,,,,,,,,,,,,,,,,,,,,,,,,,,,,,,,,,,,,,,,,,,,,,,,,,,,,,,,,,,1.6858,1053.306435299979,None,space,0,1053.306435299979,None,0.8228778000047896,P037,fencog,1,Pre,2022_Apr_22_1102,N-Back (New Version 2021),2021.1.4,120.12935528181474,
,,,,Conditions/Version_1/twoback(4)_v1.xlsx,New rule: Press 'space' when you see 2-back (i.e. the same letter as the one that appeared 2 letters ago.),y,space,,,,,,,,,0,12,12,12,0,8,8,8,,,,,,,,,,,,,,,,,,,,,,,,,,,,,,,,,,,,,,,,,,,,,,,,,,,,,,,,,,,,,,,,,,,,,1.9648,1057.2721062999917,None,None,0,1057.2721062999917,None,,P037,fencog,1,Pre,2022_Apr_22_1102,N-Back (New Version 2021),2021.1.4,120.12935528181474,
,,,,Conditions/Version_1/twoback(4)_v1.xlsx,New rule: Press 'space' when you see 2-back (i.e. the same letter as the one that appeared 2 letters ago.),,,,,,,,,,,0,12,12,12,,,,,,,,,,,,,,,,,,,,,,,,,,,,,,,,,,,,,,,,,,,,,,,,,,,,,,,,,,,,,,,,,,,,,,,,,,,,,,,,,P037,fencog,1,Pre,2022_Apr_22_1102,N-Back (New Version 2021),2021.1.4,120.12935528181474,
,,,,Conditions/Version_1/zeroback(4)_v1.xlsx,New rule: Press 'space' when you see the letter 'x' or 'X'.,o,None,,,,,,,,,0,13,13,13,0,0,0,0,,,,,,,,,,,,,,,,,,,,,,,,,,,,,,,,,,,,,,,,,,,,,,,,,,,,,,,,,,,1059.2917075000005,None,1062.2819182999956,None,space,0.39949179999530315,1062.2819182999956,None,1059.2917075000005,None,1.5122,1064.2281153999793,None,None,1,1064.2281153999793,None,,P037,fencog,1,Pre,2022_Apr_22_1102,N-Back (New Version 2021),2021.1.4,120.12935528181474,
,,,,Conditions/Version_1/zeroback(4)_v1.xlsx,New rule: Press 'space' when you see the letter 'x' or 'X'.,X,space,,,,,,,,,0,13,13,13,0,1,1,1,,,,,,,,,,,,,,,,,,,,,,,,,,,,,,,,,,,,,,,,,,,,,,,,,,,,,,,,,,,,,,,,,,,,,1.6734,1067.9064595999953,None,space,1,1067.9064595999953,None,0.4309804999793414,P037,fencog,1,Pre,2022_Apr_22_1102,N-Back (New Version 2021),2021.1.4,120.12935528181474,
,,,,Conditions/Version_1/zeroback(4)_v1.xlsx,New rule: Press 'space' when you see the letter 'x' or 'X'.,p,None,,,,,,,,,0,13,13,13,0,2,2,2,,,,,,,,,,,,,,,,,,,,,,,,,,,,,,,,,,,,,,,,,,,,,,,,,,,,,,,,,,,,,,,,,,,,,1.351,1071.2746013999858,None,None,1,1071.2746013999858,None,,P037,fencog,1,Pre,2022_Apr_22_1102,N-Back (New Version 2021),2021.1.4,120.12935528181474,
,,,,Conditions/Version_1/zeroback(4)_v1.xlsx,New rule: Press 'space' when you see the letter 'x' or 'X'.,m,None,,,,,,,,,0,13,13,13,0,3,3,3,,,,,,,,,,,,,,,,,,,,,,,,,,,,,,,,,,,,,,,,,,,,,,,,,,,,,,,,,,,,,,,,,,,,,1.7044,1074.9833205000032,None,None,1,1074.9833205000032,None,,P037,fencog,1,Pre,2022_Apr_22_1102,N-Back (New Version 2021),2021.1.4,120.12935528181474,
,,,,Conditions/Version_1/zeroback(4)_v1.xlsx,New rule: Press 'space' when you see the letter 'x' or 'X'.,n,None,,,,,,,,,0,13,13,13,0,4,4,4,,,,,,,,,,,,,,,,,,,,,,,,,,,,,,,,,,,,,,,,,,,,,,,,,,,,,,,,,,,,,,,,,,,,,1.3758,1078.3658607999969,None,None,1,1078.3658607999969,None,,P037,fencog,1,Pre,2022_Apr_22_1102,N-Back (New Version 2021),2021.1.4,120.12935528181474,
,,,,Conditions/Version_1/zeroback(4)_v1.xlsx,New rule: Press 'space' when you see the letter 'x' or 'X'.,m,None,,,,,,,,,0,13,13,13,0,5,5,5,,,,,,,,,,,,,,,,,,,,,,,,,,,,,,,,,,,,,,,,,,,,,,,,,,,,,,,,,,,,,,,,,,,,,1.7726,1082.1421802999976,None,None,1,1082.1421802999976,None,,P037,fencog,1,Pre,2022_Apr_22_1102,N-Back (New Version 2021),2021.1.4,120.12935528181474,
,,,,Conditions/Version_1/zeroback(4)_v1.xlsx,New rule: Press 'space' when you see the letter 'x' or 'X'.,C,None,,,,,,,,,0,13,13,13,0,6,6,6,,,,,,,,,,,,,,,,,,,,,,,,,,,,,,,,,,,,,,,,,,,,,,,,,,,,,,,,,,,,,,,,,,,,,1.7788,1085.931454799982,None,None,1,1085.931454799982,None,,P037,fencog,1,Pre,2022_Apr_22_1102,N-Back (New Version 2021),2021.1.4,120.12935528181474,
,,,,Conditions/Version_1/zeroback(4)_v1.xlsx,New rule: Press 'space' when you see the letter 'x' or 'X'.,m,None,,,,,,,,,0,13,13,13,0,7,7,7,,,,,,,,,,,,,,,,,,,,,,,,,,,,,,,,,,,,,,,,,,,,,,,,,,,,,,,,,,,,,,,,,,,,,1.568,1089.513461399998,None,None,1,1089.513461399998,None,,P037,fencog,1,Pre,2022_Apr_22_1102,N-Back (New Version 2021),2021.1.4,120.12935528181474,
,,,,Conditions/Version_1/zeroback(4)_v1.xlsx,New rule: Press 'space' when you see the letter 'x' or 'X'.,p,None,,,,,,,,,0,13,13,13,0,8,8,8,,,,,,,,,,,,,,,,,,,,,,,,,,,,,,,,,,,,,,,,,,,,,,,,,,,,,,,,,,,,,,,,,,,,,1.0844,1092.6140274000063,None,None,1,1092.6140274000063,None,,P037,fencog,1,Pre,2022_Apr_22_1102,N-Back (New Version 2021),2021.1.4,120.12935528181474,
,,,,Conditions/Version_1/zeroback(4)_v1.xlsx,New rule: Press 'space' when you see the letter 'x' or 'X'.,X,space,,,,,,,,,0,13,13,13,0,9,9,9,,,,,,,,,,,,,,,,,,,,,,,,,,,,,,,,,,,,,,,,,,,,,,,,,,,,,,,,,,,,,,,,,,,,,1.5246,1096.143842199992,None,None,0,1096.143842199992,None,,P037,fencog,1,Pre,2022_Apr_22_1102,N-Back (New Version 2021),2021.1.4,120.12935528181474,
,,,,Conditions/Version_1/zeroback(4)_v1.xlsx,New rule: Press 'space' when you see the letter 'x' or 'X'.,,,,,,,,,,,0,13,13,13,,,,,,,,,,,,,,,,,,,,,,,,,,,,,,,,,,,,,,,,,,,,,,,,,,,,,,,,,,,,,,,,,,,,,,,,,,,,,,,,,P037,fencog,1,Pre,2022_Apr_22_1102,N-Back (New Version 2021),2021.1.4,120.12935528181474,
,,,,Conditions/Version_1/oneback(4)_v1.xlsx,New rule: Press 'space' when you see 1-back (i.e. the same letter as the one that appeared 1 letter ago.),w,None,,,,,,,,,0,14,14,14,0,0,0,0,,,,,,,,,,,,,,,,,,,,,,,,,,,,,,,,,,,,,,,,,,,,,,,,,,,,,,,,,,,1098.1740253999887,None,1101.161423499987,None,space,0.38389709999319166,1101.161423499987,None,1098.1740253999887,None,1.4936,1103.0751276999945,None,None,1,1103.0751276999945,None,,P037,fencog,1,Pre,2022_Apr_22_1102,N-Back (New Version 2021),2021.1.4,120.12935528181474,
,,,,Conditions/Version_1/oneback(4)_v1.xlsx,New rule: Press 'space' when you see 1-back (i.e. the same letter as the one that appeared 1 letter ago.),q,None,,,,,,,,,0,14,14,14,0,1,1,1,,,,,,,,,,,,,,,,,,,,,,,,,,,,,,,,,,,,,,,,,,,,,,,,,,,,,,,,,,,,,,,,,,,,,1.3138,1106.3914375999884,None,None,1,1106.3914375999884,None,,P037,fencog,1,Pre,2022_Apr_22_1102,N-Back (New Version 2021),2021.1.4,120.12935528181474,
,,,,Conditions/Version_1/oneback(4)_v1.xlsx,New rule: Press 'space' when you see 1-back (i.e. the same letter as the one that appeared 1 letter ago.),i,None,,,,,,,,,0,14,14,14,0,2,2,2,,,,,,,,,,,,,,,,,,,,,,,,,,,,,,,,,,,,,,,,,,,,,,,,,,,,,,,,,,,,,,,,,,,,,1.475,1109.8739854999876,None,None,1,1109.8739854999876,None,,P037,fencog,1,Pre,2022_Apr_22_1102,N-Back (New Version 2021),2021.1.4,120.12935528181474,
,,,,Conditions/Version_1/oneback(4)_v1.xlsx,New rule: Press 'space' when you see 1-back (i.e. the same letter as the one that appeared 1 letter ago.),t,None,,,,,,,,,0,14,14,14,0,3,3,3,,,,,,,,,,,,,,,,,,,,,,,,,,,,,,,,,,,,,,,,,,,,,,,,,,,,,,,,,,,,,,,,,,,,,1.2456,1113.1322215999826,None,None,1,1113.1322215999826,None,,P037,fencog,1,Pre,2022_Apr_22_1102,N-Back (New Version 2021),2021.1.4,120.12935528181474,
,,,,Conditions/Version_1/oneback(4)_v1.xlsx,New rule: Press 'space' when you see 1-back (i.e. the same letter as the one that appeared 1 letter ago.),v,None,,,,,,,,,0,14,14,14,0,4,4,4,,,,,,,,,,,,,,,,,,,,,,,,,,,,,,,,,,,,,,,,,,,,,,,,,,,,,,,,,,,,,,,,,,,,,1.2394,1116.3813846999838,None,None,1,1116.3813846999838,None,,P037,fencog,1,Pre,2022_Apr_22_1102,N-Back (New Version 2021),2021.1.4,120.12935528181474,
,,,,Conditions/Version_1/oneback(4)_v1.xlsx,New rule: Press 'space' when you see 1-back (i.e. the same letter as the one that appeared 1 letter ago.),V,space,,,,,,,,,0,14,14,14,0,5,5,5,,,,,,,,,,,,,,,,,,,,,,,,,,,,,,,,,,,,,,,,,,,,,,,,,,,,,,,,,,,,,,,,,,,,,1.7974,1120.1897670000035,None,space,1,1120.1897670000035,None,0.7316534999990836,P037,fencog,1,Pre,2022_Apr_22_1102,N-Back (New Version 2021),2021.1.4,120.12935528181474,
,,,,Conditions/Version_1/oneback(4)_v1.xlsx,New rule: Press 'space' when you see 1-back (i.e. the same letter as the one that appeared 1 letter ago.),v,space,,,,,,,,,0,14,14,14,0,6,6,6,,,,,,,,,,,,,,,,,,,,,,,,,,,,,,,,,,,,,,,,,,,,,,,,,,,,,,,,,,,,,,,,,,,,,1.4502,1123.6477885000058,None,space,1,1123.6477885000058,None,0.7457203000085428,P037,fencog,1,Pre,2022_Apr_22_1102,N-Back (New Version 2021),2021.1.4,120.12935528181474,
,,,,Conditions/Version_1/oneback(4)_v1.xlsx,New rule: Press 'space' when you see 1-back (i.e. the same letter as the one that appeared 1 letter ago.),p,None,,,,,,,,,0,14,14,14,0,7,7,7,,,,,,,,,,,,,,,,,,,,,,,,,,,,,,,,,,,,,,,,,,,,,,,,,,,,,,,,,,,,,,,,,,,,,1.5122,1127.167922099994,None,None,1,1127.167922099994,None,,P037,fencog,1,Pre,2022_Apr_22_1102,N-Back (New Version 2021),2021.1.4,120.12935528181474,
,,,,Conditions/Version_1/oneback(4)_v1.xlsx,New rule: Press 'space' when you see 1-back (i.e. the same letter as the one that appeared 1 letter ago.),w,None,,,,,,,,,0,14,14,14,0,8,8,8,,,,,,,,,,,,,,,,,,,,,,,,,,,,,,,,,,,,,,,,,,,,,,,,,,,,,,,,,,,,,,,,,,,,,1.9648,1131.134282599989,None,None,1,1131.134282599989,None,,P037,fencog,1,Pre,2022_Apr_22_1102,N-Back (New Version 2021),2021.1.4,120.12935528181474,
,,,,Conditions/Version_1/oneback(4)_v1.xlsx,New rule: Press 'space' when you see 1-back (i.e. the same letter as the one that appeared 1 letter ago.),W,space,,,,,,,,,0,14,14,14,0,9,9,9,,,,,,,,,,,,,,,,,,,,,,,,,,,,,,,,,,,,,,,,,,,,,,,,,,,,,,,,,,,,,,,,,,,,,1.5742,1134.7163533999992,None,space,1,1134.7163533999992,None,0.9570645999920089,P037,fencog,1,Pre,2022_Apr_22_1102,N-Back (New Version 2021),2021.1.4,120.12935528181474,
,,,,Conditions/Version_1/oneback(4)_v1.xlsx,New rule: Press 'space' when you see 1-back (i.e. the same letter as the one that appeared 1 letter ago.),,,,,,,,,,,0,14,14,14,,,,,,,,,,,,,,,,,,,,,,,,,,,,,,,,,,,,,,,,,,,,,,,,,,,,,,,,,,,,,,,,,,,,,,,,,,,,,,,,,P037,fencog,1,Pre,2022_Apr_22_1102,N-Back (New Version 2021),2021.1.4,120.12935528181474,
,,,,Conditions/Version_1/threeback(4)_v1.xlsx,New rule: Press 'space' when you see 3-back (i.e. the same letter as the one that appeared 3 letters ago.),A,None,,,,,,,,,0,15,15,15,0,0,0,0,,,,,,,,,,,,,,,,,,,,,,,,,,,,,,,,,,,,,,,,,,,,,,,,,,,,,,,,,,,1136.7471252999967,None,1139.7327458999935,None,space,0.42877969998517074,1139.7327458999935,None,1136.7471252999967,None,1.32,1141.5136401999916,None,None,1,1141.5136401999916,None,,P037,fencog,1,Pre,2022_Apr_22_1102,N-Back (New Version 2021),2021.1.4,120.12935528181474,
,,,,Conditions/Version_1/threeback(4)_v1.xlsx,New rule: Press 'space' when you see 3-back (i.e. the same letter as the one that appeared 3 letters ago.),n,None,,,,,,,,,0,15,15,15,0,1,1,1,,,,,,,,,,,,,,,,,,,,,,,,,,,,,,,,,,,,,,,,,,,,,,,,,,,,,,,,,,,,,,,,,,,,,1.1526,1144.6729838000028,None,None,1,1144.6729838000028,None,,P037,fencog,1,Pre,2022_Apr_22_1102,N-Back (New Version 2021),2021.1.4,120.12935528181474,
,,,,Conditions/Version_1/threeback(4)_v1.xlsx,New rule: Press 'space' when you see 3-back (i.e. the same letter as the one that appeared 3 letters ago.),g,None,,,,,,,,,0,15,15,15,0,2,2,2,,,,,,,,,,,,,,,,,,,,,,,,,,,,,,,,,,,,,,,,,,,,,,,,,,,,,,,,,,,,,,,,,,,,,1.8904,1148.5729277000064,None,None,1,1148.5729277000064,None,,P037,fencog,1,Pre,2022_Apr_22_1102,N-Back (New Version 2021),2021.1.4,120.12935528181474,
,,,,Conditions/Version_1/threeback(4)_v1.xlsx,New rule: Press 'space' when you see 3-back (i.e. the same letter as the one that appeared 3 letters ago.),A,space,,,,,,,,,0,15,15,15,0,3,3,3,,,,,,,,,,,,,,,,,,,,,,,,,,,,,,,,,,,,,,,,,,,,,,,,,,,,,,,,,,,,,,,,,,,,,1.1402,1151.7190389999887,None,space,1,1151.7190389999887,None,0.9144528000033461,P037,fencog,1,Pre,2022_Apr_22_1102,N-Back (New Version 2021),2021.1.4,120.12935528181474,
,,,,Conditions/Version_1/threeback(4)_v1.xlsx,New rule: Press 'space' when you see 3-back (i.e. the same letter as the one that appeared 3 letters ago.),p,None,,,,,,,,,0,15,15,15,0,4,4,4,,,,,,,,,,,,,,,,,,,,,,,,,,,,,,,,,,,,,,,,,,,,,,,,,,,,,,,,,,,,,,,,,,,,,1.8966,1155.618899699999,None,None,1,1155.618899699999,None,,P037,fencog,1,Pre,2022_Apr_22_1102,N-Back (New Version 2021),2021.1.4,120.12935528181474,
,,,,Conditions/Version_1/threeback(4)_v1.xlsx,New rule: Press 'space' when you see 3-back (i.e. the same letter as the one that appeared 3 letters ago.),O,None,,,,,,,,,0,15,15,15,0,5,5,5,,,,,,,,,,,,,,,,,,,,,,,,,,,,,,,,,,,,,,,,,,,,,,,,,,,,,,,,,,,,,,,,,,,,,1.7416,1159.3670192999998,None,None,1,1159.3670192999998,None,,P037,fencog,1,Pre,2022_Apr_22_1102,N-Back (New Version 2021),2021.1.4,120.12935528181474,
,,,,Conditions/Version_1/threeback(4)_v1.xlsx,New rule: Press 'space' when you see 3-back (i.e. the same letter as the one that appeared 3 letters ago.),a,space,,,,,,,,,0,15,15,15,0,6,6,6,,,,,,,,,,,,,,,,,,,,,,,,,,,,,,,,,,,,,,,,,,,,,,,,,,,,,,,,,,,,,,,,,,,,,1.3262,1162.701386300003,None,space,1,1162.701386300003,None,0.795859499979997,P037,fencog,1,Pre,2022_Apr_22_1102,N-Back (New Version 2021),2021.1.4,120.12935528181474,
,,,,Conditions/Version_1/threeback(4)_v1.xlsx,New rule: Press 'space' when you see 3-back (i.e. the same letter as the one that appeared 3 letters ago.),p,space,,,,,,,,,0,15,15,15,0,7,7,7,,,,,,,,,,,,,,,,,,,,,,,,,,,,,,,,,,,,,,,,,,,,,,,,,,,,,,,,,,,,,,,,,,,,,1.7044,1166.4147092000057,None,space,1,1166.4147092000057,None,0.7065791999921203,P037,fencog,1,Pre,2022_Apr_22_1102,N-Back (New Version 2021),2021.1.4,120.12935528181474,
,,,,Conditions/Version_1/threeback(4)_v1.xlsx,New rule: Press 'space' when you see 3-back (i.e. the same letter as the one that appeared 3 letters ago.),x,None,,,,,,,,,0,15,15,15,0,8,8,8,,,,,,,,,,,,,,,,,,,,,,,,,,,,,,,,,,,,,,,,,,,,,,,,,,,,,,,,,,,,,,,,,,,,,1.3882,1169.8053295999998,None,None,1,1169.8053295999998,None,,P037,fencog,1,Pre,2022_Apr_22_1102,N-Back (New Version 2021),2021.1.4,120.12935528181474,
,,,,Conditions/Version_1/threeback(4)_v1.xlsx,New rule: Press 'space' when you see 3-back (i.e. the same letter as the one that appeared 3 letters ago.),X,None,,,,,,,,,0,15,15,15,0,9,9,9,,,,,,,,,,,,,,,,,,,,,,,,,,,,,,,,,,,,,,,,,,,,,,,,,,,,,,,,,,,,,,,,,,,,,1.7354,1173.5458908999863,None,None,1,1173.5458908999863,None,,P037,fencog,1,Pre,2022_Apr_22_1102,N-Back (New Version 2021),2021.1.4,120.12935528181474,
,,,,Conditions/Version_1/threeback(4)_v1.xlsx,New rule: Press 'space' when you see 3-back (i.e. the same letter as the one that appeared 3 letters ago.),,,,,,,,,,,0,15,15,15,,,,,,,,,,,,,,,,,,,,,,,,,,,,,,,,,,,,,,,,,,,,,,,,,,,,,,,,,,,,,,,,,,,,,,,,,,,,,,,,,P037,fencog,1,Pre,2022_Apr_22_1102,N-Back (New Version 2021),2021.1.4,120.12935528181474,
