CondFileP,InstructionsP,LettersDisplayedP,CorrectnessP,CondFile,Instructions,LettersDisplayed,Correctness,practicetrials.thisRepN,practicetrials.thisTrialN,practicetrials.thisN,practicetrials.thisIndex,InnerLoopPractice.thisRepN,InnerLoopPractice.thisTrialN,InnerLoopPractice.thisN,InnerLoopPractice.thisIndex,trials.thisRepN,trials.thisTrialN,trials.thisN,trials.thisIndex,InnerLoop.thisRepN,InnerLoop.thisTrialN,InnerLoop.thisN,InnerLoop.thisIndex,TaskVersionText.started,TaskVersionText.stopped,InstrKey1.keys,InstrKey1.rt,InstrKey1.started,InstrKey1.stopped,text.started,text.stopped,key_resp_4.keys,key_resp_4.rt,key_resp_4.started,key_resp_4.stopped,text_2.started,text_2.stopped,key_resp_3.keys,key_resp_3.rt,key_resp_3.started,key_resp_3.stopped,text_3.started,text_3.stopped,key_resp_2.keys,key_resp_2.rt,key_resp_2.started,key_resp_2.stopped,PractIn1.started,PractIn1.stopped,PractIn2.started,PractIn2.stopped,PractInstructionPass.keys,PractInstructionPass.rt,PractInstructionPass.started,PractInstructionPass.stopped,PractBlock1.started,PractBlock1.stopped,ISIjitterPractice,ISI_Pract_Fixation.started,ISI_Pract_Fixation.stopped,N_backP.started,N_backP.stopped,KeyPractice.keys,KeyPractice.corr,KeyPractice.rt,KeyPractice.started,KeyPractice.stopped,text_4.started,text_4.stopped,TransitionText.started,TransitionText.stopped,key_resp_6.keys,key_resp_6.rt,key_resp_6.started,key_resp_6.stopped,text_5.started,text_5.stopped,key_resp_5.keys,key_resp_5.rt,key_resp_5.started,key_resp_5.stopped,MainInt1.started,MainInt1.stopped,MainInt2.started,MainInt2.stopped,InstructionPass.keys,InstructionPass.rt,InstructionPass.started,InstructionPass.stopped,Blocks1.started,Blocks1.stopped,ISIjitter,N_backD.started,N_backD.stopped,key_resp.keys,key_resp.corr,key_resp.started,key_resp.stopped,key_resp.rt,participant,Study Name,Task Version (required to run),PRE/POST,date,expName,psychopyVersion,frameRate
,,,,,,,,,,,,,,,,,,,,,,,,19.8801251,None,space,14.6275532,20.3778686,None,,,,,,,,,,,,,,,,,,,,,,,,,,,,,,,,,,,,,,,,,,,,,,,,,,,,,,,,,,,,,,,,,,,,,,,P037,fencog,2,Post,2022_Apr_29_1136,N-Back (New Version 2021),2021.1.4,120.0817517
,,,,,,,,,,,,,,,,,,,,,,,,,,,,,,35.0367502,None,space,29.7933878,35.532036,None,,,,,,,,,,,,,,,,,,,,,,,,,,,,,,,,,,,,,,,,,,,,,,,,,,,,,,,,,,,,,,,,,P037,fencog,2,Post,2022_Apr_29_1136,N-Back (New Version 2021),2021.1.4,120.0817517
,,,,,,,,,,,,,,,,,,,,,,,,,,,,,,,,,,,,65.3636865,None,space,20.8608692,65.8567411,None,,,,,,,,,,,,,,,,,,,,,,,,,,,,,,,,,,,,,,,,,,,,,,,,,,,,,,,,,,,P037,fencog,2,Post,2022_Apr_29_1136,N-Back (New Version 2021),2021.1.4,120.0817517
,,,,,,,,,,,,,,,,,,,,,,,,,,,,,,,,,,,,,,,,,,86.7438252,None,space,8.0755031,87.2336492,None,,,,,,,,,,,,,,,,,,,,,,,,,,,,,,,,,,,,,,,,,,,,,,,,,,,,,P037,fencog,2,Post,2022_Apr_29_1136,N-Back (New Version 2021),2021.1.4,120.0817517
Conditions/Version_2Pr/zeroback(1)_v2.xlsx,Rule: Press 'space' when you see the letter 'x' or 'X'.,x,space,,,,,0,0,0,0,0,0,0,0,,,,,,,,,,,,,,,,,,,,,,,,,,,,,,,,,96.6862238,None,99.6718232,None,space,0.7092851,99.6718232,None,96.6862238,None,1.34,100.4133677,None,101.7548575,None,space,1,0.4102542,101.7548575,None,102.1828022,None,,,,,,,,,,,,,,,,,,,,,,,,,,,,,,,P037,fencog,2,Post,2022_Apr_29_1136,N-Back (New Version 2021),2021.1.4,120.0817517
Conditions/Version_2Pr/zeroback(1)_v2.xlsx,Rule: Press 'space' when you see the letter 'x' or 'X'.,R,None,,,,,0,0,0,0,0,1,1,1,,,,,,,,,,,,,,,,,,,,,,,,,,,,,,,,,,,,,,,,,,,1.665,103.6859152,None,105.3539589,None,None,1,,105.3539589,None,107.3597903,None,,,,,,,,,,,,,,,,,,,,,,,,,,,,,,,P037,fencog,2,Post,2022_Apr_29_1136,N-Back (New Version 2021),2021.1.4,120.0817517
Conditions/Version_2Pr/zeroback(1)_v2.xlsx,Rule: Press 'space' when you see the letter 'x' or 'X'.,p,None,,,,,0,0,0,0,0,2,2,2,,,,,,,,,,,,,,,,,,,,,,,,,,,,,,,,,,,,,,,,,,,1.415,108.8594223,None,110.2766761,None,None,1,,110.2766761,None,112.2834102,None,,,,,,,,,,,,,,,,,,,,,,,,,,,,,,,P037,fencog,2,Post,2022_Apr_29_1136,N-Back (New Version 2021),2021.1.4,120.0817517
Conditions/Version_2Pr/zeroback(1)_v2.xlsx,Rule: Press 'space' when you see the letter 'x' or 'X'.,O,None,,,,,0,0,0,0,0,3,3,3,,,,,,,,,,,,,,,,,,,,,,,,,,,,,,,,,,,,,,,,,,,1.865,113.7828845,None,115.6492725,None,None,1,,115.6492725,None,117.6485033,None,,,,,,,,,,,,,,,,,,,,,,,,,,,,,,,P037,fencog,2,Post,2022_Apr_29_1136,N-Back (New Version 2021),2021.1.4,120.0817517
Conditions/Version_2Pr/zeroback(1)_v2.xlsx,Rule: Press 'space' when you see the letter 'x' or 'X'.,i,None,,,,,0,0,0,0,0,4,4,4,,,,,,,,,,,,,,,,,,,,,,,,,,,,,,,,,,,,,,,,,,,1.24,119.1479922,None,120.3903811,None,None,1,,120.3903811,None,122.3971442,None,,,,,,,,,,,,,,,,,,,,,,,,,,,,,,,P037,fencog,2,Post,2022_Apr_29_1136,N-Back (New Version 2021),2021.1.4,120.0817517
Conditions/Version_2Pr/zeroback(1)_v2.xlsx,Rule: Press 'space' when you see the letter 'x' or 'X'.,U,None,,,,,0,0,0,0,0,5,5,5,,,,,,,,,,,,,,,,,,,,,,,,,,,,,,,,,,,,,,,,,,,1.29,123.896561,None,125.1883911,None,None,1,,125.1883911,None,127.1873284,None,,,,,,,,,,,,,,,,,,,,,,,,,,,,,,,P037,fencog,2,Post,2022_Apr_29_1136,N-Back (New Version 2021),2021.1.4,120.0817517
Conditions/Version_2Pr/zeroback(1)_v2.xlsx,Rule: Press 'space' when you see the letter 'x' or 'X'.,N,None,,,,,0,0,0,0,0,6,6,6,,,,,,,,,,,,,,,,,,,,,,,,,,,,,,,,,,,,,,,,,,,1.59,128.6868335,None,130.2800214,None,None,1,,130.2800214,None,132.2858696,None,,,,,,,,,,,,,,,,,,,,,,,,,,,,,,,P037,fencog,2,Post,2022_Apr_29_1136,N-Back (New Version 2021),2021.1.4,120.0817517
Conditions/Version_2Pr/zeroback(1)_v2.xlsx,Rule: Press 'space' when you see the letter 'x' or 'X'.,m,None,,,,,0,0,0,0,0,7,7,7,,,,,,,,,,,,,,,,,,,,,,,,,,,,,,,,,,,,,,,,,,,1.065,133.785352,None,134.852086,None,None,1,,134.852086,None,136.8510894,None,,,,,,,,,,,,,,,,,,,,,,,,,,,,,,,P037,fencog,2,Post,2022_Apr_29_1136,N-Back (New Version 2021),2021.1.4,120.0817517
Conditions/Version_2Pr/zeroback(1)_v2.xlsx,Rule: Press 'space' when you see the letter 'x' or 'X'.,x,space,,,,,0,0,0,0,0,8,8,8,,,,,,,,,,,,,,,,,,,,,,,,,,,,,,,,,,,,,,,,,,,1.64,138.3506017,None,139.9918355,None,space,1,0.2932309,139.9918355,None,140.2925165,None,,,,,,,,,,,,,,,,,,,,,,,,,,,,,,,P037,fencog,2,Post,2022_Apr_29_1136,N-Back (New Version 2021),2021.1.4,120.0817517
Conditions/Version_2Pr/zeroback(1)_v2.xlsx,Rule: Press 'space' when you see the letter 'x' or 'X'.,X,space,,,,,0,0,0,0,0,9,9,9,,,,,,,,,,,,,,,,,,,,,,,,,,,,,,,,,,,,,,,,,,,1.765,141.7913225,None,143.5576871,None,space,1,0.3673133,143.5576871,None,143.9326319,None,,,,,,,,,,,,,,,,,,,,,,,,,,,,,,,P037,fencog,2,Post,2022_Apr_29_1136,N-Back (New Version 2021),2021.1.4,120.0817517
Conditions/Version_2Pr/zeroback(1)_v2.xlsx,Rule: Press 'space' when you see the letter 'x' or 'X'.,,,,,,,0,0,0,0,,,,,,,,,,,,,,,,,,,,,,,,,,,,,,,,,,,,,,,,,,,,,,,,,,,,,,,,,,,,,,,,,,,,,,,,,,,,,,,,,,,,,,,,,P037,fencog,2,Post,2022_Apr_29_1136,N-Back (New Version 2021),2021.1.4,120.0817517
Conditions/Version_2Pr/oneback(1)_v2.xlsx,New rule: Press 'space' when you see 1-back (i.e. the same letter as the one that appeared 1 letter ago.),r,None,,,,,0,1,1,1,0,0,0,0,,,,,,,,,,,,,,,,,,,,,,,,,,,,,,,,,145.4510067,None,148.4407771,None,space,19.476424,148.4407771,None,145.4510067,None,1.64,167.9478293,None,169.5924566,None,None,1,,169.5924566,None,171.5992174,None,,,,,,,,,,,,,,,,,,,,,,,,,,,,,,,P037,fencog,2,Post,2022_Apr_29_1136,N-Back (New Version 2021),2021.1.4,120.0817517
Conditions/Version_2Pr/oneback(1)_v2.xlsx,New rule: Press 'space' when you see 1-back (i.e. the same letter as the one that appeared 1 letter ago.),t,None,,,,,0,1,1,1,0,1,1,1,,,,,,,,,,,,,,,,,,,,,,,,,,,,,,,,,,,,,,,,,,,1.615,173.0991298,None,174.7161043,None,None,1,,174.7161043,None,176.722916,None,,,,,,,,,,,,,,,,,,,,,,,,,,,,,,,P037,fencog,2,Post,2022_Apr_29_1136,N-Back (New Version 2021),2021.1.4,120.0817517
Conditions/Version_2Pr/oneback(1)_v2.xlsx,New rule: Press 'space' when you see 1-back (i.e. the same letter as the one that appeared 1 letter ago.),Y,None,,,,,0,1,1,1,0,2,2,2,,,,,,,,,,,,,,,,,,,,,,,,,,,,,,,,,,,,,,,,,,,1.815,178.2226242,None,180.0415746,None,None,1,,180.0415746,None,182.0464992,None,,,,,,,,,,,,,,,,,,,,,,,,,,,,,,,P037,fencog,2,Post,2022_Apr_29_1136,N-Back (New Version 2021),2021.1.4,120.0817517
Conditions/Version_2Pr/oneback(1)_v2.xlsx,New rule: Press 'space' when you see 1-back (i.e. the same letter as the one that appeared 1 letter ago.),y,space,,,,,0,1,1,1,0,3,3,3,,,,,,,,,,,,,,,,,,,,,,,,,,,,,,,,,,,,,,,,,,,2.015,183.5460617,None,185.5647844,None,None,0,,185.5647844,None,187.5755214,None,,,,,,,,,,,,,,,,,,,,,,,,,,,,,,,P037,fencog,2,Post,2022_Apr_29_1136,N-Back (New Version 2021),2021.1.4,120.0817517
Conditions/Version_2Pr/oneback(1)_v2.xlsx,New rule: Press 'space' when you see 1-back (i.e. the same letter as the one that appeared 1 letter ago.),p,None,,,,,0,1,1,1,0,4,4,4,,,,,,,,,,,,,,,,,,,,,,,,,,,,,,,,,,,,,,,,,,,1.865,189.0694439,None,190.9351632,None,None,1,,190.9351632,None,192.9355767,None,,,,,,,,,,,,,,,,,,,,,,,,,,,,,,,P037,fencog,2,Post,2022_Apr_29_1136,N-Back (New Version 2021),2021.1.4,120.0817517
Conditions/Version_2Pr/oneback(1)_v2.xlsx,New rule: Press 'space' when you see 1-back (i.e. the same letter as the one that appeared 1 letter ago.),P,space,,,,,0,1,1,1,0,5,5,5,,,,,,,,,,,,,,,,,,,,,,,,,,,,,,,,,,,,,,,,,,,1.24,194.442407,None,195.6854174,None,space,1,0.4396266,195.6854174,None,196.1344141,None,,,,,,,,,,,,,,,,,,,,,,,,,,,,,,,P037,fencog,2,Post,2022_Apr_29_1136,N-Back (New Version 2021),2021.1.4,120.0817517
Conditions/Version_2Pr/oneback(1)_v2.xlsx,New rule: Press 'space' when you see 1-back (i.e. the same letter as the one that appeared 1 letter ago.),e,None,,,,,0,1,1,1,0,6,6,6,,,,,,,,,,,,,,,,,,,,,,,,,,,,,,,,,,,,,,,,,,,1.365,197.6414623,None,199.0086219,None,None,1,,199.0086219,None,201.0154601,None,,,,,,,,,,,,,,,,,,,,,,,,,,,,,,,P037,fencog,2,Post,2022_Apr_29_1136,N-Back (New Version 2021),2021.1.4,120.0817517
Conditions/Version_2Pr/oneback(1)_v2.xlsx,New rule: Press 'space' when you see 1-back (i.e. the same letter as the one that appeared 1 letter ago.),r,None,,,,,0,1,1,1,0,7,7,7,,,,,,,,,,,,,,,,,,,,,,,,,,,,,,,,,,,,,,,,,,,1.065,202.5149786,None,203.581418,None,None,1,,203.581418,None,205.580819,None,,,,,,,,,,,,,,,,,,,,,,,,,,,,,,,P037,fencog,2,Post,2022_Apr_29_1136,N-Back (New Version 2021),2021.1.4,120.0817517
Conditions/Version_2Pr/oneback(1)_v2.xlsx,New rule: Press 'space' when you see 1-back (i.e. the same letter as the one that appeared 1 letter ago.),R,space,,,,,0,1,1,1,0,8,8,8,,,,,,,,,,,,,,,,,,,,,,,,,,,,,,,,,,,,,,,,,,,1.39,207.0803416,None,208.4715971,None,space,1,1.1494909,208.4715971,None,209.6300174,None,,,,,,,,,,,,,,,,,,,,,,,,,,,,,,,P037,fencog,2,Post,2022_Apr_29_1136,N-Back (New Version 2021),2021.1.4,120.0817517
Conditions/Version_2Pr/oneback(1)_v2.xlsx,New rule: Press 'space' when you see 1-back (i.e. the same letter as the one that appeared 1 letter ago.),p,None,,,,,0,1,1,1,0,9,9,9,,,,,,,,,,,,,,,,,,,,,,,,,,,,,,,,,,,,,,,,,,,1.49,211.1291451,None,212.6203806,None,None,1,,212.6203806,None,214.6197831,None,,,,,,,,,,,,,,,,,,,,,,,,,,,,,,,P037,fencog,2,Post,2022_Apr_29_1136,N-Back (New Version 2021),2021.1.4,120.0817517
Conditions/Version_2Pr/oneback(1)_v2.xlsx,New rule: Press 'space' when you see 1-back (i.e. the same letter as the one that appeared 1 letter ago.),,,,,,,0,1,1,1,,,,,,,,,,,,,,,,,,,,,,,,,,,,,,,,,,,,,,,,,,,,,,,,,,,,,,,,,,,,,,,,,,,,,,,,,,,,,,,,,,,,,,,,,P037,fencog,2,Post,2022_Apr_29_1136,N-Back (New Version 2021),2021.1.4,120.0817517
Conditions/Version_2Pr/twoback(1)_v2.xlsx,New rule: Press 'space' when you see 2-back (i.e. the same letter as the one that appeared 2 letters ago.),r,None,,,,,0,2,2,2,0,0,0,0,,,,,,,,,,,,,,,,,,,,,,,,,,,,,,,,,216.1444901,None,219.1285552,None,space,6.6605357,219.1285552,None,216.1444901,None,1.04,225.8203948,None,226.8673971,None,None,1,,226.8673971,None,228.8742949,None,,,,,,,,,,,,,,,,,,,,,,,,,,,,,,,P037,fencog,2,Post,2022_Apr_29_1136,N-Back (New Version 2021),2021.1.4,120.0817517
Conditions/Version_2Pr/twoback(1)_v2.xlsx,New rule: Press 'space' when you see 2-back (i.e. the same letter as the one that appeared 2 letters ago.),P,None,,,,,0,2,2,2,0,1,1,1,,,,,,,,,,,,,,,,,,,,,,,,,,,,,,,,,,,,,,,,,,,1.39,230.3737479,None,231.7660462,None,None,1,,231.7660462,None,233.7728861,None,,,,,,,,,,,,,,,,,,,,,,,,,,,,,,,P037,fencog,2,Post,2022_Apr_29_1136,N-Back (New Version 2021),2021.1.4,120.0817517
Conditions/Version_2Pr/twoback(1)_v2.xlsx,New rule: Press 'space' when you see 2-back (i.e. the same letter as the one that appeared 2 letters ago.),o,None,,,,,0,2,2,2,0,2,2,2,,,,,,,,,,,,,,,,,,,,,,,,,,,,,,,,,,,,,,,,,,,1.64,235.2723726,None,236.9195962,None,None,1,,236.9195962,None,238.921389,None,,,,,,,,,,,,,,,,,,,,,,,,,,,,,,,P037,fencog,2,Post,2022_Apr_29_1136,N-Back (New Version 2021),2021.1.4,120.0817517
Conditions/Version_2Pr/twoback(1)_v2.xlsx,New rule: Press 'space' when you see 2-back (i.e. the same letter as the one that appeared 2 letters ago.),p,space,,,,,0,2,2,2,0,3,3,3,,,,,,,,,,,,,,,,,,,,,,,,,,,,,,,,,,,,,,,,,,,1.49,240.4208347,None,241.9164222,None,space,1,0.4007347,241.9164222,None,242.330338,None,,,,,,,,,,,,,,,,,,,,,,,,,,,,,,,P037,fencog,2,Post,2022_Apr_29_1136,N-Back (New Version 2021),2021.1.4,120.0817517
Conditions/Version_2Pr/twoback(1)_v2.xlsx,New rule: Press 'space' when you see 2-back (i.e. the same letter as the one that appeared 2 letters ago.),Y,None,,,,,0,2,2,2,0,4,4,4,,,,,,,,,,,,,,,,,,,,,,,,,,,,,,,,,,,,,,,,,,,1.09,243.8365002,None,244.9291402,None,None,1,,244.9291402,None,246.9356637,None,,,,,,,,,,,,,,,,,,,,,,,,,,,,,,,P037,fencog,2,Post,2022_Apr_29_1136,N-Back (New Version 2021),2021.1.4,120.0817517
Conditions/Version_2Pr/twoback(1)_v2.xlsx,New rule: Press 'space' when you see 2-back (i.e. the same letter as the one that appeared 2 letters ago.),q,None,,,,,0,2,2,2,0,5,5,5,,,,,,,,,,,,,,,,,,,,,,,,,,,,,,,,,,,,,,,,,,,1.59,248.4351588,None,250.0320493,None,None,1,,250.0320493,None,252.034171,None,,,,,,,,,,,,,,,,,,,,,,,,,,,,,,,P037,fencog,2,Post,2022_Apr_29_1136,N-Back (New Version 2021),2021.1.4,120.0817517
Conditions/Version_2Pr/twoback(1)_v2.xlsx,New rule: Press 'space' when you see 2-back (i.e. the same letter as the one that appeared 2 letters ago.),m,None,,,,,0,2,2,2,0,6,6,6,,,,,,,,,,,,,,,,,,,,,,,,,,,,,,,,,,,,,,,,,,,1.19,253.5336549,None,254.7258863,None,None,1,,254.7258863,None,256.7311173,None,,,,,,,,,,,,,,,,,,,,,,,,,,,,,,,P037,fencog,2,Post,2022_Apr_29_1136,N-Back (New Version 2021),2021.1.4,120.0817517
Conditions/Version_2Pr/twoback(1)_v2.xlsx,New rule: Press 'space' when you see 2-back (i.e. the same letter as the one that appeared 2 letters ago.),Q,space,,,,,0,2,2,2,0,7,7,7,,,,,,,,,,,,,,,,,,,,,,,,,,,,,,,,,,,,,,,,,,,1.165,258.2323262,None,259.4024379,None,space,1,0.8586722,259.4024379,None,260.2746641,None,,,,,,,,,,,,,,,,,,,,,,,,,,,,,,,P037,fencog,2,Post,2022_Apr_29_1136,N-Back (New Version 2021),2021.1.4,120.0817517
Conditions/Version_2Pr/twoback(1)_v2.xlsx,New rule: Press 'space' when you see 2-back (i.e. the same letter as the one that appeared 2 letters ago.),L,None,,,,,0,2,2,2,0,8,8,8,,,,,,,,,,,,,,,,,,,,,,,,,,,,,,,,,,,,,,,,,,,1.24,261.7811845,None,263.0251383,None,None,1,,263.0251383,None,265.0298694,None,,,,,,,,,,,,,,,,,,,,,,,,,,,,,,,P037,fencog,2,Post,2022_Apr_29_1136,N-Back (New Version 2021),2021.1.4,120.0817517
Conditions/Version_2Pr/twoback(1)_v2.xlsx,New rule: Press 'space' when you see 2-back (i.e. the same letter as the one that appeared 2 letters ago.),q,space,,,,,0,2,2,2,0,9,9,9,,,,,,,,,,,,,,,,,,,,,,,,,,,,,,,,,,,,,,,,,,,1.415,266.5297313,None,267.947758,None,space,1,0.4893413,267.947758,None,268.4475117,None,,,,,,,,,,,,,,,,,,,,,,,,,,,,,,,P037,fencog,2,Post,2022_Apr_29_1136,N-Back (New Version 2021),2021.1.4,120.0817517
Conditions/Version_2Pr/twoback(1)_v2.xlsx,New rule: Press 'space' when you see 2-back (i.e. the same letter as the one that appeared 2 letters ago.),,,,,,,0,2,2,2,,,,,,,,,,,,,,,,,,,,,,,,,,,,,,,,,,,,,,,,,,,,,,,,,,,,,,,,,,,,,,,,,,,,,,,,,,,,,,,,,,,,,,,,,P037,fencog,2,Post,2022_Apr_29_1136,N-Back (New Version 2021),2021.1.4,120.0817517
Conditions/Version_2Pr/threeback(1)_v2.xlsx,New rule: Press 'space' when you see 3-back (i.e. the same letter as the one that appeared 3 letters ago.),u,None,,,,,0,3,3,3,0,0,0,0,,,,,,,,,,,,,,,,,,,,,,,,,,,,,,,,,269.9806284,None,272.9631112,None,space,2.9858705,272.9631112,None,269.9806284,None,1.915,275.9784686,None,277.8950015,None,None,1,,277.8950015,None,279.9008654,None,,,,,,,,,,,,,,,,,,,,,,,,,,,,,,,P037,fencog,2,Post,2022_Apr_29_1136,N-Back (New Version 2021),2021.1.4,120.0817517
Conditions/Version_2Pr/threeback(1)_v2.xlsx,New rule: Press 'space' when you see 3-back (i.e. the same letter as the one that appeared 3 letters ago.),U,None,,,,,0,3,3,3,0,1,1,1,,,,,,,,,,,,,,,,,,,,,,,,,,,,,,,,,,,,,,,,,,,1.99,281.4004364,None,283.3922847,None,None,1,,283.3922847,None,285.3992315,None,,,,,,,,,,,,,,,,,,,,,,,,,,,,,,,P037,fencog,2,Post,2022_Apr_29_1136,N-Back (New Version 2021),2021.1.4,120.0817517
Conditions/Version_2Pr/threeback(1)_v2.xlsx,New rule: Press 'space' when you see 3-back (i.e. the same letter as the one that appeared 3 letters ago.),p,None,,,,,0,3,3,3,0,2,2,2,,,,,,,,,,,,,,,,,,,,,,,,,,,,,,,,,,,,,,,,,,,1.79,286.8983721,None,288.69097,None,None,1,,288.69097,None,290.6976917,None,,,,,,,,,,,,,,,,,,,,,,,,,,,,,,,P037,fencog,2,Post,2022_Apr_29_1136,N-Back (New Version 2021),2021.1.4,120.0817517
Conditions/Version_2Pr/threeback(1)_v2.xlsx,New rule: Press 'space' when you see 3-back (i.e. the same letter as the one that appeared 3 letters ago.),U,space,,,,,0,3,3,3,0,3,3,3,,,,,,,,,,,,,,,,,,,,,,,,,,,,,,,,,,,,,,,,,,,1.415,292.1972224,None,293.6142776,None,space,1,0.4148382,293.6142776,None,294.0390965,None,,,,,,,,,,,,,,,,,,,,,,,,,,,,,,,P037,fencog,2,Post,2022_Apr_29_1136,N-Back (New Version 2021),2021.1.4,120.0817517
Conditions/Version_2Pr/threeback(1)_v2.xlsx,New rule: Press 'space' when you see 3-back (i.e. the same letter as the one that appeared 3 letters ago.),e,None,,,,,0,3,3,3,0,4,4,4,,,,,,,,,,,,,,,,,,,,,,,,,,,,,,,,,,,,,,,,,,,1.69,295.5462816,None,297.2386503,None,space,0,0.8464324,297.2386503,None,298.1011148,None,,,,,,,,,,,,,,,,,,,,,,,,,,,,,,,P037,fencog,2,Post,2022_Apr_29_1136,N-Back (New Version 2021),2021.1.4,120.0817517
Conditions/Version_2Pr/threeback(1)_v2.xlsx,New rule: Press 'space' when you see 3-back (i.e. the same letter as the one that appeared 3 letters ago.),R,None,,,,,0,3,3,3,0,5,5,5,,,,,,,,,,,,,,,,,,,,,,,,,,,,,,,,,,,,,,,,,,,1.365,299.6033284,None,300.9703882,None,None,1,,300.9703882,None,302.9771375,None,,,,,,,,,,,,,,,,,,,,,,,,,,,,,,,P037,fencog,2,Post,2022_Apr_29_1136,N-Back (New Version 2021),2021.1.4,120.0817517
Conditions/Version_2Pr/threeback(1)_v2.xlsx,New rule: Press 'space' when you see 3-back (i.e. the same letter as the one that appeared 3 letters ago.),p,None,,,,,0,3,3,3,0,6,6,6,,,,,,,,,,,,,,,,,,,,,,,,,,,,,,,,,,,,,,,,,,,1.465,304.4769432,None,305.9441493,None,None,1,,305.9441493,None,307.9509848,None,,,,,,,,,,,,,,,,,,,,,,,,,,,,,,,P037,fencog,2,Post,2022_Apr_29_1136,N-Back (New Version 2021),2021.1.4,120.0817517
Conditions/Version_2Pr/threeback(1)_v2.xlsx,New rule: Press 'space' when you see 3-back (i.e. the same letter as the one that appeared 3 letters ago.),E,space,,,,,0,3,3,3,0,7,7,7,,,,,,,,,,,,,,,,,,,,,,,,,,,,,,,,,,,,,,,,,,,1.965,309.4505428,None,311.4171619,None,space,1,0.4038898,311.4171619,None,311.834607,None,,,,,,,,,,,,,,,,,,,,,,,,,,,,,,,P037,fencog,2,Post,2022_Apr_29_1136,N-Back (New Version 2021),2021.1.4,120.0817517
Conditions/Version_2Pr/threeback(1)_v2.xlsx,New rule: Press 'space' when you see 3-back (i.e. the same letter as the one that appeared 3 letters ago.),k,None,,,,,0,3,3,3,0,8,8,8,,,,,,,,,,,,,,,,,,,,,,,,,,,,,,,,,,,,,,,,,,,1.615,313.3409268,None,314.9587721,None,None,1,,314.9587721,None,316.9648402,None,,,,,,,,,,,,,,,,,,,,,,,,,,,,,,,P037,fencog,2,Post,2022_Apr_29_1136,N-Back (New Version 2021),2021.1.4,120.0817517
Conditions/Version_2Pr/threeback(1)_v2.xlsx,New rule: Press 'space' when you see 3-back (i.e. the same letter as the one that appeared 3 letters ago.),m,None,,,,,0,3,3,3,0,9,9,9,,,,,,,,,,,,,,,,,,,,,,,,,,,,,,,,,,,,,,,,,,,1.565,318.4644767,None,320.0316735,None,None,1,,320.0316735,None,322.0381938,None,,,,,,,,,,,,,,,,,,,,,,,,,,,,,,,P037,fencog,2,Post,2022_Apr_29_1136,N-Back (New Version 2021),2021.1.4,120.0817517
Conditions/Version_2Pr/threeback(1)_v2.xlsx,New rule: Press 'space' when you see 3-back (i.e. the same letter as the one that appeared 3 letters ago.),,,,,,,0,3,3,3,,,,,,,,,,,,,,,,,,,,,,,,,,,,,,,,,,,,,,,,,,,,,,,,,,,,,,,,,,,,,,,,,,,,,,,,,,,,,,,,,,,,,,,,,P037,fencog,2,Post,2022_Apr_29_1136,N-Back (New Version 2021),2021.1.4,120.0817517
,,,,,,,,,,,,,,,,,,,,,,,,,,,,,,,,,,,,,,,,,,,,,,,,,,,,,,,,,,,,,,,,,,,,,,323.5462632,None,space,1.0869089,324.0380407,None,,,,,,,,,,,,,,,,,,,,,,,,,P037,fencog,2,Post,2022_Apr_29_1136,N-Back (New Version 2021),2021.1.4,120.0817517
,,,,,,,,,,,,,,,,,,,,,,,,,,,,,,,,,,,,,,,,,,,,,,,,,,,,,,,,,,,,,,,,,,,,,,,,,,,,325.1532153,None,space,2.1192006,325.6458823,None,,,,,,,,,,,,,,,,,,,P037,fencog,2,Post,2022_Apr_29_1136,N-Back (New Version 2021),2021.1.4,120.0817517
,,,,Conditions/Version_1/zeroback(1)_v1.xlsx,Rule: Press 'space' when you see the letter 'x' or 'X'.,b,None,,,,,,,,,0,0,0,0,0,0,0,0,,,,,,,,,,,,,,,,,,,,,,,,,,,,,,,,,,,,,,,,,,,,,,,,,,,,,,,,,,,327.8787666,None,330.8625327,None,space,0.4943991,330.8625327,None,327.8787666,None,1.9586,333.344901,None,None,1,333.344901,None,,P037,fencog,2,Post,2022_Apr_29_1136,N-Back (New Version 2021),2021.1.4,120.0817517
,,,,Conditions/Version_1/zeroback(1)_v1.xlsx,Rule: Press 'space' when you see the letter 'x' or 'X'.,T,None,,,,,,,,,0,0,0,0,0,1,1,1,,,,,,,,,,,,,,,,,,,,,,,,,,,,,,,,,,,,,,,,,,,,,,,,,,,,,,,,,,,,,,,,,,,,,1.2704,336.6284454,None,None,1,336.6284454,None,,P037,fencog,2,Post,2022_Apr_29_1136,N-Back (New Version 2021),2021.1.4,120.0817517
,,,,Conditions/Version_1/zeroback(1)_v1.xlsx,Rule: Press 'space' when you see the letter 'x' or 'X'.,L,None,,,,,,,,,0,0,0,0,0,2,2,2,,,,,,,,,,,,,,,,,,,,,,,,,,,,,,,,,,,,,,,,,,,,,,,,,,,,,,,,,,,,,,,,,,,,,1.7044,340.3430054,None,None,1,340.3430054,None,,P037,fencog,2,Post,2022_Apr_29_1136,N-Back (New Version 2021),2021.1.4,120.0817517
,,,,Conditions/Version_1/zeroback(1)_v1.xlsx,Rule: Press 'space' when you see the letter 'x' or 'X'.,x,space,,,,,,,,,0,0,0,0,0,3,3,3,,,,,,,,,,,,,,,,,,,,,,,,,,,,,,,,,,,,,,,,,,,,,,,,,,,,,,,,,,,,,,,,,,,,,1.3944,343.750343,None,space,1,343.750343,None,0.4067632,P037,fencog,2,Post,2022_Apr_29_1136,N-Back (New Version 2021),2021.1.4,120.0817517
,,,,Conditions/Version_1/zeroback(1)_v1.xlsx,Rule: Press 'space' when you see the letter 'x' or 'X'.,o,None,,,,,,,,,0,0,0,0,0,4,4,4,,,,,,,,,,,,,,,,,,,,,,,,,,,,,,,,,,,,,,,,,,,,,,,,,,,,,,,,,,,,,,,,,,,,,1.2394,346.9974624,None,None,1,346.9974624,None,,P037,fencog,2,Post,2022_Apr_29_1136,N-Back (New Version 2021),2021.1.4,120.0817517
,,,,Conditions/Version_1/zeroback(1)_v1.xlsx,Rule: Press 'space' when you see the letter 'x' or 'X'.,P,None,,,,,,,,,0,0,0,0,0,5,5,5,,,,,,,,,,,,,,,,,,,,,,,,,,,,,,,,,,,,,,,,,,,,,,,,,,,,,,,,,,,,,,,,,,,,,1.7354,350.7380882,None,None,1,350.7380882,None,,P037,fencog,2,Post,2022_Apr_29_1136,N-Back (New Version 2021),2021.1.4,120.0817517
,,,,Conditions/Version_1/zeroback(1)_v1.xlsx,Rule: Press 'space' when you see the letter 'x' or 'X'.,X,space,,,,,,,,,0,0,0,0,0,6,6,6,,,,,,,,,,,,,,,,,,,,,,,,,,,,,,,,,,,,,,,,,,,,,,,,,,,,,,,,,,,,,,,,,,,,,1.8346,354.5785496,None,space,1,354.5785496,None,0.3544252,P037,fencog,2,Post,2022_Apr_29_1136,N-Back (New Version 2021),2021.1.4,120.0817517
,,,,Conditions/Version_1/zeroback(1)_v1.xlsx,Rule: Press 'space' when you see the letter 'x' or 'X'.,n,None,,,,,,,,,0,0,0,0,0,7,7,7,,,,,,,,,,,,,,,,,,,,,,,,,,,,,,,,,,,,,,,,,,,,,,,,,,,,,,,,,,,,,,,,,,,,,1.1712,357.7553612,None,None,1,357.7553612,None,,P037,fencog,2,Post,2022_Apr_29_1136,N-Back (New Version 2021),2021.1.4,120.0817517
,,,,Conditions/Version_1/zeroback(1)_v1.xlsx,Rule: Press 'space' when you see the letter 'x' or 'X'.,M,None,,,,,,,,,0,0,0,0,0,8,8,8,,,,,,,,,,,,,,,,,,,,,,,,,,,,,,,,,,,,,,,,,,,,,,,,,,,,,,,,,,,,,,,,,,,,,1.9834,361.7499972,None,None,1,361.7499972,None,,P037,fencog,2,Post,2022_Apr_29_1136,N-Back (New Version 2021),2021.1.4,120.0817517
,,,,Conditions/Version_1/zeroback(1)_v1.xlsx,Rule: Press 'space' when you see the letter 'x' or 'X'.,a,None,,,,,,,,,0,0,0,0,0,9,9,9,,,,,,,,,,,,,,,,,,,,,,,,,,,,,,,,,,,,,,,,,,,,,,,,,,,,,,,,,,,,,,,,,,,,,1.1526,364.9119454,None,None,1,364.9119454,None,,P037,fencog,2,Post,2022_Apr_29_1136,N-Back (New Version 2021),2021.1.4,120.0817517
,,,,Conditions/Version_1/zeroback(1)_v1.xlsx,Rule: Press 'space' when you see the letter 'x' or 'X'.,,,,,,,,,,,0,0,0,0,,,,,,,,,,,,,,,,,,,,,,,,,,,,,,,,,,,,,,,,,,,,,,,,,,,,,,,,,,,,,,,,,,,,,,,,,,,,,,,,,P037,fencog,2,Post,2022_Apr_29_1136,N-Back (New Version 2021),2021.1.4,120.0817517
,,,,Conditions/Version_1/oneback(1)_v1.xlsx,New rule: Press 'space' when you see 1-back (i.e. the same letter as the one that appeared 1 letter ago.),b,None,,,,,,,,,0,1,1,1,0,0,0,0,,,,,,,,,,,,,,,,,,,,,,,,,,,,,,,,,,,,,,,,,,,,,,,,,,,,,,,,,,,366.9391728,None,369.9271952,None,space,1.2218447,369.9271952,None,366.9391728,None,1.6052,372.7815613,None,None,1,372.7815613,None,,P037,fencog,2,Post,2022_Apr_29_1136,N-Back (New Version 2021),2021.1.4,120.0817517
,,,,Conditions/Version_1/oneback(1)_v1.xlsx,New rule: Press 'space' when you see 1-back (i.e. the same letter as the one that appeared 1 letter ago.),p,None,,,,,,,,,0,1,1,1,0,1,1,1,,,,,,,,,,,,,,,,,,,,,,,,,,,,,,,,,,,,,,,,,,,,,,,,,,,,,,,,,,,,,,,,,,,,,1.3696,376.1566171,None,None,1,376.1566171,None,,P037,fencog,2,Post,2022_Apr_29_1136,N-Back (New Version 2021),2021.1.4,120.0817517
,,,,Conditions/Version_1/oneback(1)_v1.xlsx,New rule: Press 'space' when you see 1-back (i.e. the same letter as the one that appeared 1 letter ago.),M,None,,,,,,,,,0,1,1,1,0,2,2,2,,,,,,,,,,,,,,,,,,,,,,,,,,,,,,,,,,,,,,,,,,,,,,,,,,,,,,,,,,,,,,,,,,,,,1.5246,379.6886651,None,None,1,379.6886651,None,,P037,fencog,2,Post,2022_Apr_29_1136,N-Back (New Version 2021),2021.1.4,120.0817517
,,,,Conditions/Version_1/oneback(1)_v1.xlsx,New rule: Press 'space' when you see 1-back (i.e. the same letter as the one that appeared 1 letter ago.),M,space,,,,,,,,,0,1,1,1,0,3,3,3,,,,,,,,,,,,,,,,,,,,,,,,,,,,,,,,,,,,,,,,,,,,,,,,,,,,,,,,,,,,,,,,,,,,,1.9834,383.6783373,None,space,1,383.6783373,None,0.3826741,P037,fencog,2,Post,2022_Apr_29_1136,N-Back (New Version 2021),2021.1.4,120.0817517
,,,,Conditions/Version_1/oneback(1)_v1.xlsx,New rule: Press 'space' when you see 1-back (i.e. the same letter as the one that appeared 1 letter ago.),n,None,,,,,,,,,0,1,1,1,0,4,4,4,,,,,,,,,,,,,,,,,,,,,,,,,,,,,,,,,,,,,,,,,,,,,,,,,,,,,,,,,,,,,,,,,,,,,1.196,386.8795167,None,None,1,386.8795167,None,,P037,fencog,2,Post,2022_Apr_29_1136,N-Back (New Version 2021),2021.1.4,120.0817517
,,,,Conditions/Version_1/oneback(1)_v1.xlsx,New rule: Press 'space' when you see 1-back (i.e. the same letter as the one that appeared 1 letter ago.),g,None,,,,,,,,,0,1,1,1,0,5,5,5,,,,,,,,,,,,,,,,,,,,,,,,,,,,,,,,,,,,,,,,,,,,,,,,,,,,,,,,,,,,,,,,,,,,,1.5928,390.4864855,None,None,1,390.4864855,None,,P037,fencog,2,Post,2022_Apr_29_1136,N-Back (New Version 2021),2021.1.4,120.0817517
,,,,Conditions/Version_1/oneback(1)_v1.xlsx,New rule: Press 'space' when you see 1-back (i.e. the same letter as the one that appeared 1 letter ago.),P,None,,,,,,,,,0,1,1,1,0,6,6,6,,,,,,,,,,,,,,,,,,,,,,,,,,,,,,,,,,,,,,,,,,,,,,,,,,,,,,,,,,,,,,,,,,,,,1.6114,394.1107111,None,None,1,394.1107111,None,,P037,fencog,2,Post,2022_Apr_29_1136,N-Back (New Version 2021),2021.1.4,120.0817517
,,,,Conditions/Version_1/oneback(1)_v1.xlsx,New rule: Press 'space' when you see 1-back (i.e. the same letter as the one that appeared 1 letter ago.),o,None,,,,,,,,,0,1,1,1,0,7,7,7,,,,,,,,,,,,,,,,,,,,,,,,,,,,,,,,,,,,,,,,,,,,,,,,,,,,,,,,,,,,,,,,,,,,,1.8532,397.9747918,None,None,1,397.9747918,None,,P037,fencog,2,Post,2022_Apr_29_1136,N-Back (New Version 2021),2021.1.4,120.0817517
,,,,Conditions/Version_1/oneback(1)_v1.xlsx,New rule: Press 'space' when you see 1-back (i.e. the same letter as the one that appeared 1 letter ago.),f,None,,,,,,,,,0,1,1,1,0,8,8,8,,,,,,,,,,,,,,,,,,,,,,,,,,,,,,,,,,,,,,,,,,,,,,,,,,,,,,,,,,,,,,,,,,,,,1.5432,401.5249468,None,None,1,401.5249468,None,,P037,fencog,2,Post,2022_Apr_29_1136,N-Back (New Version 2021),2021.1.4,120.0817517
,,,,Conditions/Version_1/oneback(1)_v1.xlsx,New rule: Press 'space' when you see 1-back (i.e. the same letter as the one that appeared 1 letter ago.),F,space,,,,,,,,,0,1,1,1,0,9,9,9,,,,,,,,,,,,,,,,,,,,,,,,,,,,,,,,,,,,,,,,,,,,,,,,,,,,,,,,,,,,,,,,,,,,,1.0162,404.5486458,None,space,1,404.5486458,None,0.488124,P037,fencog,2,Post,2022_Apr_29_1136,N-Back (New Version 2021),2021.1.4,120.0817517
,,,,Conditions/Version_1/oneback(1)_v1.xlsx,New rule: Press 'space' when you see 1-back (i.e. the same letter as the one that appeared 1 letter ago.),,,,,,,,,,,0,1,1,1,,,,,,,,,,,,,,,,,,,,,,,,,,,,,,,,,,,,,,,,,,,,,,,,,,,,,,,,,,,,,,,,,,,,,,,,,,,,,,,,,P037,fencog,2,Post,2022_Apr_29_1136,N-Back (New Version 2021),2021.1.4,120.0817517
,,,,Conditions/Version_1/twoback(1)_v1.xlsx,New rule: Press 'space' when you see 2-back (i.e. the same letter as the one that appeared 2 letters ago.),b,None,,,,,,,,,0,2,2,2,0,0,0,0,,,,,,,,,,,,,,,,,,,,,,,,,,,,,,,,,,,,,,,,,,,,,,,,,,,,,,,,,,,406.5801496,None,409.5655721,None,space,0.3433365,409.5655721,None,406.5801496,None,1.3572,411.2963174,None,None,1,411.2963174,None,,P037,fencog,2,Post,2022_Apr_29_1136,N-Back (New Version 2021),2021.1.4,120.0817517
,,,,Conditions/Version_1/twoback(1)_v1.xlsx,New rule: Press 'space' when you see 2-back (i.e. the same letter as the one that appeared 2 letters ago.),h,None,,,,,,,,,0,2,2,2,0,1,1,1,,,,,,,,,,,,,,,,,,,,,,,,,,,,,,,,,,,,,,,,,,,,,,,,,,,,,,,,,,,,,,,,,,,,,1.8284,415.1375762,None,None,1,415.1375762,None,,P037,fencog,2,Post,2022_Apr_29_1136,N-Back (New Version 2021),2021.1.4,120.0817517
,,,,Conditions/Version_1/twoback(1)_v1.xlsx,New rule: Press 'space' when you see 2-back (i.e. the same letter as the one that appeared 2 letters ago.),j,None,,,,,,,,,0,2,2,2,0,2,2,2,,,,,,,,,,,,,,,,,,,,,,,,,,,,,,,,,,,,,,,,,,,,,,,,,,,,,,,,,,,,,,,,,,,,,1.6796,418.8291255,None,None,1,418.8291255,None,,P037,fencog,2,Post,2022_Apr_29_1136,N-Back (New Version 2021),2021.1.4,120.0817517
,,,,Conditions/Version_1/twoback(1)_v1.xlsx,New rule: Press 'space' when you see 2-back (i.e. the same letter as the one that appeared 2 letters ago.),H,space,,,,,,,,,0,2,2,2,0,3,3,3,,,,,,,,,,,,,,,,,,,,,,,,,,,,,,,,,,,,,,,,,,,,,,,,,,,,,,,,,,,,,,,,,,,,,1.8532,422.6936956,None,space,1,422.6936956,None,0.5832866,P037,fencog,2,Post,2022_Apr_29_1136,N-Back (New Version 2021),2021.1.4,120.0817517
,,,,Conditions/Version_1/twoback(1)_v1.xlsx,New rule: Press 'space' when you see 2-back (i.e. the same letter as the one that appeared 2 letters ago.),p,None,,,,,,,,,0,2,2,2,0,4,4,4,,,,,,,,,,,,,,,,,,,,,,,,,,,,,,,,,,,,,,,,,,,,,,,,,,,,,,,,,,,,,,,,,,,,,1.7788,426.4823179,None,None,1,426.4823179,None,,P037,fencog,2,Post,2022_Apr_29_1136,N-Back (New Version 2021),2021.1.4,120.0817517
,,,,Conditions/Version_1/twoback(1)_v1.xlsx,New rule: Press 'space' when you see 2-back (i.e. the same letter as the one that appeared 2 letters ago.),p,None,,,,,,,,,0,2,2,2,0,5,5,5,,,,,,,,,,,,,,,,,,,,,,,,,,,,,,,,,,,,,,,,,,,,,,,,,,,,,,,,,,,,,,,,,,,,,1.6052,430.089731,None,None,1,430.089731,None,,P037,fencog,2,Post,2022_Apr_29_1136,N-Back (New Version 2021),2021.1.4,120.0817517
,,,,Conditions/Version_1/twoback(1)_v1.xlsx,New rule: Press 'space' when you see 2-back (i.e. the same letter as the one that appeared 2 letters ago.),w,None,,,,,,,,,0,2,2,2,0,6,6,6,,,,,,,,,,,,,,,,,,,,,,,,,,,,,,,,,,,,,,,,,,,,,,,,,,,,,,,,,,,,,,,,,,,,,1.7354,433.8323774,None,None,1,433.8323774,None,,P037,fencog,2,Post,2022_Apr_29_1136,N-Back (New Version 2021),2021.1.4,120.0817517
,,,,Conditions/Version_1/twoback(1)_v1.xlsx,New rule: Press 'space' when you see 2-back (i.e. the same letter as the one that appeared 2 letters ago.),R,None,,,,,,,,,0,2,2,2,0,7,7,7,,,,,,,,,,,,,,,,,,,,,,,,,,,,,,,,,,,,,,,,,,,,,,,,,,,,,,,,,,,,,,,,,,,,,1.2518,437.0970209,None,None,1,437.0970209,None,,P037,fencog,2,Post,2022_Apr_29_1136,N-Back (New Version 2021),2021.1.4,120.0817517
,,,,Conditions/Version_1/twoback(1)_v1.xlsx,New rule: Press 'space' when you see 2-back (i.e. the same letter as the one that appeared 2 letters ago.),a,None,,,,,,,,,0,2,2,2,0,8,8,8,,,,,,,,,,,,,,,,,,,,,,,,,,,,,,,,,,,,,,,,,,,,,,,,,,,,,,,,,,,,,,,,,,,,,1.1588,440.26344,None,None,1,440.26344,None,,P037,fencog,2,Post,2022_Apr_29_1136,N-Back (New Version 2021),2021.1.4,120.0817517
,,,,Conditions/Version_1/twoback(1)_v1.xlsx,New rule: Press 'space' when you see 2-back (i.e. the same letter as the one that appeared 2 letters ago.),r,space,,,,,,,,,0,2,2,2,0,9,9,9,,,,,,,,,,,,,,,,,,,,,,,,,,,,,,,,,,,,,,,,,,,,,,,,,,,,,,,,,,,,,,,,,,,,,1.692,443.9604432,None,space,1,443.9604432,None,0.708666,P037,fencog,2,Post,2022_Apr_29_1136,N-Back (New Version 2021),2021.1.4,120.0817517
,,,,Conditions/Version_1/twoback(1)_v1.xlsx,New rule: Press 'space' when you see 2-back (i.e. the same letter as the one that appeared 2 letters ago.),,,,,,,,,,,0,2,2,2,,,,,,,,,,,,,,,,,,,,,,,,,,,,,,,,,,,,,,,,,,,,,,,,,,,,,,,,,,,,,,,,,,,,,,,,,,,,,,,,,P037,fencog,2,Post,2022_Apr_29_1136,N-Back (New Version 2021),2021.1.4,120.0817517
,,,,Conditions/Version_1/threeback(1)_v1.xlsx,New rule: Press 'space' when you see 3-back (i.e. the same letter as the one that appeared 3 letters ago.),r,None,,,,,,,,,0,3,3,3,0,0,0,0,,,,,,,,,,,,,,,,,,,,,,,,,,,,,,,,,,,,,,,,,,,,,,,,,,,,,,,,,,,445.9844108,None,448.96962,None,space,0.3713533,448.96962,None,445.9844108,None,1.103,450.4669061,None,None,1,450.4669061,None,,P037,fencog,2,Post,2022_Apr_29_1136,N-Back (New Version 2021),2021.1.4,120.0817517
,,,,Conditions/Version_1/threeback(1)_v1.xlsx,New rule: Press 'space' when you see 3-back (i.e. the same letter as the one that appeared 3 letters ago.),o,None,,,,,,,,,0,3,3,3,0,1,1,1,,,,,,,,,,,,,,,,,,,,,,,,,,,,,,,,,,,,,,,,,,,,,,,,,,,,,,,,,,,,,,,,,,,,,1.2208,453.6928546,None,None,1,453.6928546,None,,P037,fencog,2,Post,2022_Apr_29_1136,N-Back (New Version 2021),2021.1.4,120.0817517
,,,,Conditions/Version_1/threeback(1)_v1.xlsx,New rule: Press 'space' when you see 3-back (i.e. the same letter as the one that appeared 3 letters ago.),P,None,,,,,,,,,0,3,3,3,0,2,2,2,,,,,,,,,,,,,,,,,,,,,,,,,,,,,,,,,,,,,,,,,,,,,,,,,,,,,,,,,,,,,,,,,,,,,1.5928,457.3000465,None,None,1,457.3000465,None,,P037,fencog,2,Post,2022_Apr_29_1136,N-Back (New Version 2021),2021.1.4,120.0817517
,,,,Conditions/Version_1/threeback(1)_v1.xlsx,New rule: Press 'space' when you see 3-back (i.e. the same letter as the one that appeared 3 letters ago.),R,space,,,,,,,,,0,3,3,3,0,3,3,3,,,,,,,,,,,,,,,,,,,,,,,,,,,,,,,,,,,,,,,,,,,,,,,,,,,,,,,,,,,,,,,,,,,,,1.8408,461.1481643,None,space,1,461.1481643,None,0.376541,P037,fencog,2,Post,2022_Apr_29_1136,N-Back (New Version 2021),2021.1.4,120.0817517
,,,,Conditions/Version_1/threeback(1)_v1.xlsx,New rule: Press 'space' when you see 3-back (i.e. the same letter as the one that appeared 3 letters ago.),p,None,,,,,,,,,0,3,3,3,0,4,4,4,,,,,,,,,,,,,,,,,,,,,,,,,,,,,,,,,,,,,,,,,,,,,,,,,,,,,,,,,,,,,,,,,,,,,1.4564,464.6127869,None,None,1,464.6127869,None,,P037,fencog,2,Post,2022_Apr_29_1136,N-Back (New Version 2021),2021.1.4,120.0817517
,,,,Conditions/Version_1/threeback(1)_v1.xlsx,New rule: Press 'space' when you see 3-back (i.e. the same letter as the one that appeared 3 letters ago.),E,None,,,,,,,,,0,3,3,3,0,5,5,5,,,,,,,,,,,,,,,,,,,,,,,,,,,,,,,,,,,,,,,,,,,,,,,,,,,,,,,,,,,,,,,,,,,,,1.6362,468.2535129,None,None,1,468.2535129,None,,P037,fencog,2,Post,2022_Apr_29_1136,N-Back (New Version 2021),2021.1.4,120.0817517
,,,,Conditions/Version_1/threeback(1)_v1.xlsx,New rule: Press 'space' when you see 3-back (i.e. the same letter as the one that appeared 3 letters ago.),e,None,,,,,,,,,0,3,3,3,0,6,6,6,,,,,,,,,,,,,,,,,,,,,,,,,,,,,,,,,,,,,,,,,,,,,,,,,,,,,,,,,,,,,,,,,,,,,1.6424,471.8938224,None,None,1,471.8938224,None,,P037,fencog,2,Post,2022_Apr_29_1136,N-Back (New Version 2021),2021.1.4,120.0817517
,,,,Conditions/Version_1/threeback(1)_v1.xlsx,New rule: Press 'space' when you see 3-back (i.e. the same letter as the one that appeared 3 letters ago.),m,None,,,,,,,,,0,3,3,3,0,7,7,7,,,,,,,,,,,,,,,,,,,,,,,,,,,,,,,,,,,,,,,,,,,,,,,,,,,,,,,,,,,,,,,,,,,,,1.5246,475.4216121,None,None,1,475.4216121,None,,P037,fencog,2,Post,2022_Apr_29_1136,N-Back (New Version 2021),2021.1.4,120.0817517
,,,,Conditions/Version_1/threeback(1)_v1.xlsx,New rule: Press 'space' when you see 3-back (i.e. the same letter as the one that appeared 3 letters ago.),n,None,,,,,,,,,0,3,3,3,0,8,8,8,,,,,,,,,,,,,,,,,,,,,,,,,,,,,,,,,,,,,,,,,,,,,,,,,,,,,,,,,,,,,,,,,,,,,1.3758,478.800274,None,None,1,478.800274,None,,P037,fencog,2,Post,2022_Apr_29_1136,N-Back (New Version 2021),2021.1.4,120.0817517
,,,,Conditions/Version_1/threeback(1)_v1.xlsx,New rule: Press 'space' when you see 3-back (i.e. the same letter as the one that appeared 3 letters ago.),e,space,,,,,,,,,0,3,3,3,0,9,9,9,,,,,,,,,,,,,,,,,,,,,,,,,,,,,,,,,,,,,,,,,,,,,,,,,,,,,,,,,,,,,,,,,,,,,1.3696,482.1754326,None,space,1,482.1754326,None,0.5815032,P037,fencog,2,Post,2022_Apr_29_1136,N-Back (New Version 2021),2021.1.4,120.0817517
,,,,Conditions/Version_1/threeback(1)_v1.xlsx,New rule: Press 'space' when you see 3-back (i.e. the same letter as the one that appeared 3 letters ago.),,,,,,,,,,,0,3,3,3,,,,,,,,,,,,,,,,,,,,,,,,,,,,,,,,,,,,,,,,,,,,,,,,,,,,,,,,,,,,,,,,,,,,,,,,,,,,,,,,,P037,fencog,2,Post,2022_Apr_29_1136,N-Back (New Version 2021),2021.1.4,120.0817517
,,,,Conditions/Version_1/oneback(2)_v1.xlsx,New rule: Press 'space' when you see 1-back (i.e. the same letter as the one that appeared 1 letter ago.),q,None,,,,,,,,,0,4,4,4,0,0,0,0,,,,,,,,,,,,,,,,,,,,,,,,,,,,,,,,,,,,,,,,,,,,,,,,,,,,,,,,,,,484.202966,None,487.1919385,None,space,0.0051771,487.1919385,None,484.202966,None,1.5308,488.7732375,None,None,1,488.7732375,None,,P037,fencog,2,Post,2022_Apr_29_1136,N-Back (New Version 2021),2021.1.4,120.0817517
,,,,Conditions/Version_1/oneback(2)_v1.xlsx,New rule: Press 'space' when you see 1-back (i.e. the same letter as the one that appeared 1 letter ago.),Q,space,,,,,,,,,0,4,4,4,0,1,1,1,,,,,,,,,,,,,,,,,,,,,,,,,,,,,,,,,,,,,,,,,,,,,,,,,,,,,,,,,,,,,,,,,,,,,1.6796,492.462814,None,space,1,492.462814,None,0.3900129,P037,fencog,2,Post,2022_Apr_29_1136,N-Back (New Version 2021),2021.1.4,120.0817517
,,,,Conditions/Version_1/oneback(2)_v1.xlsx,New rule: Press 'space' when you see 1-back (i.e. the same letter as the one that appeared 1 letter ago.),P,None,,,,,,,,,0,4,4,4,0,2,2,2,,,,,,,,,,,,,,,,,,,,,,,,,,,,,,,,,,,,,,,,,,,,,,,,,,,,,,,,,,,,,,,,,,,,,1.6858,496.154439,None,None,1,496.154439,None,,P037,fencog,2,Post,2022_Apr_29_1136,N-Back (New Version 2021),2021.1.4,120.0817517
,,,,Conditions/Version_1/oneback(2)_v1.xlsx,New rule: Press 'space' when you see 1-back (i.e. the same letter as the one that appeared 1 letter ago.),o,None,,,,,,,,,0,4,4,4,0,3,3,3,,,,,,,,,,,,,,,,,,,,,,,,,,,,,,,,,,,,,,,,,,,,,,,,,,,,,,,,,,,,,,,,,,,,,1.3076,499.4690225,None,None,1,499.4690225,None,,P037,fencog,2,Post,2022_Apr_29_1136,N-Back (New Version 2021),2021.1.4,120.0817517
,,,,Conditions/Version_1/oneback(2)_v1.xlsx,New rule: Press 'space' when you see 1-back (i.e. the same letter as the one that appeared 1 letter ago.),m,None,,,,,,,,,0,4,4,4,0,4,4,4,,,,,,,,,,,,,,,,,,,,,,,,,,,,,,,,,,,,,,,,,,,,,,,,,,,,,,,,,,,,,,,,,,,,,1.2766,502.753274,None,None,1,502.753274,None,,P037,fencog,2,Post,2022_Apr_29_1136,N-Back (New Version 2021),2021.1.4,120.0817517
,,,,Conditions/Version_1/oneback(2)_v1.xlsx,New rule: Press 'space' when you see 1-back (i.e. the same letter as the one that appeared 1 letter ago.),Z,None,,,,,,,,,0,4,4,4,0,5,5,5,,,,,,,,,,,,,,,,,,,,,,,,,,,,,,,,,,,,,,,,,,,,,,,,,,,,,,,,,,,,,,,,,,,,,1.568,506.3367224,None,None,1,506.3367224,None,,P037,fencog,2,Post,2022_Apr_29_1136,N-Back (New Version 2021),2021.1.4,120.0817517
,,,,Conditions/Version_1/oneback(2)_v1.xlsx,New rule: Press 'space' when you see 1-back (i.e. the same letter as the one that appeared 1 letter ago.),c,None,,,,,,,,,0,4,4,4,0,6,6,6,,,,,,,,,,,,,,,,,,,,,,,,,,,,,,,,,,,,,,,,,,,,,,,,,,,,,,,,,,,,,,,,,,,,,1.63,509.977242,None,None,1,509.977242,None,,P037,fencog,2,Post,2022_Apr_29_1136,N-Back (New Version 2021),2021.1.4,120.0817517
,,,,Conditions/Version_1/oneback(2)_v1.xlsx,New rule: Press 'space' when you see 1-back (i.e. the same letter as the one that appeared 1 letter ago.),c,space,,,,,,,,,0,4,4,4,0,7,7,7,,,,,,,,,,,,,,,,,,,,,,,,,,,,,,,,,,,,,,,,,,,,,,,,,,,,,,,,,,,,,,,,,,,,,1.506,513.4900323,None,space,1,513.4900323,None,0.4587111,P037,fencog,2,Post,2022_Apr_29_1136,N-Back (New Version 2021),2021.1.4,120.0817517
,,,,Conditions/Version_1/oneback(2)_v1.xlsx,New rule: Press 'space' when you see 1-back (i.e. the same letter as the one that appeared 1 letter ago.),P,None,,,,,,,,,0,4,4,4,0,8,8,8,,,,,,,,,,,,,,,,,,,,,,,,,,,,,,,,,,,,,,,,,,,,,,,,,,,,,,,,,,,,,,,,,,,,,1.8098,517.3054925,None,None,1,517.3054925,None,,P037,fencog,2,Post,2022_Apr_29_1136,N-Back (New Version 2021),2021.1.4,120.0817517
,,,,Conditions/Version_1/oneback(2)_v1.xlsx,New rule: Press 'space' when you see 1-back (i.e. the same letter as the one that appeared 1 letter ago.),p,space,,,,,,,,,0,4,4,4,0,9,9,9,,,,,,,,,,,,,,,,,,,,,,,,,,,,,,,,,,,,,,,,,,,,,,,,,,,,,,,,,,,,,,,,,,,,,1.382,520.6877892,None,space,1,520.6877892,None,0.4451141,P037,fencog,2,Post,2022_Apr_29_1136,N-Back (New Version 2021),2021.1.4,120.0817517
,,,,Conditions/Version_1/oneback(2)_v1.xlsx,New rule: Press 'space' when you see 1-back (i.e. the same letter as the one that appeared 1 letter ago.),,,,,,,,,,,0,4,4,4,,,,,,,,,,,,,,,,,,,,,,,,,,,,,,,,,,,,,,,,,,,,,,,,,,,,,,,,,,,,,,,,,,,,,,,,,,,,,,,,,P037,fencog,2,Post,2022_Apr_29_1136,N-Back (New Version 2021),2021.1.4,120.0817517
,,,,Conditions/Version_1/zeroback(2)_v1.xlsx,New rule: Press 'space' when you see the letter 'x' or 'X'.,p,None,,,,,,,,,0,5,5,5,0,0,0,0,,,,,,,,,,,,,,,,,,,,,,,,,,,,,,,,,,,,,,,,,,,,,,,,,,,,,,,,,,,522.7159775,None,525.696059,None,space,0.3807117,525.696059,None,522.7159775,None,1.165,527.269352,None,None,1,527.269352,None,,P037,fencog,2,Post,2022_Apr_29_1136,N-Back (New Version 2021),2021.1.4,120.0817517
,,,,Conditions/Version_1/zeroback(2)_v1.xlsx,New rule: Press 'space' when you see the letter 'x' or 'X'.,L,None,,,,,,,,,0,5,5,5,0,1,1,1,,,,,,,,,,,,,,,,,,,,,,,,,,,,,,,,,,,,,,,,,,,,,,,,,,,,,,,,,,,,,,,,,,,,,1.4502,530.7188953,None,None,1,530.7188953,None,,P037,fencog,2,Post,2022_Apr_29_1136,N-Back (New Version 2021),2021.1.4,120.0817517
,,,,Conditions/Version_1/zeroback(2)_v1.xlsx,New rule: Press 'space' when you see the letter 'x' or 'X'.,G,None,,,,,,,,,0,5,5,5,0,2,2,2,,,,,,,,,,,,,,,,,,,,,,,,,,,,,,,,,,,,,,,,,,,,,,,,,,,,,,,,,,,,,,,,,,,,,1.8098,534.5363054,None,None,1,534.5363054,None,,P037,fencog,2,Post,2022_Apr_29_1136,N-Back (New Version 2021),2021.1.4,120.0817517
,,,,Conditions/Version_1/zeroback(2)_v1.xlsx,New rule: Press 'space' when you see the letter 'x' or 'X'.,y,None,,,,,,,,,0,5,5,5,0,3,3,3,,,,,,,,,,,,,,,,,,,,,,,,,,,,,,,,,,,,,,,,,,,,,,,,,,,,,,,,,,,,,,,,,,,,,1.7912,538.3334171,None,None,1,538.3334171,None,,P037,fencog,2,Post,2022_Apr_29_1136,N-Back (New Version 2021),2021.1.4,120.0817517
,,,,Conditions/Version_1/zeroback(2)_v1.xlsx,New rule: Press 'space' when you see the letter 'x' or 'X'.,Y,None,,,,,,,,,0,5,5,5,0,4,4,4,,,,,,,,,,,,,,,,,,,,,,,,,,,,,,,,,,,,,,,,,,,,,,,,,,,,,,,,,,,,,,,,,,,,,1.6114,541.9565264,None,None,1,541.9565264,None,,P037,fencog,2,Post,2022_Apr_29_1136,N-Back (New Version 2021),2021.1.4,120.0817517
,,,,Conditions/Version_1/zeroback(2)_v1.xlsx,New rule: Press 'space' when you see the letter 'x' or 'X'.,W,None,,,,,,,,,0,5,5,5,0,5,5,5,,,,,,,,,,,,,,,,,,,,,,,,,,,,,,,,,,,,,,,,,,,,,,,,,,,,,,,,,,,,,,,,,,,,,1.1402,545.1002391,None,None,1,545.1002391,None,,P037,fencog,2,Post,2022_Apr_29_1136,N-Back (New Version 2021),2021.1.4,120.0817517
,,,,Conditions/Version_1/zeroback(2)_v1.xlsx,New rule: Press 'space' when you see the letter 'x' or 'X'.,x,space,,,,,,,,,0,5,5,5,0,6,6,6,,,,,,,,,,,,,,,,,,,,,,,,,,,,,,,,,,,,,,,,,,,,,,,,,,,,,,,,,,,,,,,,,,,,,1.816,548.9211284,None,space,1,548.9211284,None,0.7395754,P037,fencog,2,Post,2022_Apr_29_1136,N-Back (New Version 2021),2021.1.4,120.0817517
,,,,Conditions/Version_1/zeroback(2)_v1.xlsx,New rule: Press 'space' when you see the letter 'x' or 'X'.,X,space,,,,,,,,,0,5,5,5,0,7,7,7,,,,,,,,,,,,,,,,,,,,,,,,,,,,,,,,,,,,,,,,,,,,,,,,,,,,,,,,,,,,,,,,,,,,,1.5618,552.4881272,None,space,1,552.4881272,None,0.4767132,P037,fencog,2,Post,2022_Apr_29_1136,N-Back (New Version 2021),2021.1.4,120.0817517
,,,,Conditions/Version_1/zeroback(2)_v1.xlsx,New rule: Press 'space' when you see the letter 'x' or 'X'.,p,None,,,,,,,,,0,5,5,5,0,8,8,8,,,,,,,,,,,,,,,,,,,,,,,,,,,,,,,,,,,,,,,,,,,,,,,,,,,,,,,,,,,,,,,,,,,,,1.3634,555.8620775,None,None,1,555.8620775,None,,P037,fencog,2,Post,2022_Apr_29_1136,N-Back (New Version 2021),2021.1.4,120.0817517
,,,,Conditions/Version_1/zeroback(2)_v1.xlsx,New rule: Press 'space' when you see the letter 'x' or 'X'.,h,None,,,,,,,,,0,5,5,5,0,9,9,9,,,,,,,,,,,,,,,,,,,,,,,,,,,,,,,,,,,,,,,,,,,,,,,,,,,,,,,,,,,,,,,,,,,,,1.6486,559.5180674,None,None,1,559.5180674,None,,P037,fencog,2,Post,2022_Apr_29_1136,N-Back (New Version 2021),2021.1.4,120.0817517
,,,,Conditions/Version_1/zeroback(2)_v1.xlsx,New rule: Press 'space' when you see the letter 'x' or 'X'.,,,,,,,,,,,0,5,5,5,,,,,,,,,,,,,,,,,,,,,,,,,,,,,,,,,,,,,,,,,,,,,,,,,,,,,,,,,,,,,,,,,,,,,,,,,,,,,,,,,P037,fencog,2,Post,2022_Apr_29_1136,N-Back (New Version 2021),2021.1.4,120.0817517
,,,,Conditions/Version_1/threeback(2)_v1.xlsx,New rule: Press 'space' when you see 3-back (i.e. the same letter as the one that appeared 3 letters ago.),q,None,,,,,,,,,0,6,6,6,0,0,0,0,,,,,,,,,,,,,,,,,,,,,,,,,,,,,,,,,,,,,,,,,,,,,,,,,,,,,,,,,,,561.5425238,None,564.527101,None,space,11.4538949,564.527101,None,561.5425238,None,1.4378,577.4376328,None,None,1,577.4376328,None,,P037,fencog,2,Post,2022_Apr_29_1136,N-Back (New Version 2021),2021.1.4,120.0817517
,,,,Conditions/Version_1/threeback(2)_v1.xlsx,New rule: Press 'space' when you see 3-back (i.e. the same letter as the one that appeared 3 letters ago.),Y,None,,,,,,,,,0,6,6,6,0,1,1,1,,,,,,,,,,,,,,,,,,,,,,,,,,,,,,,,,,,,,,,,,,,,,,,,,,,,,,,,,,,,,,,,,,,,,1.289,580.7292214,None,None,1,580.7292214,None,,P037,fencog,2,Post,2022_Apr_29_1136,N-Back (New Version 2021),2021.1.4,120.0817517
,,,,Conditions/Version_1/threeback(2)_v1.xlsx,New rule: Press 'space' when you see 3-back (i.e. the same letter as the one that appeared 3 letters ago.),p,None,,,,,,,,,0,6,6,6,0,2,2,2,,,,,,,,,,,,,,,,,,,,,,,,,,,,,,,,,,,,,,,,,,,,,,,,,,,,,,,,,,,,,,,,,,,,,1.4192,584.1627308,None,None,1,584.1627308,None,,P037,fencog,2,Post,2022_Apr_29_1136,N-Back (New Version 2021),2021.1.4,120.0817517
,,,,Conditions/Version_1/threeback(2)_v1.xlsx,New rule: Press 'space' when you see 3-back (i.e. the same letter as the one that appeared 3 letters ago.),p,None,,,,,,,,,0,6,6,6,0,3,3,3,,,,,,,,,,,,,,,,,,,,,,,,,,,,,,,,,,,,,,,,,,,,,,,,,,,,,,,,,,,,,,,,,,,,,1.4006,587.5682148,None,None,1,587.5682148,None,,P037,fencog,2,Post,2022_Apr_29_1136,N-Back (New Version 2021),2021.1.4,120.0817517
,,,,Conditions/Version_1/threeback(2)_v1.xlsx,New rule: Press 'space' when you see 3-back (i.e. the same letter as the one that appeared 3 letters ago.),y,space,,,,,,,,,0,6,6,6,0,4,4,4,,,,,,,,,,,,,,,,,,,,,,,,,,,,,,,,,,,,,,,,,,,,,,,,,,,,,,,,,,,,,,,,,,,,,1.878,591.4503419,None,space,1,591.4503419,None,0.9385251,P037,fencog,2,Post,2022_Apr_29_1136,N-Back (New Version 2021),2021.1.4,120.0817517
,,,,Conditions/Version_1/threeback(2)_v1.xlsx,New rule: Press 'space' when you see 3-back (i.e. the same letter as the one that appeared 3 letters ago.),u,None,,,,,,,,,0,6,6,6,0,5,5,5,,,,,,,,,,,,,,,,,,,,,,,,,,,,,,,,,,,,,,,,,,,,,,,,,,,,,,,,,,,,,,,,,,,,,1.1464,594.6021255,None,None,1,594.6021255,None,,P037,fencog,2,Post,2022_Apr_29_1136,N-Back (New Version 2021),2021.1.4,120.0817517
,,,,Conditions/Version_1/threeback(2)_v1.xlsx,New rule: Press 'space' when you see 3-back (i.e. the same letter as the one that appeared 3 letters ago.),P,space,,,,,,,,,0,6,6,6,0,6,6,6,,,,,,,,,,,,,,,,,,,,,,,,,,,,,,,,,,,,,,,,,,,,,,,,,,,,,,,,,,,,,,,,,,,,,1.9648,598.5730999,None,space,1,598.5730999,None,0.9035478,P037,fencog,2,Post,2022_Apr_29_1136,N-Back (New Version 2021),2021.1.4,120.0817517
,,,,Conditions/Version_1/threeback(2)_v1.xlsx,New rule: Press 'space' when you see 3-back (i.e. the same letter as the one that appeared 3 letters ago.),a,None,,,,,,,,,0,6,6,6,0,7,7,7,,,,,,,,,,,,,,,,,,,,,,,,,,,,,,,,,,,,,,,,,,,,,,,,,,,,,,,,,,,,,,,,,,,,,1.351,601.9315767,None,None,1,601.9315767,None,,P037,fencog,2,Post,2022_Apr_29_1136,N-Back (New Version 2021),2021.1.4,120.0817517
,,,,Conditions/Version_1/threeback(2)_v1.xlsx,New rule: Press 'space' when you see 3-back (i.e. the same letter as the one that appeared 3 letters ago.),U,space,,,,,,,,,0,6,6,6,0,8,8,8,,,,,,,,,,,,,,,,,,,,,,,,,,,,,,,,,,,,,,,,,,,,,,,,,,,,,,,,,,,,,,,,,,,,,1.32,605.2639429,None,None,0,605.2639429,None,,P037,fencog,2,Post,2022_Apr_29_1136,N-Back (New Version 2021),2021.1.4,120.0817517
,,,,Conditions/Version_1/threeback(2)_v1.xlsx,New rule: Press 'space' when you see 3-back (i.e. the same letter as the one that appeared 3 letters ago.),q,None,,,,,,,,,0,6,6,6,0,9,9,9,,,,,,,,,,,,,,,,,,,,,,,,,,,,,,,,,,,,,,,,,,,,,,,,,,,,,,,,,,,,,,,,,,,,,1.847,609.12356,None,None,1,609.12356,None,,P037,fencog,2,Post,2022_Apr_29_1136,N-Back (New Version 2021),2021.1.4,120.0817517
,,,,Conditions/Version_1/threeback(2)_v1.xlsx,New rule: Press 'space' when you see 3-back (i.e. the same letter as the one that appeared 3 letters ago.),,,,,,,,,,,0,6,6,6,,,,,,,,,,,,,,,,,,,,,,,,,,,,,,,,,,,,,,,,,,,,,,,,,,,,,,,,,,,,,,,,,,,,,,,,,,,,,,,,,P037,fencog,2,Post,2022_Apr_29_1136,N-Back (New Version 2021),2021.1.4,120.0817517
,,,,Conditions/Version_1/twoback(2)_v1.xlsx,New rule: Press 'space' when you see 2-back (i.e. the same letter as the one that appeared 2 letters ago.),q,None,,,,,,,,,0,7,7,7,0,0,0,0,,,,,,,,,,,,,,,,,,,,,,,,,,,,,,,,,,,,,,,,,,,,,,,,,,,,,,,,,,,611.1480268,None,614.1289353,None,space,0.3798438,614.1289353,None,611.1480268,None,1.1154,615.6513993,None,None,1,615.6513993,None,,P037,fencog,2,Post,2022_Apr_29_1136,N-Back (New Version 2021),2021.1.4,120.0817517
,,,,Conditions/Version_1/twoback(2)_v1.xlsx,New rule: Press 'space' when you see 2-back (i.e. the same letter as the one that appeared 2 letters ago.),r,None,,,,,,,,,0,7,7,7,0,1,1,1,,,,,,,,,,,,,,,,,,,,,,,,,,,,,,,,,,,,,,,,,,,,,,,,,,,,,,,,,,,,,,,,,,,,,1.7354,619.3919029,None,None,1,619.3919029,None,,P037,fencog,2,Post,2022_Apr_29_1136,N-Back (New Version 2021),2021.1.4,120.0817517
,,,,Conditions/Version_1/twoback(2)_v1.xlsx,New rule: Press 'space' when you see 2-back (i.e. the same letter as the one that appeared 2 letters ago.),q,space,,,,,,,,,0,7,7,7,0,2,2,2,,,,,,,,,,,,,,,,,,,,,,,,,,,,,,,,,,,,,,,,,,,,,,,,,,,,,,,,,,,,,,,,,,,,,1.9338,623.3350291,None,space,1,623.3350291,None,0.7095572,P037,fencog,2,Post,2022_Apr_29_1136,N-Back (New Version 2021),2021.1.4,120.0817517
,,,,Conditions/Version_1/twoback(2)_v1.xlsx,New rule: Press 'space' when you see 2-back (i.e. the same letter as the one that appeared 2 letters ago.),P,None,,,,,,,,,0,7,7,7,0,3,3,3,,,,,,,,,,,,,,,,,,,,,,,,,,,,,,,,,,,,,,,,,,,,,,,,,,,,,,,,,,,,,,,,,,,,,1.7664,627.1064685,None,None,1,627.1064685,None,,P037,fencog,2,Post,2022_Apr_29_1136,N-Back (New Version 2021),2021.1.4,120.0817517
,,,,Conditions/Version_1/twoback(2)_v1.xlsx,New rule: Press 'space' when you see 2-back (i.e. the same letter as the one that appeared 2 letters ago.),p,None,,,,,,,,,0,7,7,7,0,4,4,4,,,,,,,,,,,,,,,,,,,,,,,,,,,,,,,,,,,,,,,,,,,,,,,,,,,,,,,,,,,,,,,,,,,,,1.7912,630.8988226,None,None,1,630.8988226,None,,P037,fencog,2,Post,2022_Apr_29_1136,N-Back (New Version 2021),2021.1.4,120.0817517
,,,,Conditions/Version_1/twoback(2)_v1.xlsx,New rule: Press 'space' when you see 2-back (i.e. the same letter as the one that appeared 2 letters ago.),H,None,,,,,,,,,0,7,7,7,0,5,5,5,,,,,,,,,,,,,,,,,,,,,,,,,,,,,,,,,,,,,,,,,,,,,,,,,,,,,,,,,,,,,,,,,,,,,1.1464,634.0555305,None,None,1,634.0555305,None,,P037,fencog,2,Post,2022_Apr_29_1136,N-Back (New Version 2021),2021.1.4,120.0817517
,,,,Conditions/Version_1/twoback(2)_v1.xlsx,New rule: Press 'space' when you see 2-back (i.e. the same letter as the one that appeared 2 letters ago.),g,None,,,,,,,,,0,7,7,7,0,6,6,6,,,,,,,,,,,,,,,,,,,,,,,,,,,,,,,,,,,,,,,,,,,,,,,,,,,,,,,,,,,,,,,,,,,,,1.5494,637.6115989,None,None,1,637.6115989,None,,P037,fencog,2,Post,2022_Apr_29_1136,N-Back (New Version 2021),2021.1.4,120.0817517
,,,,Conditions/Version_1/twoback(2)_v1.xlsx,New rule: Press 'space' when you see 2-back (i.e. the same letter as the one that appeared 2 letters ago.),j,None,,,,,,,,,0,7,7,7,0,7,7,7,,,,,,,,,,,,,,,,,,,,,,,,,,,,,,,,,,,,,,,,,,,,,,,,,,,,,,,,,,,,,,,,,,,,,1.6052,641.2207644,None,None,1,641.2207644,None,,P037,fencog,2,Post,2022_Apr_29_1136,N-Back (New Version 2021),2021.1.4,120.0817517
,,,,Conditions/Version_1/twoback(2)_v1.xlsx,New rule: Press 'space' when you see 2-back (i.e. the same letter as the one that appeared 2 letters ago.),g,space,,,,,,,,,0,7,7,7,0,8,8,8,,,,,,,,,,,,,,,,,,,,,,,,,,,,,,,,,,,,,,,,,,,,,,,,,,,,,,,,,,,,,,,,,,,,,1.7292,644.9615228,None,space,1,644.9615228,None,0.483261,P037,fencog,2,Post,2022_Apr_29_1136,N-Back (New Version 2021),2021.1.4,120.0817517
,,,,Conditions/Version_1/twoback(2)_v1.xlsx,New rule: Press 'space' when you see 2-back (i.e. the same letter as the one that appeared 2 letters ago.),G,None,,,,,,,,,0,7,7,7,0,9,9,9,,,,,,,,,,,,,,,,,,,,,,,,,,,,,,,,,,,,,,,,,,,,,,,,,,,,,,,,,,,,,,,,,,,,,1.6362,648.6087633,None,None,1,648.6087633,None,,P037,fencog,2,Post,2022_Apr_29_1136,N-Back (New Version 2021),2021.1.4,120.0817517
,,,,Conditions/Version_1/twoback(2)_v1.xlsx,New rule: Press 'space' when you see 2-back (i.e. the same letter as the one that appeared 2 letters ago.),,,,,,,,,,,0,7,7,7,,,,,,,,,,,,,,,,,,,,,,,,,,,,,,,,,,,,,,,,,,,,,,,,,,,,,,,,,,,,,,,,,,,,,,,,,,,,,,,,,P037,fencog,2,Post,2022_Apr_29_1136,N-Back (New Version 2021),2021.1.4,120.0817517
,,,,Conditions/Version_1/threeback(3)_v1.xlsx,New rule: Press 'space' when you see 3-back (i.e. the same letter as the one that appeared 3 letters ago.),w,None,,,,,,,,,0,8,8,8,0,0,0,0,,,,,,,,,,,,,,,,,,,,,,,,,,,,,,,,,,,,,,,,,,,,,,,,,,,,,,,,,,,650.6331093,None,653.6090342,None,space,0.3957151,653.6090342,None,650.6331093,None,1.0596,655.0916696,None,None,1,655.0916696,None,,P037,fencog,2,Post,2022_Apr_29_1136,N-Back (New Version 2021),2021.1.4,120.0817517
,,,,Conditions/Version_1/threeback(3)_v1.xlsx,New rule: Press 'space' when you see 3-back (i.e. the same letter as the one that appeared 3 letters ago.),p,None,,,,,,,,,0,8,8,8,0,1,1,1,,,,,,,,,,,,,,,,,,,,,,,,,,,,,,,,,,,,,,,,,,,,,,,,,,,,,,,,,,,,,,,,,,,,,1.3634,658.4638596,None,None,1,658.4638596,None,,P037,fencog,2,Post,2022_Apr_29_1136,N-Back (New Version 2021),2021.1.4,120.0817517
,,,,Conditions/Version_1/threeback(3)_v1.xlsx,New rule: Press 'space' when you see 3-back (i.e. the same letter as the one that appeared 3 letters ago.),P,None,,,,,,,,,0,8,8,8,0,2,2,2,,,,,,,,,,,,,,,,,,,,,,,,,,,,,,,,,,,,,,,,,,,,,,,,,,,,,,,,,,,,,,,,,,,,,1.9524,662.4208297,None,None,1,662.4208297,None,,P037,fencog,2,Post,2022_Apr_29_1136,N-Back (New Version 2021),2021.1.4,120.0817517
,,,,Conditions/Version_1/threeback(3)_v1.xlsx,New rule: Press 'space' when you see 3-back (i.e. the same letter as the one that appeared 3 letters ago.),i,None,,,,,,,,,0,8,8,8,0,3,3,3,,,,,,,,,,,,,,,,,,,,,,,,,,,,,,,,,,,,,,,,,,,,,,,,,,,,,,,,,,,,,,,,,,,,,1.227,665.6556485,None,None,1,665.6556485,None,,P037,fencog,2,Post,2022_Apr_29_1136,N-Back (New Version 2021),2021.1.4,120.0817517
,,,,Conditions/Version_1/threeback(3)_v1.xlsx,New rule: Press 'space' when you see 3-back (i.e. the same letter as the one that appeared 3 letters ago.),f,None,,,,,,,,,0,8,8,8,0,4,4,4,,,,,,,,,,,,,,,,,,,,,,,,,,,,,,,,,,,,,,,,,,,,,,,,,,,,,,,,,,,,,,,,,,,,,1.8842,669.5521083,None,None,1,669.5521083,None,,P037,fencog,2,Post,2022_Apr_29_1136,N-Back (New Version 2021),2021.1.4,120.0817517
,,,,Conditions/Version_1/threeback(3)_v1.xlsx,New rule: Press 'space' when you see 3-back (i.e. the same letter as the one that appeared 3 letters ago.),o,None,,,,,,,,,0,8,8,8,0,5,5,5,,,,,,,,,,,,,,,,,,,,,,,,,,,,,,,,,,,,,,,,,,,,,,,,,,,,,,,,,,,,,,,,,,,,,1.3386,672.8927408,None,None,1,672.8927408,None,,P037,fencog,2,Post,2022_Apr_29_1136,N-Back (New Version 2021),2021.1.4,120.0817517
,,,,Conditions/Version_1/threeback(3)_v1.xlsx,New rule: Press 'space' when you see 3-back (i.e. the same letter as the one that appeared 3 letters ago.),w,None,,,,,,,,,0,8,8,8,0,6,6,6,,,,,,,,,,,,,,,,,,,,,,,,,,,,,,,,,,,,,,,,,,,,,,,,,,,,,,,,,,,,,,,,,,,,,1.4254,676.3183162,None,None,1,676.3183162,None,,P037,fencog,2,Post,2022_Apr_29_1136,N-Back (New Version 2021),2021.1.4,120.0817517
,,,,Conditions/Version_1/threeback(3)_v1.xlsx,New rule: Press 'space' when you see 3-back (i.e. the same letter as the one that appeared 3 letters ago.),F,space,,,,,,,,,0,8,8,8,0,7,7,7,,,,,,,,,,,,,,,,,,,,,,,,,,,,,,,,,,,,,,,,,,,,,,,,,,,,,,,,,,,,,,,,,,,,,1.0782,679.4075067,None,space,1,679.4075067,None,0.8290338,P037,fencog,2,Post,2022_Apr_29_1136,N-Back (New Version 2021),2021.1.4,120.0817517
,,,,Conditions/Version_1/threeback(3)_v1.xlsx,New rule: Press 'space' when you see 3-back (i.e. the same letter as the one that appeared 3 letters ago.),p,None,,,,,,,,,0,8,8,8,0,8,8,8,,,,,,,,,,,,,,,,,,,,,,,,,,,,,,,,,,,,,,,,,,,,,,,,,,,,,,,,,,,,,,,,,,,,,1.4378,682.8488429,None,None,1,682.8488429,None,,P037,fencog,2,Post,2022_Apr_29_1136,N-Back (New Version 2021),2021.1.4,120.0817517
,,,,Conditions/Version_1/threeback(3)_v1.xlsx,New rule: Press 'space' when you see 3-back (i.e. the same letter as the one that appeared 3 letters ago.),W,space,,,,,,,,,0,8,8,8,0,9,9,9,,,,,,,,,,,,,,,,,,,,,,,,,,,,,,,,,,,,,,,,,,,,,,,,,,,,,,,,,,,,,,,,,,,,,1.7354,686.5916264,None,space,1,686.5916264,None,1.5811205,P037,fencog,2,Post,2022_Apr_29_1136,N-Back (New Version 2021),2021.1.4,120.0817517
,,,,Conditions/Version_1/threeback(3)_v1.xlsx,New rule: Press 'space' when you see 3-back (i.e. the same letter as the one that appeared 3 letters ago.),,,,,,,,,,,0,8,8,8,,,,,,,,,,,,,,,,,,,,,,,,,,,,,,,,,,,,,,,,,,,,,,,,,,,,,,,,,,,,,,,,,,,,,,,,,,,,,,,,,P037,fencog,2,Post,2022_Apr_29_1136,N-Back (New Version 2021),2021.1.4,120.0817517
,,,,Conditions/Version_1/zeroback(3)_v1.xlsx,New rule: Press 'space' when you see the letter 'x' or 'X'.,X,space,,,,,,,,,0,9,9,9,0,0,0,0,,,,,,,,,,,,,,,,,,,,,,,,,,,,,,,,,,,,,,,,,,,,,,,,,,,,,,,,,,,688.6121826,None,691.5977347,None,space,0.3987694,691.5977347,None,688.6121826,None,1.1898,693.2135285,None,space,1,693.2135285,None,1.151192,P037,fencog,2,Post,2022_Apr_29_1136,N-Back (New Version 2021),2021.1.4,120.0817517
,,,,Conditions/Version_1/zeroback(3)_v1.xlsx,New rule: Press 'space' when you see the letter 'x' or 'X'.,B,None,,,,,,,,,0,9,9,9,0,1,1,1,,,,,,,,,,,,,,,,,,,,,,,,,,,,,,,,,,,,,,,,,,,,,,,,,,,,,,,,,,,,,,,,,,,,,1.475,696.6956428,None,None,1,696.6956428,None,,P037,fencog,2,Post,2022_Apr_29_1136,N-Back (New Version 2021),2021.1.4,120.0817517
,,,,Conditions/Version_1/zeroback(3)_v1.xlsx,New rule: Press 'space' when you see the letter 'x' or 'X'.,m,None,,,,,,,,,0,9,9,9,0,2,2,2,,,,,,,,,,,,,,,,,,,,,,,,,,,,,,,,,,,,,,,,,,,,,,,,,,,,,,,,,,,,,,,,,,,,,1.816,700.5179404,None,None,1,700.5179404,None,,P037,fencog,2,Post,2022_Apr_29_1136,N-Back (New Version 2021),2021.1.4,120.0817517
,,,,Conditions/Version_1/zeroback(3)_v1.xlsx,New rule: Press 'space' when you see the letter 'x' or 'X'.,m,None,,,,,,,,,0,9,9,9,0,3,3,3,,,,,,,,,,,,,,,,,,,,,,,,,,,,,,,,,,,,,,,,,,,,,,,,,,,,,,,,,,,,,,,,,,,,,1.9338,704.4586693,None,None,1,704.4586693,None,,P037,fencog,2,Post,2022_Apr_29_1136,N-Back (New Version 2021),2021.1.4,120.0817517
,,,,Conditions/Version_1/zeroback(3)_v1.xlsx,New rule: Press 'space' when you see the letter 'x' or 'X'.,o,None,,,,,,,,,0,9,9,9,0,4,4,4,,,,,,,,,,,,,,,,,,,,,,,,,,,,,,,,,,,,,,,,,,,,,,,,,,,,,,,,,,,,,,,,,,,,,1.8036,708.2656585,None,None,1,708.2656585,None,,P037,fencog,2,Post,2022_Apr_29_1136,N-Back (New Version 2021),2021.1.4,120.0817517
,,,,Conditions/Version_1/zeroback(3)_v1.xlsx,New rule: Press 'space' when you see the letter 'x' or 'X'.,p,None,,,,,,,,,0,9,9,9,0,5,5,5,,,,,,,,,,,,,,,,,,,,,,,,,,,,,,,,,,,,,,,,,,,,,,,,,,,,,,,,,,,,,,,,,,,,,1.7416,712.0062266,None,None,1,712.0062266,None,,P037,fencog,2,Post,2022_Apr_29_1136,N-Back (New Version 2021),2021.1.4,120.0817517
,,,,Conditions/Version_1/zeroback(3)_v1.xlsx,New rule: Press 'space' when you see the letter 'x' or 'X'.,G,None,,,,,,,,,0,9,9,9,0,6,6,6,,,,,,,,,,,,,,,,,,,,,,,,,,,,,,,,,,,,,,,,,,,,,,,,,,,,,,,,,,,,,,,,,,,,,1.4006,715.4051853,None,None,1,715.4051853,None,,P037,fencog,2,Post,2022_Apr_29_1136,N-Back (New Version 2021),2021.1.4,120.0817517
,,,,Conditions/Version_1/zeroback(3)_v1.xlsx,New rule: Press 'space' when you see the letter 'x' or 'X'.,X,space,,,,,,,,,0,9,9,9,0,7,7,7,,,,,,,,,,,,,,,,,,,,,,,,,,,,,,,,,,,,,,,,,,,,,,,,,,,,,,,,,,,,,,,,,,,,,1.4812,718.8875208,None,space,1,718.8875208,None,0.4209633,P037,fencog,2,Post,2022_Apr_29_1136,N-Back (New Version 2021),2021.1.4,120.0817517
,,,,Conditions/Version_1/zeroback(3)_v1.xlsx,New rule: Press 'space' when you see the letter 'x' or 'X'.,p,None,,,,,,,,,0,9,9,9,0,8,8,8,,,,,,,,,,,,,,,,,,,,,,,,,,,,,,,,,,,,,,,,,,,,,,,,,,,,,,,,,,,,,,,,,,,,,1.2332,722.1209131,None,None,1,722.1209131,None,,P037,fencog,2,Post,2022_Apr_29_1136,N-Back (New Version 2021),2021.1.4,120.0817517
,,,,Conditions/Version_1/zeroback(3)_v1.xlsx,New rule: Press 'space' when you see the letter 'x' or 'X'.,x,space,,,,,,,,,0,9,9,9,0,9,9,9,,,,,,,,,,,,,,,,,,,,,,,,,,,,,,,,,,,,,,,,,,,,,,,,,,,,,,,,,,,,,,,,,,,,,1.2022,725.3366992,None,space,1,725.3366992,None,0.3638132,P037,fencog,2,Post,2022_Apr_29_1136,N-Back (New Version 2021),2021.1.4,120.0817517
,,,,Conditions/Version_1/zeroback(3)_v1.xlsx,New rule: Press 'space' when you see the letter 'x' or 'X'.,,,,,,,,,,,0,9,9,9,,,,,,,,,,,,,,,,,,,,,,,,,,,,,,,,,,,,,,,,,,,,,,,,,,,,,,,,,,,,,,,,,,,,,,,,,,,,,,,,,P037,fencog,2,Post,2022_Apr_29_1136,N-Back (New Version 2021),2021.1.4,120.0817517
,,,,Conditions/Version_1/twoback(3)_v1.xlsx,New rule: Press 'space' when you see 2-back (i.e. the same letter as the one that appeared 2 letters ago.),e,None,,,,,,,,,0,10,10,10,0,0,0,0,,,,,,,,,,,,,,,,,,,,,,,,,,,,,,,,,,,,,,,,,,,,,,,,,,,,,,,,,,,727.3654423,None,730.3527205,None,space,10.3718076,730.3527205,None,727.3654423,None,1.3696,742.1139718,None,None,1,742.1139718,None,,P037,fencog,2,Post,2022_Apr_29_1136,N-Back (New Version 2021),2021.1.4,120.0817517
,,,,Conditions/Version_1/twoback(3)_v1.xlsx,New rule: Press 'space' when you see 2-back (i.e. the same letter as the one that appeared 2 letters ago.),o,None,,,,,,,,,0,10,10,10,0,1,1,1,,,,,,,,,,,,,,,,,,,,,,,,,,,,,,,,,,,,,,,,,,,,,,,,,,,,,,,,,,,,,,,,,,,,,1.7354,745.8545058,None,None,1,745.8545058,None,,P037,fencog,2,Post,2022_Apr_29_1136,N-Back (New Version 2021),2021.1.4,120.0817517
,,,,Conditions/Version_1/twoback(3)_v1.xlsx,New rule: Press 'space' when you see 2-back (i.e. the same letter as the one that appeared 2 letters ago.),P,None,,,,,,,,,0,10,10,10,0,2,2,2,,,,,,,,,,,,,,,,,,,,,,,,,,,,,,,,,,,,,,,,,,,,,,,,,,,,,,,,,,,,,,,,,,,,,1.1216,748.9784153,None,None,1,748.9784153,None,,P037,fencog,2,Post,2022_Apr_29_1136,N-Back (New Version 2021),2021.1.4,120.0817517
,,,,Conditions/Version_1/twoback(3)_v1.xlsx,New rule: Press 'space' when you see 2-back (i.e. the same letter as the one that appeared 2 letters ago.),z,None,,,,,,,,,0,10,10,10,0,3,3,3,,,,,,,,,,,,,,,,,,,,,,,,,,,,,,,,,,,,,,,,,,,,,,,,,,,,,,,,,,,,,,,,,,,,,1.2208,752.2055735,None,None,1,752.2055735,None,,P037,fencog,2,Post,2022_Apr_29_1136,N-Back (New Version 2021),2021.1.4,120.0817517
,,,,Conditions/Version_1/twoback(3)_v1.xlsx,New rule: Press 'space' when you see 2-back (i.e. the same letter as the one that appeared 2 letters ago.),X,None,,,,,,,,,0,10,10,10,0,4,4,4,,,,,,,,,,,,,,,,,,,,,,,,,,,,,,,,,,,,,,,,,,,,,,,,,,,,,,,,,,,,,,,,,,,,,1.6796,755.8932398,None,None,1,755.8932398,None,,P037,fencog,2,Post,2022_Apr_29_1136,N-Back (New Version 2021),2021.1.4,120.0817517
,,,,Conditions/Version_1/twoback(3)_v1.xlsx,New rule: Press 'space' when you see 2-back (i.e. the same letter as the one that appeared 2 letters ago.),z,space,,,,,,,,,0,10,10,10,0,5,5,5,,,,,,,,,,,,,,,,,,,,,,,,,,,,,,,,,,,,,,,,,,,,,,,,,,,,,,,,,,,,,,,,,,,,,1.0596,758.9608809,None,space,1,758.9608809,None,0.8434971,P037,fencog,2,Post,2022_Apr_29_1136,N-Back (New Version 2021),2021.1.4,120.0817517
,,,,Conditions/Version_1/twoback(3)_v1.xlsx,New rule: Press 'space' when you see 2-back (i.e. the same letter as the one that appeared 2 letters ago.),x,space,,,,,,,,,0,10,10,10,0,6,6,6,,,,,,,,,,,,,,,,,,,,,,,,,,,,,,,,,,,,,,,,,,,,,,,,,,,,,,,,,,,,,,,,,,,,,1.6858,762.6578965,None,space,1,762.6578965,None,0.4907105,P037,fencog,2,Post,2022_Apr_29_1136,N-Back (New Version 2021),2021.1.4,120.0817517
,,,,Conditions/Version_1/twoback(3)_v1.xlsx,New rule: Press 'space' when you see 2-back (i.e. the same letter as the one that appeared 2 letters ago.),c,None,,,,,,,,,0,10,10,10,0,7,7,7,,,,,,,,,,,,,,,,,,,,,,,,,,,,,,,,,,,,,,,,,,,,,,,,,,,,,,,,,,,,,,,,,,,,,1.506,766.1661411,None,None,1,766.1661411,None,,P037,fencog,2,Post,2022_Apr_29_1136,N-Back (New Version 2021),2021.1.4,120.0817517
,,,,Conditions/Version_1/twoback(3)_v1.xlsx,New rule: Press 'space' when you see 2-back (i.e. the same letter as the one that appeared 2 letters ago.),i,None,,,,,,,,,0,10,10,10,0,8,8,8,,,,,,,,,,,,,,,,,,,,,,,,,,,,,,,,,,,,,,,,,,,,,,,,,,,,,,,,,,,,,,,,,,,,,1.1402,769.3142246,None,None,1,769.3142246,None,,P037,fencog,2,Post,2022_Apr_29_1136,N-Back (New Version 2021),2021.1.4,120.0817517
,,,,Conditions/Version_1/twoback(3)_v1.xlsx,New rule: Press 'space' when you see 2-back (i.e. the same letter as the one that appeared 2 letters ago.),C,space,,,,,,,,,0,10,10,10,0,9,9,9,,,,,,,,,,,,,,,,,,,,,,,,,,,,,,,,,,,,,,,,,,,,,,,,,,,,,,,,,,,,,,,,,,,,,1.1526,772.4738075,None,space,1,772.4738075,None,0.7307575,P037,fencog,2,Post,2022_Apr_29_1136,N-Back (New Version 2021),2021.1.4,120.0817517
,,,,Conditions/Version_1/twoback(3)_v1.xlsx,New rule: Press 'space' when you see 2-back (i.e. the same letter as the one that appeared 2 letters ago.),,,,,,,,,,,0,10,10,10,,,,,,,,,,,,,,,,,,,,,,,,,,,,,,,,,,,,,,,,,,,,,,,,,,,,,,,,,,,,,,,,,,,,,,,,,,,,,,,,,P037,fencog,2,Post,2022_Apr_29_1136,N-Back (New Version 2021),2021.1.4,120.0817517
,,,,Conditions/Version_1/oneback(3)_v1.xlsx,New rule: Press 'space' when you see 1-back (i.e. the same letter as the one that appeared 1 letter ago.),o,None,,,,,,,,,0,11,11,11,0,0,0,0,,,,,,,,,,,,,,,,,,,,,,,,,,,,,,,,,,,,,,,,,,,,,,,,,,,,,,,,,,,774.4993206,None,777.4810965,None,space,0.3954138,777.4810965,None,774.4993206,None,1.0906,778.9885277,None,None,1,778.9885277,None,,P037,fencog,2,Post,2022_Apr_29_1136,N-Back (New Version 2021),2021.1.4,120.0817517
,,,,Conditions/Version_1/oneback(3)_v1.xlsx,New rule: Press 'space' when you see 1-back (i.e. the same letter as the one that appeared 1 letter ago.),O,space,,,,,,,,,0,11,11,11,0,1,1,1,,,,,,,,,,,,,,,,,,,,,,,,,,,,,,,,,,,,,,,,,,,,,,,,,,,,,,,,,,,,,,,,,,,,,1.8408,782.8350954,None,space,1,782.8350954,None,0.7133261,P037,fencog,2,Post,2022_Apr_29_1136,N-Back (New Version 2021),2021.1.4,120.0817517
,,,,Conditions/Version_1/oneback(3)_v1.xlsx,New rule: Press 'space' when you see 1-back (i.e. the same letter as the one that appeared 1 letter ago.),h,None,,,,,,,,,0,11,11,11,0,2,2,2,,,,,,,,,,,,,,,,,,,,,,,,,,,,,,,,,,,,,,,,,,,,,,,,,,,,,,,,,,,,,,,,,,,,,1.9772,786.8186058,None,None,1,786.8186058,None,,P037,fencog,2,Post,2022_Apr_29_1136,N-Back (New Version 2021),2021.1.4,120.0817517
,,,,Conditions/Version_1/oneback(3)_v1.xlsx,New rule: Press 'space' when you see 1-back (i.e. the same letter as the one that appeared 1 letter ago.),g,None,,,,,,,,,0,11,11,11,0,3,3,3,,,,,,,,,,,,,,,,,,,,,,,,,,,,,,,,,,,,,,,,,,,,,,,,,,,,,,,,,,,,,,,,,,,,,1.7168,790.5424236,None,None,1,790.5424236,None,,P037,fencog,2,Post,2022_Apr_29_1136,N-Back (New Version 2021),2021.1.4,120.0817517
,,,,Conditions/Version_1/oneback(3)_v1.xlsx,New rule: Press 'space' when you see 1-back (i.e. the same letter as the one that appeared 1 letter ago.),n,None,,,,,,,,,0,11,11,11,0,4,4,4,,,,,,,,,,,,,,,,,,,,,,,,,,,,,,,,,,,,,,,,,,,,,,,,,,,,,,,,,,,,,,,,,,,,,1.5742,794.1246264,None,None,1,794.1246264,None,,P037,fencog,2,Post,2022_Apr_29_1136,N-Back (New Version 2021),2021.1.4,120.0817517
,,,,Conditions/Version_1/oneback(3)_v1.xlsx,New rule: Press 'space' when you see 1-back (i.e. the same letter as the one that appeared 1 letter ago.),z,None,,,,,,,,,0,11,11,11,0,5,5,5,,,,,,,,,,,,,,,,,,,,,,,,,,,,,,,,,,,,,,,,,,,,,,,,,,,,,,,,,,,,,,,,,,,,,1.909,798.0475304,None,None,1,798.0475304,None,,P037,fencog,2,Post,2022_Apr_29_1136,N-Back (New Version 2021),2021.1.4,120.0817517
,,,,Conditions/Version_1/oneback(3)_v1.xlsx,New rule: Press 'space' when you see 1-back (i.e. the same letter as the one that appeared 1 letter ago.),X,None,,,,,,,,,0,11,11,11,0,6,6,6,,,,,,,,,,,,,,,,,,,,,,,,,,,,,,,,,,,,,,,,,,,,,,,,,,,,,,,,,,,,,,,,,,,,,1.2394,801.2892398,None,None,1,801.2892398,None,,P037,fencog,2,Post,2022_Apr_29_1136,N-Back (New Version 2021),2021.1.4,120.0817517
,,,,Conditions/Version_1/oneback(3)_v1.xlsx,New rule: Press 'space' when you see 1-back (i.e. the same letter as the one that appeared 1 letter ago.),r,None,,,,,,,,,0,11,11,11,0,7,7,7,,,,,,,,,,,,,,,,,,,,,,,,,,,,,,,,,,,,,,,,,,,,,,,,,,,,,,,,,,,,,,,,,,,,,1.7664,805.1016094,None,None,1,805.1016094,None,,P037,fencog,2,Post,2022_Apr_29_1136,N-Back (New Version 2021),2021.1.4,120.0817517
,,,,Conditions/Version_1/oneback(3)_v1.xlsx,New rule: Press 'space' when you see 1-back (i.e. the same letter as the one that appeared 1 letter ago.),r,space,,,,,,,,,0,11,11,11,0,8,8,8,,,,,,,,,,,,,,,,,,,,,,,,,,,,,,,,,,,,,,,,,,,,,,,,,,,,,,,,,,,,,,,,,,,,,1.6858,808.7611152,None,space,1,808.7611152,None,0.77135,P037,fencog,2,Post,2022_Apr_29_1136,N-Back (New Version 2021),2021.1.4,120.0817517
,,,,Conditions/Version_1/oneback(3)_v1.xlsx,New rule: Press 'space' when you see 1-back (i.e. the same letter as the one that appeared 1 letter ago.),P,None,,,,,,,,,0,11,11,11,0,9,9,9,,,,,,,,,,,,,,,,,,,,,,,,,,,,,,,,,,,,,,,,,,,,,,,,,,,,,,,,,,,,,,,,,,,,,1.01,811.7778458,None,None,1,811.7778458,None,,P037,fencog,2,Post,2022_Apr_29_1136,N-Back (New Version 2021),2021.1.4,120.0817517
,,,,Conditions/Version_1/oneback(3)_v1.xlsx,New rule: Press 'space' when you see 1-back (i.e. the same letter as the one that appeared 1 letter ago.),,,,,,,,,,,0,11,11,11,,,,,,,,,,,,,,,,,,,,,,,,,,,,,,,,,,,,,,,,,,,,,,,,,,,,,,,,,,,,,,,,,,,,,,,,,,,,,,,,,P037,fencog,2,Post,2022_Apr_29_1136,N-Back (New Version 2021),2021.1.4,120.0817517
,,,,Conditions/Version_1/twoback(4)_v1.xlsx,New rule: Press 'space' when you see 2-back (i.e. the same letter as the one that appeared 2 letters ago.),r,None,,,,,,,,,0,12,12,12,0,0,0,0,,,,,,,,,,,,,,,,,,,,,,,,,,,,,,,,,,,,,,,,,,,,,,,,,,,,,,,,,,,813.8082221,None,816.7941054,None,space,1.178459,816.7941054,None,813.8082221,None,1.7664,819.7671006,None,None,1,819.7671006,None,,P037,fencog,2,Post,2022_Apr_29_1136,N-Back (New Version 2021),2021.1.4,120.0817517
,,,,Conditions/Version_1/twoback(4)_v1.xlsx,New rule: Press 'space' when you see 2-back (i.e. the same letter as the one that appeared 2 letters ago.),T,None,,,,,,,,,0,12,12,12,0,1,1,1,,,,,,,,,,,,,,,,,,,,,,,,,,,,,,,,,,,,,,,,,,,,,,,,,,,,,,,,,,,,,,,,,,,,,1.6796,823.4565389,None,None,1,823.4565389,None,,P037,fencog,2,Post,2022_Apr_29_1136,N-Back (New Version 2021),2021.1.4,120.0817517
,,,,Conditions/Version_1/twoback(4)_v1.xlsx,New rule: Press 'space' when you see 2-back (i.e. the same letter as the one that appeared 2 letters ago.),o,None,,,,,,,,,0,12,12,12,0,2,2,2,,,,,,,,,,,,,,,,,,,,,,,,,,,,,,,,,,,,,,,,,,,,,,,,,,,,,,,,,,,,,,,,,,,,,1.475,826.9320205,None,None,1,826.9320205,None,,P037,fencog,2,Post,2022_Apr_29_1136,N-Back (New Version 2021),2021.1.4,120.0817517
,,,,Conditions/Version_1/twoback(4)_v1.xlsx,New rule: Press 'space' when you see 2-back (i.e. the same letter as the one that appeared 2 letters ago.),p,None,,,,,,,,,0,12,12,12,0,3,3,3,,,,,,,,,,,,,,,,,,,,,,,,,,,,,,,,,,,,,,,,,,,,,,,,,,,,,,,,,,,,,,,,,,,,,1.8408,830.7793788,None,None,1,830.7793788,None,,P037,fencog,2,Post,2022_Apr_29_1136,N-Back (New Version 2021),2021.1.4,120.0817517
,,,,Conditions/Version_1/twoback(4)_v1.xlsx,New rule: Press 'space' when you see 2-back (i.e. the same letter as the one that appeared 2 letters ago.),p,None,,,,,,,,,0,12,12,12,0,4,4,4,,,,,,,,,,,,,,,,,,,,,,,,,,,,,,,,,,,,,,,,,,,,,,,,,,,,,,,,,,,,,,,,,,,,,1.0224,833.8037337,None,None,1,833.8037337,None,,P037,fencog,2,Post,2022_Apr_29_1136,N-Back (New Version 2021),2021.1.4,120.0817517
,,,,Conditions/Version_1/twoback(4)_v1.xlsx,New rule: Press 'space' when you see 2-back (i.e. the same letter as the one that appeared 2 letters ago.),y,None,,,,,,,,,0,12,12,12,0,5,5,5,,,,,,,,,,,,,,,,,,,,,,,,,,,,,,,,,,,,,,,,,,,,,,,,,,,,,,,,,,,,,,,,,,,,,1.7168,837.5210082,None,None,1,837.5210082,None,,P037,fencog,2,Post,2022_Apr_29_1136,N-Back (New Version 2021),2021.1.4,120.0817517
,,,,Conditions/Version_1/twoback(4)_v1.xlsx,New rule: Press 'space' when you see 2-back (i.e. the same letter as the one that appeared 2 letters ago.),P,space,,,,,,,,,0,12,12,12,0,6,6,6,,,,,,,,,,,,,,,,,,,,,,,,,,,,,,,,,,,,,,,,,,,,,,,,,,,,,,,,,,,,,,,,,,,,,1.2642,840.7932547,None,space,1,840.7932547,None,0.883332,P037,fencog,2,Post,2022_Apr_29_1136,N-Back (New Version 2021),2021.1.4,120.0817517
,,,,Conditions/Version_1/twoback(4)_v1.xlsx,New rule: Press 'space' when you see 2-back (i.e. the same letter as the one that appeared 2 letters ago.),y,None,,,,,,,,,0,12,12,12,0,7,7,7,,,,,,,,,,,,,,,,,,,,,,,,,,,,,,,,,,,,,,,,,,,,,,,,,,,,,,,,,,,,,,,,,,,,,1.971,844.7709012,None,space,0,844.7709012,None,0.7296926,P037,fencog,2,Post,2022_Apr_29_1136,N-Back (New Version 2021),2021.1.4,120.0817517
,,,,Conditions/Version_1/twoback(4)_v1.xlsx,New rule: Press 'space' when you see 2-back (i.e. the same letter as the one that appeared 2 letters ago.),y,space,,,,,,,,,0,12,12,12,0,8,8,8,,,,,,,,,,,,,,,,,,,,,,,,,,,,,,,,,,,,,,,,,,,,,,,,,,,,,,,,,,,,,,,,,,,,,1.8966,848.6743198,None,None,0,848.6743198,None,,P037,fencog,2,Post,2022_Apr_29_1136,N-Back (New Version 2021),2021.1.4,120.0817517
,,,,Conditions/Version_1/twoback(4)_v1.xlsx,New rule: Press 'space' when you see 2-back (i.e. the same letter as the one that appeared 2 letters ago.),,,,,,,,,,,0,12,12,12,,,,,,,,,,,,,,,,,,,,,,,,,,,,,,,,,,,,,,,,,,,,,,,,,,,,,,,,,,,,,,,,,,,,,,,,,,,,,,,,,P037,fencog,2,Post,2022_Apr_29_1136,N-Back (New Version 2021),2021.1.4,120.0817517
,,,,Conditions/Version_1/zeroback(4)_v1.xlsx,New rule: Press 'space' when you see the letter 'x' or 'X'.,o,None,,,,,,,,,0,13,13,13,0,0,0,0,,,,,,,,,,,,,,,,,,,,,,,,,,,,,,,,,,,,,,,,,,,,,,,,,,,,,,,,,,,850.6941236,None,853.6827886,None,space,0.0737196,853.6827886,None,850.6941236,None,1.599,855.3732679,None,None,1,855.3732679,None,,P037,fencog,2,Post,2022_Apr_29_1136,N-Back (New Version 2021),2021.1.4,120.0817517
,,,,Conditions/Version_1/zeroback(4)_v1.xlsx,New rule: Press 'space' when you see the letter 'x' or 'X'.,X,space,,,,,,,,,0,13,13,13,0,1,1,1,,,,,,,,,,,,,,,,,,,,,,,,,,,,,,,,,,,,,,,,,,,,,,,,,,,,,,,,,,,,,,,,,,,,,1.971,859.3544678,None,space,1,859.3544678,None,0.6820023,P037,fencog,2,Post,2022_Apr_29_1136,N-Back (New Version 2021),2021.1.4,120.0817517
,,,,Conditions/Version_1/zeroback(4)_v1.xlsx,New rule: Press 'space' when you see the letter 'x' or 'X'.,p,None,,,,,,,,,0,13,13,13,0,2,2,2,,,,,,,,,,,,,,,,,,,,,,,,,,,,,,,,,,,,,,,,,,,,,,,,,,,,,,,,,,,,,,,,,,,,,1.4068,862.7616434,None,None,1,862.7616434,None,,P037,fencog,2,Post,2022_Apr_29_1136,N-Back (New Version 2021),2021.1.4,120.0817517
,,,,Conditions/Version_1/zeroback(4)_v1.xlsx,New rule: Press 'space' when you see the letter 'x' or 'X'.,m,None,,,,,,,,,0,13,13,13,0,3,3,3,,,,,,,,,,,,,,,,,,,,,,,,,,,,,,,,,,,,,,,,,,,,,,,,,,,,,,,,,,,,,,,,,,,,,1.9958,866.7605052,None,None,1,866.7605052,None,,P037,fencog,2,Post,2022_Apr_29_1136,N-Back (New Version 2021),2021.1.4,120.0817517
,,,,Conditions/Version_1/zeroback(4)_v1.xlsx,New rule: Press 'space' when you see the letter 'x' or 'X'.,n,None,,,,,,,,,0,13,13,13,0,4,4,4,,,,,,,,,,,,,,,,,,,,,,,,,,,,,,,,,,,,,,,,,,,,,,,,,,,,,,,,,,,,,,,,,,,,,1.754,870.5197618,None,None,1,870.5197618,None,,P037,fencog,2,Post,2022_Apr_29_1136,N-Back (New Version 2021),2021.1.4,120.0817517
,,,,Conditions/Version_1/zeroback(4)_v1.xlsx,New rule: Press 'space' when you see the letter 'x' or 'X'.,m,None,,,,,,,,,0,13,13,13,0,5,5,5,,,,,,,,,,,,,,,,,,,,,,,,,,,,,,,,,,,,,,,,,,,,,,,,,,,,,,,,,,,,,,,,,,,,,1.3448,873.8771434,None,None,1,873.8771434,None,,P037,fencog,2,Post,2022_Apr_29_1136,N-Back (New Version 2021),2021.1.4,120.0817517
,,,,Conditions/Version_1/zeroback(4)_v1.xlsx,New rule: Press 'space' when you see the letter 'x' or 'X'.,C,None,,,,,,,,,0,13,13,13,0,6,6,6,,,,,,,,,,,,,,,,,,,,,,,,,,,,,,,,,,,,,,,,,,,,,,,,,,,,,,,,,,,,,,,,,,,,,1.6734,877.5599738,None,None,1,877.5599738,None,,P037,fencog,2,Post,2022_Apr_29_1136,N-Back (New Version 2021),2021.1.4,120.0817517
,,,,Conditions/Version_1/zeroback(4)_v1.xlsx,New rule: Press 'space' when you see the letter 'x' or 'X'.,m,None,,,,,,,,,0,13,13,13,0,7,7,7,,,,,,,,,,,,,,,,,,,,,,,,,,,,,,,,,,,,,,,,,,,,,,,,,,,,,,,,,,,,,,,,,,,,,1.6982,881.2645753,None,None,1,881.2645753,None,,P037,fencog,2,Post,2022_Apr_29_1136,N-Back (New Version 2021),2021.1.4,120.0817517
,,,,Conditions/Version_1/zeroback(4)_v1.xlsx,New rule: Press 'space' when you see the letter 'x' or 'X'.,p,None,,,,,,,,,0,13,13,13,0,8,8,8,,,,,,,,,,,,,,,,,,,,,,,,,,,,,,,,,,,,,,,,,,,,,,,,,,,,,,,,,,,,,,,,,,,,,1.4626,884.7309788,None,None,1,884.7309788,None,,P037,fencog,2,Post,2022_Apr_29_1136,N-Back (New Version 2021),2021.1.4,120.0817517
,,,,Conditions/Version_1/zeroback(4)_v1.xlsx,New rule: Press 'space' when you see the letter 'x' or 'X'.,X,space,,,,,,,,,0,13,13,13,0,9,9,9,,,,,,,,,,,,,,,,,,,,,,,,,,,,,,,,,,,,,,,,,,,,,,,,,,,,,,,,,,,,,,,,,,,,,1.8718,888.6133829,None,space,1,888.6133829,None,1.0070727,P037,fencog,2,Post,2022_Apr_29_1136,N-Back (New Version 2021),2021.1.4,120.0817517
,,,,Conditions/Version_1/zeroback(4)_v1.xlsx,New rule: Press 'space' when you see the letter 'x' or 'X'.,,,,,,,,,,,0,13,13,13,,,,,,,,,,,,,,,,,,,,,,,,,,,,,,,,,,,,,,,,,,,,,,,,,,,,,,,,,,,,,,,,,,,,,,,,,,,,,,,,,P037,fencog,2,Post,2022_Apr_29_1136,N-Back (New Version 2021),2021.1.4,120.0817517
,,,,Conditions/Version_1/oneback(4)_v1.xlsx,New rule: Press 'space' when you see 1-back (i.e. the same letter as the one that appeared 1 letter ago.),w,None,,,,,,,,,0,14,14,14,0,0,0,0,,,,,,,,,,,,,,,,,,,,,,,,,,,,,,,,,,,,,,,,,,,,,,,,,,,,,,,,,,,890.6404346,None,893.6214358,None,space,0.2948883,893.6214358,None,890.6404346,None,1.3324,895.2687091,None,None,1,895.2687091,None,,P037,fencog,2,Post,2022_Apr_29_1136,N-Back (New Version 2021),2021.1.4,120.0817517
,,,,Conditions/Version_1/oneback(4)_v1.xlsx,New rule: Press 'space' when you see 1-back (i.e. the same letter as the one that appeared 1 letter ago.),q,None,,,,,,,,,0,14,14,14,0,1,1,1,,,,,,,,,,,,,,,,,,,,,,,,,,,,,,,,,,,,,,,,,,,,,,,,,,,,,,,,,,,,,,,,,,,,,1.878,899.1509424,None,None,1,899.1509424,None,,P037,fencog,2,Post,2022_Apr_29_1136,N-Back (New Version 2021),2021.1.4,120.0817517
,,,,Conditions/Version_1/oneback(4)_v1.xlsx,New rule: Press 'space' when you see 1-back (i.e. the same letter as the one that appeared 1 letter ago.),i,None,,,,,,,,,0,14,14,14,0,2,2,2,,,,,,,,,,,,,,,,,,,,,,,,,,,,,,,,,,,,,,,,,,,,,,,,,,,,,,,,,,,,,,,,,,,,,1.4874,902.6435665,None,None,1,902.6435665,None,,P037,fencog,2,Post,2022_Apr_29_1136,N-Back (New Version 2021),2021.1.4,120.0817517
,,,,Conditions/Version_1/oneback(4)_v1.xlsx,New rule: Press 'space' when you see 1-back (i.e. the same letter as the one that appeared 1 letter ago.),t,None,,,,,,,,,0,14,14,14,0,3,3,3,,,,,,,,,,,,,,,,,,,,,,,,,,,,,,,,,,,,,,,,,,,,,,,,,,,,,,,,,,,,,,,,,,,,,1.8222,906.4736722,None,None,1,906.4736722,None,,P037,fencog,2,Post,2022_Apr_29_1136,N-Back (New Version 2021),2021.1.4,120.0817517
,,,,Conditions/Version_1/oneback(4)_v1.xlsx,New rule: Press 'space' when you see 1-back (i.e. the same letter as the one that appeared 1 letter ago.),v,None,,,,,,,,,0,14,14,14,0,4,4,4,,,,,,,,,,,,,,,,,,,,,,,,,,,,,,,,,,,,,,,,,,,,,,,,,,,,,,,,,,,,,,,,,,,,,1.9338,910.4078023,None,None,1,910.4078023,None,,P037,fencog,2,Post,2022_Apr_29_1136,N-Back (New Version 2021),2021.1.4,120.0817517
,,,,Conditions/Version_1/oneback(4)_v1.xlsx,New rule: Press 'space' when you see 1-back (i.e. the same letter as the one that appeared 1 letter ago.),V,space,,,,,,,,,0,14,14,14,0,5,5,5,,,,,,,,,,,,,,,,,,,,,,,,,,,,,,,,,,,,,,,,,,,,,,,,,,,,,,,,,,,,,,,,,,,,,1.661,914.0812281,None,space,1,914.0812281,None,0.7471361,P037,fencog,2,Post,2022_Apr_29_1136,N-Back (New Version 2021),2021.1.4,120.0817517
,,,,Conditions/Version_1/oneback(4)_v1.xlsx,New rule: Press 'space' when you see 1-back (i.e. the same letter as the one that appeared 1 letter ago.),v,space,,,,,,,,,0,14,14,14,0,6,6,6,,,,,,,,,,,,,,,,,,,,,,,,,,,,,,,,,,,,,,,,,,,,,,,,,,,,,,,,,,,,,,,,,,,,,1.4564,917.5464255,None,space,1,917.5464255,None,1.8580983,P037,fencog,2,Post,2022_Apr_29_1136,N-Back (New Version 2021),2021.1.4,120.0817517
,,,,Conditions/Version_1/oneback(4)_v1.xlsx,New rule: Press 'space' when you see 1-back (i.e. the same letter as the one that appeared 1 letter ago.),p,None,,,,,,,,,0,14,14,14,0,7,7,7,,,,,,,,,,,,,,,,,,,,,,,,,,,,,,,,,,,,,,,,,,,,,,,,,,,,,,,,,,,,,,,,,,,,,1.4006,920.9538032,None,None,1,920.9538032,None,,P037,fencog,2,Post,2022_Apr_29_1136,N-Back (New Version 2021),2021.1.4,120.0817517
,,,,Conditions/Version_1/oneback(4)_v1.xlsx,New rule: Press 'space' when you see 1-back (i.e. the same letter as the one that appeared 1 letter ago.),w,None,,,,,,,,,0,14,14,14,0,8,8,8,,,,,,,,,,,,,,,,,,,,,,,,,,,,,,,,,,,,,,,,,,,,,,,,,,,,,,,,,,,,,,,,,,,,,1.723,924.6861327,None,None,1,924.6861327,None,,P037,fencog,2,Post,2022_Apr_29_1136,N-Back (New Version 2021),2021.1.4,120.0817517
,,,,Conditions/Version_1/oneback(4)_v1.xlsx,New rule: Press 'space' when you see 1-back (i.e. the same letter as the one that appeared 1 letter ago.),W,space,,,,,,,,,0,14,14,14,0,9,9,9,,,,,,,,,,,,,,,,,,,,,,,,,,,,,,,,,,,,,,,,,,,,,,,,,,,,,,,,,,,,,,,,,,,,,1.3572,928.0526826,None,space,1,928.0526826,None,0.799841,P037,fencog,2,Post,2022_Apr_29_1136,N-Back (New Version 2021),2021.1.4,120.0817517
,,,,Conditions/Version_1/oneback(4)_v1.xlsx,New rule: Press 'space' when you see 1-back (i.e. the same letter as the one that appeared 1 letter ago.),,,,,,,,,,,0,14,14,14,,,,,,,,,,,,,,,,,,,,,,,,,,,,,,,,,,,,,,,,,,,,,,,,,,,,,,,,,,,,,,,,,,,,,,,,,,,,,,,,,P037,fencog,2,Post,2022_Apr_29_1136,N-Back (New Version 2021),2021.1.4,120.0817517
,,,,Conditions/Version_1/threeback(4)_v1.xlsx,New rule: Press 'space' when you see 3-back (i.e. the same letter as the one that appeared 3 letters ago.),A,None,,,,,,,,,0,15,15,15,0,0,0,0,,,,,,,,,,,,,,,,,,,,,,,,,,,,,,,,,,,,,,,,,,,,,,,,,,,,,,,,,,,930.0831896,None,933.0680022,None,space,0.320345,933.0680022,None,930.0831896,None,1.227,934.6460264,None,None,1,934.6460264,None,,P037,fencog,2,Post,2022_Apr_29_1136,N-Back (New Version 2021),2021.1.4,120.0817517
,,,,Conditions/Version_1/threeback(4)_v1.xlsx,New rule: Press 'space' when you see 3-back (i.e. the same letter as the one that appeared 3 letters ago.),n,None,,,,,,,,,0,15,15,15,0,1,1,1,,,,,,,,,,,,,,,,,,,,,,,,,,,,,,,,,,,,,,,,,,,,,,,,,,,,,,,,,,,,,,,,,,,,,1.971,938.6244515,None,None,1,938.6244515,None,,P037,fencog,2,Post,2022_Apr_29_1136,N-Back (New Version 2021),2021.1.4,120.0817517
,,,,Conditions/Version_1/threeback(4)_v1.xlsx,New rule: Press 'space' when you see 3-back (i.e. the same letter as the one that appeared 3 letters ago.),g,None,,,,,,,,,0,15,15,15,0,2,2,2,,,,,,,,,,,,,,,,,,,,,,,,,,,,,,,,,,,,,,,,,,,,,,,,,,,,,,,,,,,,,,,,,,,,,1.5804,942.2174473,None,None,1,942.2174473,None,,P037,fencog,2,Post,2022_Apr_29_1136,N-Back (New Version 2021),2021.1.4,120.0817517
,,,,Conditions/Version_1/threeback(4)_v1.xlsx,New rule: Press 'space' when you see 3-back (i.e. the same letter as the one that appeared 3 letters ago.),A,space,,,,,,,,,0,15,15,15,0,3,3,3,,,,,,,,,,,,,,,,,,,,,,,,,,,,,,,,,,,,,,,,,,,,,,,,,,,,,,,,,,,,,,,,,,,,,1.413,945.6370952,None,space,1,945.6370952,None,0.6232281,P037,fencog,2,Post,2022_Apr_29_1136,N-Back (New Version 2021),2021.1.4,120.0817517
,,,,Conditions/Version_1/threeback(4)_v1.xlsx,New rule: Press 'space' when you see 3-back (i.e. the same letter as the one that appeared 3 letters ago.),p,None,,,,,,,,,0,15,15,15,0,4,4,4,,,,,,,,,,,,,,,,,,,,,,,,,,,,,,,,,,,,,,,,,,,,,,,,,,,,,,,,,,,,,,,,,,,,,1.6362,949.2776919,None,None,1,949.2776919,None,,P037,fencog,2,Post,2022_Apr_29_1136,N-Back (New Version 2021),2021.1.4,120.0817517
,,,,Conditions/Version_1/threeback(4)_v1.xlsx,New rule: Press 'space' when you see 3-back (i.e. the same letter as the one that appeared 3 letters ago.),O,None,,,,,,,,,0,15,15,15,0,5,5,5,,,,,,,,,,,,,,,,,,,,,,,,,,,,,,,,,,,,,,,,,,,,,,,,,,,,,,,,,,,,,,,,,,,,,1.8842,953.1683289,None,None,1,953.1683289,None,,P037,fencog,2,Post,2022_Apr_29_1136,N-Back (New Version 2021),2021.1.4,120.0817517
,,,,Conditions/Version_1/threeback(4)_v1.xlsx,New rule: Press 'space' when you see 3-back (i.e. the same letter as the one that appeared 3 letters ago.),a,space,,,,,,,,,0,15,15,15,0,6,6,6,,,,,,,,,,,,,,,,,,,,,,,,,,,,,,,,,,,,,,,,,,,,,,,,,,,,,,,,,,,,,,,,,,,,,1.3076,956.4766412,None,space,1,956.4766412,None,0.7359929,P037,fencog,2,Post,2022_Apr_29_1136,N-Back (New Version 2021),2021.1.4,120.0817517
,,,,Conditions/Version_1/threeback(4)_v1.xlsx,New rule: Press 'space' when you see 3-back (i.e. the same letter as the one that appeared 3 letters ago.),p,space,,,,,,,,,0,15,15,15,0,7,7,7,,,,,,,,,,,,,,,,,,,,,,,,,,,,,,,,,,,,,,,,,,,,,,,,,,,,,,,,,,,,,,,,,,,,,1.7664,960.2506672,None,space,1,960.2506672,None,1.2177889,P037,fencog,2,Post,2022_Apr_29_1136,N-Back (New Version 2021),2021.1.4,120.0817517
,,,,Conditions/Version_1/threeback(4)_v1.xlsx,New rule: Press 'space' when you see 3-back (i.e. the same letter as the one that appeared 3 letters ago.),x,None,,,,,,,,,0,15,15,15,0,8,8,8,,,,,,,,,,,,,,,,,,,,,,,,,,,,,,,,,,,,,,,,,,,,,,,,,,,,,,,,,,,,,,,,,,,,,1.1712,963.4318732,None,None,1,963.4318732,None,,P037,fencog,2,Post,2022_Apr_29_1136,N-Back (New Version 2021),2021.1.4,120.0817517
,,,,Conditions/Version_1/threeback(4)_v1.xlsx,New rule: Press 'space' when you see 3-back (i.e. the same letter as the one that appeared 3 letters ago.),X,None,,,,,,,,,0,15,15,15,0,9,9,9,,,,,,,,,,,,,,,,,,,,,,,,,,,,,,,,,,,,,,,,,,,,,,,,,,,,,,,,,,,,,,,,,,,,,1.8656,967.2974063,None,None,1,967.2974063,None,,P037,fencog,2,Post,2022_Apr_29_1136,N-Back (New Version 2021),2021.1.4,120.0817517
,,,,Conditions/Version_1/threeback(4)_v1.xlsx,New rule: Press 'space' when you see 3-back (i.e. the same letter as the one that appeared 3 letters ago.),,,,,,,,,,,0,15,15,15,,,,,,,,,,,,,,,,,,,,,,,,,,,,,,,,,,,,,,,,,,,,,,,,,,,,,,,,,,,,,,,,,,,,,,,,,,,,,,,,,P037,fencog,2,Post,2022_Apr_29_1136,N-Back (New Version 2021),2021.1.4,120.0817517
