CondFileP,InstructionsP,LettersDisplayedP,CorrectnessP,CondFile,Instructions,LettersDisplayed,Correctness,practicetrials.thisRepN,practicetrials.thisTrialN,practicetrials.thisN,practicetrials.thisIndex,InnerLoopPractice.thisRepN,InnerLoopPractice.thisTrialN,InnerLoopPractice.thisN,InnerLoopPractice.thisIndex,trials.thisRepN,trials.thisTrialN,trials.thisN,trials.thisIndex,InnerLoop.thisRepN,InnerLoop.thisTrialN,InnerLoop.thisN,InnerLoop.thisIndex,TaskVersionText.started,TaskVersionText.stopped,InstrKey1.keys,InstrKey1.rt,InstrKey1.started,InstrKey1.stopped,text.started,text.stopped,key_resp_4.keys,key_resp_4.rt,key_resp_4.started,key_resp_4.stopped,text_2.started,text_2.stopped,key_resp_3.keys,key_resp_3.rt,key_resp_3.started,key_resp_3.stopped,text_3.started,text_3.stopped,key_resp_2.keys,key_resp_2.rt,key_resp_2.started,key_resp_2.stopped,PractIn1.started,PractIn1.stopped,PractIn2.started,PractIn2.stopped,PractInstructionPass.keys,PractInstructionPass.rt,PractInstructionPass.started,PractInstructionPass.stopped,PractBlock1.started,PractBlock1.stopped,ISIjitterPractice,ISI_Pract_Fixation.started,ISI_Pract_Fixation.stopped,N_backP.started,N_backP.stopped,KeyPractice.keys,KeyPractice.corr,KeyPractice.started,KeyPractice.stopped,text_4.started,text_4.stopped,KeyPractice.rt,TransitionText.started,TransitionText.stopped,key_resp_6.keys,key_resp_6.rt,key_resp_6.started,key_resp_6.stopped,text_5.started,text_5.stopped,key_resp_5.keys,key_resp_5.rt,key_resp_5.started,key_resp_5.stopped,MainInt1.started,MainInt1.stopped,MainInt2.started,MainInt2.stopped,InstructionPass.keys,InstructionPass.rt,InstructionPass.started,InstructionPass.stopped,Blocks1.started,Blocks1.stopped,ISIjitter,N_backD.started,N_backD.stopped,key_resp.keys,key_resp.corr,key_resp.started,key_resp.stopped,key_resp.rt,participant,Study Name,Task Version (required to run),PRE/POST,date,expName,psychopyVersion,frameRate,
,,,,,,,,,,,,,,,,,,,,,,,,25.4917028999771,None,space,86.27005920000374,25.988016499963123,None,,,,,,,,,,,,,,,,,,,,,,,,,,,,,,,,,,,,,,,,,,,,,,,,,,,,,,,,,,,,,,,,,,,,,,,P038,fencog,1,Pre,2022_Apr_26_1100,N-Back (New Version 2021),2021.1.4,120.3443291826842,
,,,,,,,,,,,,,,,,,,,,,,,,,,,,,,112.29116199997952,None,space,6.022469700023066,112.78774029994383,None,,,,,,,,,,,,,,,,,,,,,,,,,,,,,,,,,,,,,,,,,,,,,,,,,,,,,,,,,,,,,,,,,P038,fencog,1,Pre,2022_Apr_26_1100,N-Back (New Version 2021),2021.1.4,120.3443291826842,
,,,,,,,,,,,,,,,,,,,,,,,,,,,,,,,,,,,,118.84557319997111,None,space,7.610133600013796,119.33585669996683,None,,,,,,,,,,,,,,,,,,,,,,,,,,,,,,,,,,,,,,,,,,,,,,,,,,,,,,,,,,,P038,fencog,1,Pre,2022_Apr_26_1100,N-Back (New Version 2021),2021.1.4,120.3443291826842,
,,,,,,,,,,,,,,,,,,,,,,,,,,,,,,,,,,,,,,,,,,126.97522659995593,None,space,11.64723070000764,127.46681329997955,None,,,,,,,,,,,,,,,,,,,,,,,,,,,,,,,,,,,,,,,,,,,,,,,,,,,,,P038,fencog,1,Pre,2022_Apr_26_1100,N-Back (New Version 2021),2021.1.4,120.3443291826842,
Conditions/Version_1Pr/zeroback(1)_v1.xlsx,Rule: Press 'space' when you see the letter 'x' or 'X'.,Z,None,,,,,0,0,0,0,0,0,0,0,,,,,,,,,,,,,,,,,,,,,,,,,,,,,,,,,140.49531869997736,None,143.48790939996252,None,space,1.8582702999701723,143.48790939996252,None,140.49531869997736,None,1.515,145.3831899999641,None,146.9062046999461,None,None,1,146.9062046999461,None,148.91137529996922,None,,,,,,,,,,,,,,,,,,,,,,,,,,,,,,,,P038,fencog,1,Pre,2022_Apr_26_1100,N-Back (New Version 2021),2021.1.4,120.3443291826842,
Conditions/Version_1Pr/zeroback(1)_v1.xlsx,Rule: Press 'space' when you see the letter 'x' or 'X'.,r,None,,,,,0,0,0,0,0,1,1,1,,,,,,,,,,,,,,,,,,,,,,,,,,,,,,,,,,,,,,,,,,,1.965,150.40919009997742,None,152.3755021999823,None,None,1,152.3755021999823,None,154.3744390999782,None,,,,,,,,,,,,,,,,,,,,,,,,,,,,,,,,P038,fencog,1,Pre,2022_Apr_26_1100,N-Back (New Version 2021),2021.1.4,120.3443291826842,
Conditions/Version_1Pr/zeroback(1)_v1.xlsx,Rule: Press 'space' when you see the letter 'x' or 'X'.,X,space,,,,,0,0,0,0,0,2,2,2,,,,,,,,,,,,,,,,,,,,,,,,,,,,,,,,,,,,,,,,,,,1.59,155.87430849997327,None,157.46879639994586,None,space,1,157.46879639994586,None,157.89963739999803,None,0.42131120001431555,,,,,,,,,,,,,,,,,,,,,,,,,,,,,,,P038,fencog,1,Pre,2022_Apr_26_1100,N-Back (New Version 2021),2021.1.4,120.3443291826842,
Conditions/Version_1Pr/zeroback(1)_v1.xlsx,Rule: Press 'space' when you see the letter 'x' or 'X'.,p,None,,,,,0,0,0,0,0,3,3,3,,,,,,,,,,,,,,,,,,,,,,,,,,,,,,,,,,,,,,,,,,,1.465,159.4064717000001,None,160.87409879994811,None,None,1,160.87409879994811,None,162.88050609995844,None,,,,,,,,,,,,,,,,,,,,,,,,,,,,,,,,P038,fencog,1,Pre,2022_Apr_26_1100,N-Back (New Version 2021),2021.1.4,120.3443291826842,
Conditions/Version_1Pr/zeroback(1)_v1.xlsx,Rule: Press 'space' when you see the letter 'x' or 'X'.,w,None,,,,,0,0,0,0,0,4,4,4,,,,,,,,,,,,,,,,,,,,,,,,,,,,,,,,,,,,,,,,,,,1.14,164.38005539996084,None,165.52433249994647,None,None,1,165.52433249994647,None,167.52913269994315,None,,,,,,,,,,,,,,,,,,,,,,,,,,,,,,,,P038,fencog,1,Pre,2022_Apr_26_1100,N-Back (New Version 2021),2021.1.4,120.3443291826842,
Conditions/Version_1Pr/zeroback(1)_v1.xlsx,Rule: Press 'space' when you see the letter 'x' or 'X'.,e,None,,,,,0,0,0,0,0,5,5,5,,,,,,,,,,,,,,,,,,,,,,,,,,,,,,,,,,,,,,,,,,,1.815,169.0286303999601,None,170.84633739996934,None,None,1,170.84633739996934,None,172.8524920999771,None,,,,,,,,,,,,,,,,,,,,,,,,,,,,,,,,P038,fencog,1,Pre,2022_Apr_26_1100,N-Back (New Version 2021),2021.1.4,120.3443291826842,
Conditions/Version_1Pr/zeroback(1)_v1.xlsx,Rule: Press 'space' when you see the letter 'x' or 'X'.,X,space,,,,,0,0,0,0,0,6,6,6,,,,,,,,,,,,,,,,,,,,,,,,,,,,,,,,,,,,,,,,,,,1.54,174.3521179999807,None,175.89411189995008,None,space,1,175.89411189995008,None,176.59439389995532,None,0.6837869000155479,,,,,,,,,,,,,,,,,,,,,,,,,,,,,,,P038,fencog,1,Pre,2022_Apr_26_1100,N-Back (New Version 2021),2021.1.4,120.3443291826842,
Conditions/Version_1Pr/zeroback(1)_v1.xlsx,Rule: Press 'space' when you see the letter 'x' or 'X'.,x,space,,,,,0,0,0,0,0,7,7,7,,,,,,,,,,,,,,,,,,,,,,,,,,,,,,,,,,,,,,,,,,,1.165,178.10093669994967,None,179.26905909995548,None,space,1,179.26905909995548,None,179.91855289996602,None,0.6369187000091188,,,,,,,,,,,,,,,,,,,,,,,,,,,,,,,P038,fencog,1,Pre,2022_Apr_26_1100,N-Back (New Version 2021),2021.1.4,120.3443291826842,
Conditions/Version_1Pr/zeroback(1)_v1.xlsx,Rule: Press 'space' when you see the letter 'x' or 'X'.,p,None,,,,,0,0,0,0,0,8,8,8,,,,,,,,,,,,,,,,,,,,,,,,,,,,,,,,,,,,,,,,,,,1.115,181.42503549996763,None,182.54232909996063,None,None,1,182.54232909996063,None,184.5489028999582,None,,,,,,,,,,,,,,,,,,,,,,,,,,,,,,,,P038,fencog,1,Pre,2022_Apr_26_1100,N-Back (New Version 2021),2021.1.4,120.3443291826842,
Conditions/Version_1Pr/zeroback(1)_v1.xlsx,Rule: Press 'space' when you see the letter 'x' or 'X'.,r,None,,,,,0,0,0,0,0,9,9,9,,,,,,,,,,,,,,,,,,,,,,,,,,,,,,,,,,,,,,,,,,,1.915,186.04864359996282,None,187.9655590999755,None,None,1,187.9655590999755,None,189.96660479996353,None,,,,,,,,,,,,,,,,,,,,,,,,,,,,,,,,P038,fencog,1,Pre,2022_Apr_26_1100,N-Back (New Version 2021),2021.1.4,120.3443291826842,
Conditions/Version_1Pr/zeroback(1)_v1.xlsx,Rule: Press 'space' when you see the letter 'x' or 'X'.,,,,,,,0,0,0,0,,,,,,,,,,,,,,,,,,,,,,,,,,,,,,,,,,,,,,,,,,,,,,,,,,,,,,,,,,,,,,,,,,,,,,,,,,,,,,,,,,,,,,,,,P038,fencog,1,Pre,2022_Apr_26_1100,N-Back (New Version 2021),2021.1.4,120.3443291826842,
Conditions/Version_1Pr/oneback(1)_v1.xlsx,New rule: Press 'space' when you see 1-back (i.e. the same letter as the one that appeared 1 letter ago.),a,None,,,,,0,1,1,1,0,0,0,0,,,,,,,,,,,,,,,,,,,,,,,,,,,,,,,,,191.49509079998825,None,194.4815167999477,None,space,8.656371399993077,194.4815167999477,None,191.49509079998825,None,1.84,203.1690157999983,None,205.01174009998795,None,None,1,205.01174009998795,None,207.01752059999853,None,,,,,,,,,,,,,,,,,,,,,,,,,,,,,,,,P038,fencog,1,Pre,2022_Apr_26_1100,N-Back (New Version 2021),2021.1.4,120.3443291826842,
Conditions/Version_1Pr/oneback(1)_v1.xlsx,New rule: Press 'space' when you see 1-back (i.e. the same letter as the one that appeared 1 letter ago.),x,None,,,,,0,1,1,1,0,1,1,1,,,,,,,,,,,,,,,,,,,,,,,,,,,,,,,,,,,,,,,,,,,1.065,208.51699199998984,None,209.58330199995544,None,None,1,209.58330199995544,None,211.5843483999488,None,,,,,,,,,,,,,,,,,,,,,,,,,,,,,,,,P038,fencog,1,Pre,2022_Apr_26_1100,N-Back (New Version 2021),2021.1.4,120.3443291826842,
Conditions/Version_1Pr/oneback(1)_v1.xlsx,New rule: Press 'space' when you see 1-back (i.e. the same letter as the one that appeared 1 letter ago.),g,None,,,,,0,1,1,1,0,2,2,2,,,,,,,,,,,,,,,,,,,,,,,,,,,,,,,,,,,,,,,,,,,1.665,213.09059659997,None,214.75813879998168,None,None,1,214.75813879998168,None,216.76453899999615,None,,,,,,,,,,,,,,,,,,,,,,,,,,,,,,,,P038,fencog,1,Pre,2022_Apr_26_1100,N-Back (New Version 2021),2021.1.4,120.3443291826842,
Conditions/Version_1Pr/oneback(1)_v1.xlsx,New rule: Press 'space' when you see 1-back (i.e. the same letter as the one that appeared 1 letter ago.),G,space,,,,,0,1,1,1,0,3,3,3,,,,,,,,,,,,,,,,,,,,,,,,,,,,,,,,,,,,,,,,,,,1.465,218.2640989999636,None,219.73465499997837,None,space,1,219.73465499997837,None,220.10653579997597,None,0.35520399996312335,,,,,,,,,,,,,,,,,,,,,,,,,,,,,,,P038,fencog,1,Pre,2022_Apr_26_1100,N-Back (New Version 2021),2021.1.4,120.3443291826842,
Conditions/Version_1Pr/oneback(1)_v1.xlsx,New rule: Press 'space' when you see 1-back (i.e. the same letter as the one that appeared 1 letter ago.),u,None,,,,,0,1,1,1,0,4,4,4,,,,,,,,,,,,,,,,,,,,,,,,,,,,,,,,,,,,,,,,,,,1.39,221.61306359997252,None,223.00491979997605,None,None,1,223.00491979997605,None,225.01206639996963,None,,,,,,,,,,,,,,,,,,,,,,,,,,,,,,,,P038,fencog,1,Pre,2022_Apr_26_1100,N-Back (New Version 2021),2021.1.4,120.3443291826842,
Conditions/Version_1Pr/oneback(1)_v1.xlsx,New rule: Press 'space' when you see 1-back (i.e. the same letter as the one that appeared 1 letter ago.),y,None,,,,,0,1,1,1,0,5,5,5,,,,,,,,,,,,,,,,,,,,,,,,,,,,,,,,,,,,,,,,,,,1.215,226.51163549994817,None,227.729432299966,None,None,1,227.729432299966,None,229.73564289999194,None,,,,,,,,,,,,,,,,,,,,,,,,,,,,,,,,P038,fencog,1,Pre,2022_Apr_26_1100,N-Back (New Version 2021),2021.1.4,120.3443291826842,
Conditions/Version_1Pr/oneback(1)_v1.xlsx,New rule: Press 'space' when you see 1-back (i.e. the same letter as the one that appeared 1 letter ago.),y,space,,,,,0,1,1,1,0,6,6,6,,,,,,,,,,,,,,,,,,,,,,,,,,,,,,,,,,,,,,,,,,,1.09,231.2351881999639,None,232.32638929999666,None,space,1,232.32638929999666,None,233.86082729999907,None,1.5234813999850303,,,,,,,,,,,,,,,,,,,,,,,,,,,,,,,P038,fencog,1,Pre,2022_Apr_26_1100,N-Back (New Version 2021),2021.1.4,120.3443291826842,
Conditions/Version_1Pr/oneback(1)_v1.xlsx,New rule: Press 'space' when you see 1-back (i.e. the same letter as the one that appeared 1 letter ago.),k,None,,,,,0,1,1,1,0,7,7,7,,,,,,,,,,,,,,,,,,,,,,,,,,,,,,,,,,,,,,,,,,,1.04,235.36729549994925,None,236.4139167999965,None,None,1,236.4139167999965,None,238.41636609996203,None,,,,,,,,,,,,,,,,,,,,,,,,,,,,,,,,P038,fencog,1,Pre,2022_Apr_26_1100,N-Back (New Version 2021),2021.1.4,120.3443291826842,
Conditions/Version_1Pr/oneback(1)_v1.xlsx,New rule: Press 'space' when you see 1-back (i.e. the same letter as the one that appeared 1 letter ago.),c,None,,,,,0,1,1,1,0,8,8,8,,,,,,,,,,,,,,,,,,,,,,,,,,,,,,,,,,,,,,,,,,,1.69,239.91598359995987,None,241.6078070999938,None,None,1,241.6078070999938,None,243.61489459994482,None,,,,,,,,,,,,,,,,,,,,,,,,,,,,,,,,P038,fencog,1,Pre,2022_Apr_26_1100,N-Back (New Version 2021),2021.1.4,120.3443291826842,
Conditions/Version_1Pr/oneback(1)_v1.xlsx,New rule: Press 'space' when you see 1-back (i.e. the same letter as the one that appeared 1 letter ago.),r,None,,,,,0,1,1,1,0,9,9,9,,,,,,,,,,,,,,,,,,,,,,,,,,,,,,,,,,,,,,,,,,,1.44,245.11445289995754,None,246.55757029994857,None,None,1,246.55757029994857,None,248.5635012999992,None,,,,,,,,,,,,,,,,,,,,,,,,,,,,,,,,P038,fencog,1,Pre,2022_Apr_26_1100,N-Back (New Version 2021),2021.1.4,120.3443291826842,
Conditions/Version_1Pr/oneback(1)_v1.xlsx,New rule: Press 'space' when you see 1-back (i.e. the same letter as the one that appeared 1 letter ago.),,,,,,,0,1,1,1,,,,,,,,,,,,,,,,,,,,,,,,,,,,,,,,,,,,,,,,,,,,,,,,,,,,,,,,,,,,,,,,,,,,,,,,,,,,,,,,,,,,,,,,,P038,fencog,1,Pre,2022_Apr_26_1100,N-Back (New Version 2021),2021.1.4,120.3443291826842,
Conditions/Version_1Pr/twoback(1)_v1.xlsx,New rule: Press 'space' when you see 2-back (i.e. the same letter as the one that appeared 2 letters ago.),E,None,,,,,0,2,2,2,0,0,0,0,,,,,,,,,,,,,,,,,,,,,,,,,,,,,,,,,250.08704759995453,None,253.07240009994712,None,space,0.6493806999642402,253.07240009994712,None,250.08704759995453,None,1.04,253.75070109998342,None,254.79623839998385,None,None,1,254.79623839998385,None,256.8026111999643,None,,,,,,,,,,,,,,,,,,,,,,,,,,,,,,,,P038,fencog,1,Pre,2022_Apr_26_1100,N-Back (New Version 2021),2021.1.4,120.3443291826842,
Conditions/Version_1Pr/twoback(1)_v1.xlsx,New rule: Press 'space' when you see 2-back (i.e. the same letter as the one that appeared 2 letters ago.),p,None,,,,,0,2,2,2,0,1,1,1,,,,,,,,,,,,,,,,,,,,,,,,,,,,,,,,,,,,,,,,,,,1.94,258.3022062999662,None,260.2449935999466,None,None,1,260.2449935999466,None,262.25093719997676,None,,,,,,,,,,,,,,,,,,,,,,,,,,,,,,,,P038,fencog,1,Pre,2022_Apr_26_1100,N-Back (New Version 2021),2021.1.4,120.3443291826842,
Conditions/Version_1Pr/twoback(1)_v1.xlsx,New rule: Press 'space' when you see 2-back (i.e. the same letter as the one that appeared 2 letters ago.),e,space,,,,,0,2,2,2,0,2,2,2,,,,,,,,,,,,,,,,,,,,,,,,,,,,,,,,,,,,,,,,,,,1.64,263.750562399975,None,265.39245269994717,None,space,1,265.39245269994717,None,265.8263925999636,None,0.4172234999714419,,,,,,,,,,,,,,,,,,,,,,,,,,,,,,,P038,fencog,1,Pre,2022_Apr_26_1100,N-Back (New Version 2021),2021.1.4,120.3443291826842,
Conditions/Version_1Pr/twoback(1)_v1.xlsx,New rule: Press 'space' when you see 2-back (i.e. the same letter as the one that appeared 2 letters ago.),s,None,,,,,0,2,2,2,0,3,3,3,,,,,,,,,,,,,,,,,,,,,,,,,,,,,,,,,,,,,,,,,,,1.715,267.33241709996946,None,269.05054829997243,None,None,1,269.05054829997243,None,271.05670179997105,None,,,,,,,,,,,,,,,,,,,,,,,,,,,,,,,,P038,fencog,1,Pre,2022_Apr_26_1100,N-Back (New Version 2021),2021.1.4,120.3443291826842,
Conditions/Version_1Pr/twoback(1)_v1.xlsx,New rule: Press 'space' when you see 2-back (i.e. the same letter as the one that appeared 2 letters ago.),S,None,,,,,0,2,2,2,0,4,4,4,,,,,,,,,,,,,,,,,,,,,,,,,,,,,,,,,,,,,,,,,,,1.165,272.5562664999743,None,273.728137099999,None,None,1,273.728137099999,None,275.73040439997567,None,,,,,,,,,,,,,,,,,,,,,,,,,,,,,,,,P038,fencog,1,Pre,2022_Apr_26_1100,N-Back (New Version 2021),2021.1.4,120.3443291826842,
Conditions/Version_1Pr/twoback(1)_v1.xlsx,New rule: Press 'space' when you see 2-back (i.e. the same letter as the one that appeared 2 letters ago.),s,space,,,,,0,2,2,2,0,5,5,5,,,,,,,,,,,,,,,,,,,,,,,,,,,,,,,,,,,,,,,,,,,1.615,277.23001999995904,None,278.8470290999976,None,space,1,278.8470290999976,None,279.3391296999762,None,0.4826715999515727,,,,,,,,,,,,,,,,,,,,,,,,,,,,,,,P038,fencog,1,Pre,2022_Apr_26_1100,N-Back (New Version 2021),2021.1.4,120.3443291826842,
Conditions/Version_1Pr/twoback(1)_v1.xlsx,New rule: Press 'space' when you see 2-back (i.e. the same letter as the one that appeared 2 letters ago.),P,None,,,,,0,2,2,2,0,6,6,6,,,,,,,,,,,,,,,,,,,,,,,,,,,,,,,,,,,,,,,,,,,1.84,280.8454896999756,None,282.6883076999802,None,None,1,282.6883076999802,None,284.6944198999554,None,,,,,,,,,,,,,,,,,,,,,,,,,,,,,,,,P038,fencog,1,Pre,2022_Apr_26_1100,N-Back (New Version 2021),2021.1.4,120.3443291826842,
Conditions/Version_1Pr/twoback(1)_v1.xlsx,New rule: Press 'space' when you see 2-back (i.e. the same letter as the one that appeared 2 letters ago.),C,None,,,,,0,2,2,2,0,7,7,7,,,,,,,,,,,,,,,,,,,,,,,,,,,,,,,,,,,,,,,,,,,1.465,286.19400109996786,None,287.66169579996495,None,None,1,287.66169579996495,None,289.6674766999786,None,,,,,,,,,,,,,,,,,,,,,,,,,,,,,,,,P038,fencog,1,Pre,2022_Apr_26_1100,N-Back (New Version 2021),2021.1.4,120.3443291826842,
Conditions/Version_1Pr/twoback(1)_v1.xlsx,New rule: Press 'space' when you see 2-back (i.e. the same letter as the one that appeared 2 letters ago.),x,None,,,,,0,2,2,2,0,8,8,8,,,,,,,,,,,,,,,,,,,,,,,,,,,,,,,,,,,,,,,,,,,1.19,291.1674401999917,None,292.35827469994547,None,None,1,292.35827469994547,None,294.3577490999596,None,,,,,,,,,,,,,,,,,,,,,,,,,,,,,,,,P038,fencog,1,Pre,2022_Apr_26_1100,N-Back (New Version 2021),2021.1.4,120.3443291826842,
Conditions/Version_1Pr/twoback(1)_v1.xlsx,New rule: Press 'space' when you see 2-back (i.e. the same letter as the one that appeared 2 letters ago.),Z,None,,,,,0,2,2,2,0,9,9,9,,,,,,,,,,,,,,,,,,,,,,,,,,,,,,,,,,,,,,,,,,,1.665,295.85734639997827,None,297.52610249997815,None,None,1,297.52610249997815,None,299.5316119999625,None,,,,,,,,,,,,,,,,,,,,,,,,,,,,,,,,P038,fencog,1,Pre,2022_Apr_26_1100,N-Back (New Version 2021),2021.1.4,120.3443291826842,
Conditions/Version_1Pr/twoback(1)_v1.xlsx,New rule: Press 'space' when you see 2-back (i.e. the same letter as the one that appeared 2 letters ago.),,,,,,,0,2,2,2,,,,,,,,,,,,,,,,,,,,,,,,,,,,,,,,,,,,,,,,,,,,,,,,,,,,,,,,,,,,,,,,,,,,,,,,,,,,,,,,,,,,,,,,,P038,fencog,1,Pre,2022_Apr_26_1100,N-Back (New Version 2021),2021.1.4,120.3443291826842,
Conditions/Version_1Pr/threeback(1)_v1.xlsx,New rule: Press 'space' when you see 3-back (i.e. the same letter as the one that appeared 3 letters ago.),r,None,,,,,0,3,3,3,0,0,0,0,,,,,,,,,,,,,,,,,,,,,,,,,,,,,,,,,301.05171849997714,None,304.04000519996043,None,space,0.4098056000075303,304.04000519996043,None,301.05171849997714,None,1.515,304.4785479999846,None,305.9963870999636,None,None,1,305.9963870999636,None,307.99626669997815,None,,,,,,,,,,,,,,,,,,,,,,,,,,,,,,,,P038,fencog,1,Pre,2022_Apr_26_1100,N-Back (New Version 2021),2021.1.4,120.3443291826842,
Conditions/Version_1Pr/threeback(1)_v1.xlsx,New rule: Press 'space' when you see 3-back (i.e. the same letter as the one that appeared 3 letters ago.),a,None,,,,,0,3,3,3,0,1,1,1,,,,,,,,,,,,,,,,,,,,,,,,,,,,,,,,,,,,,,,,,,,1.64,309.4989069000003,None,311.14563509996515,None,None,1,311.14563509996515,None,313.1526631999877,None,,,,,,,,,,,,,,,,,,,,,,,,,,,,,,,,P038,fencog,1,Pre,2022_Apr_26_1100,N-Back (New Version 2021),2021.1.4,120.3443291826842,
Conditions/Version_1Pr/threeback(1)_v1.xlsx,New rule: Press 'space' when you see 3-back (i.e. the same letter as the one that appeared 3 letters ago.),t,None,,,,,0,3,3,3,0,2,2,2,,,,,,,,,,,,,,,,,,,,,,,,,,,,,,,,,,,,,,,,,,,1.415,314.65215579996584,None,316.06985879997956,None,None,1,316.06985879997956,None,318.07607129996177,None,,,,,,,,,,,,,,,,,,,,,,,,,,,,,,,,P038,fencog,1,Pre,2022_Apr_26_1100,N-Back (New Version 2021),2021.1.4,120.3443291826842,
Conditions/Version_1Pr/threeback(1)_v1.xlsx,New rule: Press 'space' when you see 3-back (i.e. the same letter as the one that appeared 3 letters ago.),r,space,,,,,0,3,3,3,0,3,3,3,,,,,,,,,,,,,,,,,,,,,,,,,,,,,,,,,,,,,,,,,,,1.915,319.5757003999897,None,321.49259479995817,None,space,1,321.49259479995817,None,321.9671065000002,None,0.461085400020238,,,,,,,,,,,,,,,,,,,,,,,,,,,,,,,P038,fencog,1,Pre,2022_Apr_26_1100,N-Back (New Version 2021),2021.1.4,120.3443291826842,
Conditions/Version_1Pr/threeback(1)_v1.xlsx,New rule: Press 'space' when you see 3-back (i.e. the same letter as the one that appeared 3 letters ago.),a,None,,,,,0,3,3,3,0,4,4,4,,,,,,,,,,,,,,,,,,,,,,,,,,,,,,,,,,,,,,,,,,,1.09,323.4661347999936,None,324.5583937999909,None,space,0,324.5583937999909,None,326.2374662999646,None,1.6594439999898896,,,,,,,,,,,,,,,,,,,,,,,,,,,,,,,P038,fencog,1,Pre,2022_Apr_26_1100,N-Back (New Version 2021),2021.1.4,120.3443291826842,
Conditions/Version_1Pr/threeback(1)_v1.xlsx,New rule: Press 'space' when you see 3-back (i.e. the same letter as the one that appeared 3 letters ago.),Y,None,,,,,0,3,3,3,0,5,5,5,,,,,,,,,,,,,,,,,,,,,,,,,,,,,,,,,,,,,,,,,,,1.79,327.7398772999877,None,329.5330027999589,None,None,1,329.5330027999589,None,331.53993009997066,None,,,,,,,,,,,,,,,,,,,,,,,,,,,,,,,,P038,fencog,1,Pre,2022_Apr_26_1100,N-Back (New Version 2021),2021.1.4,120.3443291826842,
Conditions/Version_1Pr/threeback(1)_v1.xlsx,New rule: Press 'space' when you see 3-back (i.e. the same letter as the one that appeared 3 letters ago.),q,None,,,,,0,3,3,3,0,6,6,6,,,,,,,,,,,,,,,,,,,,,,,,,,,,,,,,,,,,,,,,,,,1.29,333.0383429999929,None,334.3352906999644,None,None,1,334.3352906999644,None,336.3374481999781,None,,,,,,,,,,,,,,,,,,,,,,,,,,,,,,,,P038,fencog,1,Pre,2022_Apr_26_1100,N-Back (New Version 2021),2021.1.4,120.3443291826842,
Conditions/Version_1Pr/threeback(1)_v1.xlsx,New rule: Press 'space' when you see 3-back (i.e. the same letter as the one that appeared 3 letters ago.),A,space,,,,,0,3,3,3,0,7,7,7,,,,,,,,,,,,,,,,,,,,,,,,,,,,,,,,,,,,,,,,,,,1.815,337.8369635999552,None,339.6593243999523,None,None,0,339.6593243999523,None,341.6657826999435,None,,,,,,,,,,,,,,,,,,,,,,,,,,,,,,,,P038,fencog,1,Pre,2022_Apr_26_1100,N-Back (New Version 2021),2021.1.4,120.3443291826842,
Conditions/Version_1Pr/threeback(1)_v1.xlsx,New rule: Press 'space' when you see 3-back (i.e. the same letter as the one that appeared 3 letters ago.),y,None,,,,,0,3,3,3,0,8,8,8,,,,,,,,,,,,,,,,,,,,,,,,,,,,,,,,,,,,,,,,,,,1.99,343.16009969997685,None,345.15299279999454,None,space,0,345.15299279999454,None,346.4632946999627,None,1.2967350999824703,,,,,,,,,,,,,,,,,,,,,,,,,,,,,,,P038,fencog,1,Pre,2022_Apr_26_1100,N-Back (New Version 2021),2021.1.4,120.3443291826842,
Conditions/Version_1Pr/threeback(1)_v1.xlsx,New rule: Press 'space' when you see 3-back (i.e. the same letter as the one that appeared 3 letters ago.),r,None,,,,,0,3,3,3,0,9,9,9,,,,,,,,,,,,,,,,,,,,,,,,,,,,,,,,,,,,,,,,,,,1.94,347.9670289999922,None,349.90793129999656,None,None,1,349.90793129999656,None,351.90917139995145,None,,,,,,,,,,,,,,,,,,,,,,,,,,,,,,,,P038,fencog,1,Pre,2022_Apr_26_1100,N-Back (New Version 2021),2021.1.4,120.3443291826842,
Conditions/Version_1Pr/threeback(1)_v1.xlsx,New rule: Press 'space' when you see 3-back (i.e. the same letter as the one that appeared 3 letters ago.),,,,,,,0,3,3,3,,,,,,,,,,,,,,,,,,,,,,,,,,,,,,,,,,,,,,,,,,,,,,,,,,,,,,,,,,,,,,,,,,,,,,,,,,,,,,,,,,,,,,,,,P038,fencog,1,Pre,2022_Apr_26_1100,N-Back (New Version 2021),2021.1.4,120.3443291826842,
,,,,,,,,,,,,,,,,,,,,,,,,,,,,,,,,,,,,,,,,,,,,,,,,,,,,,,,,,,,,,,,,,,,,,,353.4216447999934,None,space,1.6300512000452727,353.9157992999535,None,,,,,,,,,,,,,,,,,,,,,,,,,P038,fencog,1,Pre,2022_Apr_26_1100,N-Back (New Version 2021),2021.1.4,120.3443291826842,
,,,,,,,,,,,,,,,,,,,,,,,,,,,,,,,,,,,,,,,,,,,,,,,,,,,,,,,,,,,,,,,,,,,,,,,,,,,,355.5827955999994,None,space,4.015768599987496,356.0737216999987,None,,,,,,,,,,,,,,,,,,,P038,fencog,1,Pre,2022_Apr_26_1100,N-Back (New Version 2021),2021.1.4,120.3443291826842,
,,,,Conditions/Version_1/zeroback(1)_v1.xlsx,Rule: Press 'space' when you see the letter 'x' or 'X'.,b,None,,,,,,,,,0,0,0,0,0,0,0,0,,,,,,,,,,,,,,,,,,,,,,,,,,,,,,,,,,,,,,,,,,,,,,,,,,,,,,,,,,,360.20570849999785,None,363.1896874999511,None,space,0.5158186000189744,363.1896874999511,None,360.20570849999785,None,1.599,365.3391497999546,None,None,1,365.3391497999546,None,,P038,fencog,1,Pre,2022_Apr_26_1100,N-Back (New Version 2021),2021.1.4,120.3443291826842,
,,,,Conditions/Version_1/zeroback(1)_v1.xlsx,Rule: Press 'space' when you see the letter 'x' or 'X'.,T,None,,,,,,,,,0,0,0,0,0,1,1,1,,,,,,,,,,,,,,,,,,,,,,,,,,,,,,,,,,,,,,,,,,,,,,,,,,,,,,,,,,,,,,,,,,,,,1.2146,368.5611581999692,None,None,1,368.5611581999692,None,,P038,fencog,1,Pre,2022_Apr_26_1100,N-Back (New Version 2021),2021.1.4,120.3443291826842,
,,,,Conditions/Version_1/zeroback(1)_v1.xlsx,Rule: Press 'space' when you see the letter 'x' or 'X'.,L,None,,,,,,,,,0,0,0,0,0,2,2,2,,,,,,,,,,,,,,,,,,,,,,,,,,,,,,,,,,,,,,,,,,,,,,,,,,,,,,,,,,,,,,,,,,,,,1.258,371.8291833999683,None,None,1,371.8291833999683,None,,P038,fencog,1,Pre,2022_Apr_26_1100,N-Back (New Version 2021),2021.1.4,120.3443291826842,
,,,,Conditions/Version_1/zeroback(1)_v1.xlsx,Rule: Press 'space' when you see the letter 'x' or 'X'.,x,space,,,,,,,,,0,0,0,0,0,3,3,3,,,,,,,,,,,,,,,,,,,,,,,,,,,,,,,,,,,,,,,,,,,,,,,,,,,,,,,,,,,,,,,,,,,,,1.6486,375.4839470999432,None,space,1,375.4839470999432,None,1.8137506999773905,P038,fencog,1,Pre,2022_Apr_26_1100,N-Back (New Version 2021),2021.1.4,120.3443291826842,
,,,,Conditions/Version_1/zeroback(1)_v1.xlsx,Rule: Press 'space' when you see the letter 'x' or 'X'.,o,None,,,,,,,,,0,0,0,0,0,4,4,4,,,,,,,,,,,,,,,,,,,,,,,,,,,,,,,,,,,,,,,,,,,,,,,,,,,,,,,,,,,,,,,,,,,,,1.0596,378.55244239995955,None,None,1,378.55244239995955,None,,P038,fencog,1,Pre,2022_Apr_26_1100,N-Back (New Version 2021),2021.1.4,120.3443291826842,
,,,,Conditions/Version_1/zeroback(1)_v1.xlsx,Rule: Press 'space' when you see the letter 'x' or 'X'.,P,None,,,,,,,,,0,0,0,0,0,5,5,5,,,,,,,,,,,,,,,,,,,,,,,,,,,,,,,,,,,,,,,,,,,,,,,,,,,,,,,,,,,,,,,,,,,,,1.475,382.0318841999979,None,None,1,382.0318841999979,None,,P038,fencog,1,Pre,2022_Apr_26_1100,N-Back (New Version 2021),2021.1.4,120.3443291826842,
,,,,Conditions/Version_1/zeroback(1)_v1.xlsx,Rule: Press 'space' when you see the letter 'x' or 'X'.,X,space,,,,,,,,,0,0,0,0,0,6,6,6,,,,,,,,,,,,,,,,,,,,,,,,,,,,,,,,,,,,,,,,,,,,,,,,,,,,,,,,,,,,,,,,,,,,,1.7726,385.806849399989,None,space,1,385.806849399989,None,0.4827571000205353,P038,fencog,1,Pre,2022_Apr_26_1100,N-Back (New Version 2021),2021.1.4,120.3443291826842,
,,,,Conditions/Version_1/zeroback(1)_v1.xlsx,Rule: Press 'space' when you see the letter 'x' or 'X'.,n,None,,,,,,,,,0,0,0,0,0,7,7,7,,,,,,,,,,,,,,,,,,,,,,,,,,,,,,,,,,,,,,,,,,,,,,,,,,,,,,,,,,,,,,,,,,,,,1.94,389.75750209996477,None,None,1,389.75750209996477,None,,P038,fencog,1,Pre,2022_Apr_26_1100,N-Back (New Version 2021),2021.1.4,120.3443291826842,
,,,,Conditions/Version_1/zeroback(1)_v1.xlsx,Rule: Press 'space' when you see the letter 'x' or 'X'.,M,None,,,,,,,,,0,0,0,0,0,8,8,8,,,,,,,,,,,,,,,,,,,,,,,,,,,,,,,,,,,,,,,,,,,,,,,,,,,,,,,,,,,,,,,,,,,,,1.4254,393.18804969999474,None,None,1,393.18804969999474,None,,P038,fencog,1,Pre,2022_Apr_26_1100,N-Back (New Version 2021),2021.1.4,120.3443291826842,
,,,,Conditions/Version_1/zeroback(1)_v1.xlsx,Rule: Press 'space' when you see the letter 'x' or 'X'.,a,None,,,,,,,,,0,0,0,0,0,9,9,9,,,,,,,,,,,,,,,,,,,,,,,,,,,,,,,,,,,,,,,,,,,,,,,,,,,,,,,,,,,,,,,,,,,,,1.8346,397.03689599997597,None,None,1,397.03689599997597,None,,P038,fencog,1,Pre,2022_Apr_26_1100,N-Back (New Version 2021),2021.1.4,120.3443291826842,
,,,,Conditions/Version_1/zeroback(1)_v1.xlsx,Rule: Press 'space' when you see the letter 'x' or 'X'.,,,,,,,,,,,0,0,0,0,,,,,,,,,,,,,,,,,,,,,,,,,,,,,,,,,,,,,,,,,,,,,,,,,,,,,,,,,,,,,,,,,,,,,,,,,,,,,,,,,P038,fencog,1,Pre,2022_Apr_26_1100,N-Back (New Version 2021),2021.1.4,120.3443291826842,
,,,,Conditions/Version_1/oneback(1)_v1.xlsx,New rule: Press 'space' when you see 1-back (i.e. the same letter as the one that appeared 1 letter ago.),b,None,,,,,,,,,0,1,1,1,0,0,0,0,,,,,,,,,,,,,,,,,,,,,,,,,,,,,,,,,,,,,,,,,,,,,,,,,,,,,,,,,,,399.06604979996337,None,402.0532295999583,None,space,0.3881646000081673,402.0532295999583,None,399.06604979996337,None,1.8346,404.31081299996004,None,None,1,404.31081299996004,None,,P038,fencog,1,Pre,2022_Apr_26_1100,N-Back (New Version 2021),2021.1.4,120.3443291826842,
,,,,Conditions/Version_1/oneback(1)_v1.xlsx,New rule: Press 'space' when you see 1-back (i.e. the same letter as the one that appeared 1 letter ago.),p,None,,,,,,,,,0,1,1,1,0,1,1,1,,,,,,,,,,,,,,,,,,,,,,,,,,,,,,,,,,,,,,,,,,,,,,,,,,,,,,,,,,,,,,,,,,,,,1.196,407.5166098999907,None,None,1,407.5166098999907,None,,P038,fencog,1,Pre,2022_Apr_26_1100,N-Back (New Version 2021),2021.1.4,120.3443291826842,
,,,,Conditions/Version_1/oneback(1)_v1.xlsx,New rule: Press 'space' when you see 1-back (i.e. the same letter as the one that appeared 1 letter ago.),M,None,,,,,,,,,0,1,1,1,0,2,2,2,,,,,,,,,,,,,,,,,,,,,,,,,,,,,,,,,,,,,,,,,,,,,,,,,,,,,,,,,,,,,,,,,,,,,1.0472,410.56494299997576,None,None,1,410.56494299997576,None,,P038,fencog,1,Pre,2022_Apr_26_1100,N-Back (New Version 2021),2021.1.4,120.3443291826842,
,,,,Conditions/Version_1/oneback(1)_v1.xlsx,New rule: Press 'space' when you see 1-back (i.e. the same letter as the one that appeared 1 letter ago.),M,space,,,,,,,,,0,1,1,1,0,3,3,3,,,,,,,,,,,,,,,,,,,,,,,,,,,,,,,,,,,,,,,,,,,,,,,,,,,,,,,,,,,,,,,,,,,,,1.0162,413.58928679995006,None,space,1,413.58928679995006,None,0.508742300036829,P038,fencog,1,Pre,2022_Apr_26_1100,N-Back (New Version 2021),2021.1.4,120.3443291826842,
,,,,Conditions/Version_1/oneback(1)_v1.xlsx,New rule: Press 'space' when you see 1-back (i.e. the same letter as the one that appeared 1 letter ago.),n,None,,,,,,,,,0,1,1,1,0,4,4,4,,,,,,,,,,,,,,,,,,,,,,,,,,,,,,,,,,,,,,,,,,,,,,,,,,,,,,,,,,,,,,,,,,,,,1.01,416.6050352999591,None,None,1,416.6050352999591,None,,P038,fencog,1,Pre,2022_Apr_26_1100,N-Back (New Version 2021),2021.1.4,120.3443291826842,
,,,,Conditions/Version_1/oneback(1)_v1.xlsx,New rule: Press 'space' when you see 1-back (i.e. the same letter as the one that appeared 1 letter ago.),g,None,,,,,,,,,0,1,1,1,0,5,5,5,,,,,,,,,,,,,,,,,,,,,,,,,,,,,,,,,,,,,,,,,,,,,,,,,,,,,,,,,,,,,,,,,,,,,1.258,419.8707439999562,None,None,1,419.8707439999562,None,,P038,fencog,1,Pre,2022_Apr_26_1100,N-Back (New Version 2021),2021.1.4,120.3443291826842,
,,,,Conditions/Version_1/oneback(1)_v1.xlsx,New rule: Press 'space' when you see 1-back (i.e. the same letter as the one that appeared 1 letter ago.),P,None,,,,,,,,,0,1,1,1,0,6,6,6,,,,,,,,,,,,,,,,,,,,,,,,,,,,,,,,,,,,,,,,,,,,,,,,,,,,,,,,,,,,,,,,,,,,,1.94,423.8117494999897,None,None,1,423.8117494999897,None,,P038,fencog,1,Pre,2022_Apr_26_1100,N-Back (New Version 2021),2021.1.4,120.3443291826842,
,,,,Conditions/Version_1/oneback(1)_v1.xlsx,New rule: Press 'space' when you see 1-back (i.e. the same letter as the one that appeared 1 letter ago.),o,None,,,,,,,,,0,1,1,1,0,7,7,7,,,,,,,,,,,,,,,,,,,,,,,,,,,,,,,,,,,,,,,,,,,,,,,,,,,,,,,,,,,,,,,,,,,,,1.7478,427.5671885999618,None,None,1,427.5671885999618,None,,P038,fencog,1,Pre,2022_Apr_26_1100,N-Back (New Version 2021),2021.1.4,120.3443291826842,
,,,,Conditions/Version_1/oneback(1)_v1.xlsx,New rule: Press 'space' when you see 1-back (i.e. the same letter as the one that appeared 1 letter ago.),f,None,,,,,,,,,0,1,1,1,0,8,8,8,,,,,,,,,,,,,,,,,,,,,,,,,,,,,,,,,,,,,,,,,,,,,,,,,,,,,,,,,,,,,,,,,,,,,1.9958,431.5691161999712,None,None,1,431.5691161999712,None,,P038,fencog,1,Pre,2022_Apr_26_1100,N-Back (New Version 2021),2021.1.4,120.3443291826842,
,,,,Conditions/Version_1/oneback(1)_v1.xlsx,New rule: Press 'space' when you see 1-back (i.e. the same letter as the one that appeared 1 letter ago.),F,space,,,,,,,,,0,1,1,1,0,9,9,9,,,,,,,,,,,,,,,,,,,,,,,,,,,,,,,,,,,,,,,,,,,,,,,,,,,,,,,,,,,,,,,,,,,,,1.9152,435.4931625999743,None,space,1,435.4931625999743,None,0.5324750000145286,P038,fencog,1,Pre,2022_Apr_26_1100,N-Back (New Version 2021),2021.1.4,120.3443291826842,
,,,,Conditions/Version_1/oneback(1)_v1.xlsx,New rule: Press 'space' when you see 1-back (i.e. the same letter as the one that appeared 1 letter ago.),,,,,,,,,,,0,1,1,1,,,,,,,,,,,,,,,,,,,,,,,,,,,,,,,,,,,,,,,,,,,,,,,,,,,,,,,,,,,,,,,,,,,,,,,,,,,,,,,,,P038,fencog,1,Pre,2022_Apr_26_1100,N-Back (New Version 2021),2021.1.4,120.3443291826842,
,,,,Conditions/Version_1/twoback(1)_v1.xlsx,New rule: Press 'space' when you see 2-back (i.e. the same letter as the one that appeared 2 letters ago.),b,None,,,,,,,,,0,2,2,2,0,0,0,0,,,,,,,,,,,,,,,,,,,,,,,,,,,,,,,,,,,,,,,,,,,,,,,,,,,,,,,,,,,437.52310899994336,None,440.50860999996075,None,space,0.9009432999882847,440.50860999996075,None,437.52310899994336,None,1.0348,442.47232129995245,None,None,1,442.47232129995245,None,,P038,fencog,1,Pre,2022_Apr_26_1100,N-Back (New Version 2021),2021.1.4,120.3443291826842,
,,,,Conditions/Version_1/twoback(1)_v1.xlsx,New rule: Press 'space' when you see 2-back (i.e. the same letter as the one that appeared 2 letters ago.),h,None,,,,,,,,,0,2,2,2,0,1,1,1,,,,,,,,,,,,,,,,,,,,,,,,,,,,,,,,,,,,,,,,,,,,,,,,,,,,,,,,,,,,,,,,,,,,,1.506,445.981396499963,None,None,1,445.981396499963,None,,P038,fencog,1,Pre,2022_Apr_26_1100,N-Back (New Version 2021),2021.1.4,120.3443291826842,
,,,,Conditions/Version_1/twoback(1)_v1.xlsx,New rule: Press 'space' when you see 2-back (i.e. the same letter as the one that appeared 2 letters ago.),j,None,,,,,,,,,0,2,2,2,0,2,2,2,,,,,,,,,,,,,,,,,,,,,,,,,,,,,,,,,,,,,,,,,,,,,,,,,,,,,,,,,,,,,,,,,,,,,1.258,449.24688839999726,None,None,1,449.24688839999726,None,,P038,fencog,1,Pre,2022_Apr_26_1100,N-Back (New Version 2021),2021.1.4,120.3443291826842,
,,,,Conditions/Version_1/twoback(1)_v1.xlsx,New rule: Press 'space' when you see 2-back (i.e. the same letter as the one that appeared 2 letters ago.),H,space,,,,,,,,,0,2,2,2,0,3,3,3,,,,,,,,,,,,,,,,,,,,,,,,,,,,,,,,,,,,,,,,,,,,,,,,,,,,,,,,,,,,,,,,,,,,,1.1464,452.40688239998417,None,space,1,452.40688239998417,None,0.8744443999603391,P038,fencog,1,Pre,2022_Apr_26_1100,N-Back (New Version 2021),2021.1.4,120.3443291826842,
,,,,Conditions/Version_1/twoback(1)_v1.xlsx,New rule: Press 'space' when you see 2-back (i.e. the same letter as the one that appeared 2 letters ago.),p,None,,,,,,,,,0,2,2,2,0,4,4,4,,,,,,,,,,,,,,,,,,,,,,,,,,,,,,,,,,,,,,,,,,,,,,,,,,,,,,,,,,,,,,,,,,,,,1.196,455.61279079999076,None,None,1,455.61279079999076,None,,P038,fencog,1,Pre,2022_Apr_26_1100,N-Back (New Version 2021),2021.1.4,120.3443291826842,
,,,,Conditions/Version_1/twoback(1)_v1.xlsx,New rule: Press 'space' when you see 2-back (i.e. the same letter as the one that appeared 2 letters ago.),p,None,,,,,,,,,0,2,2,2,0,5,5,5,,,,,,,,,,,,,,,,,,,,,,,,,,,,,,,,,,,,,,,,,,,,,,,,,,,,,,,,,,,,,,,,,,,,,1.6486,459.26757829997223,None,space,0,459.26757829997223,None,0.6141129999887198,P038,fencog,1,Pre,2022_Apr_26_1100,N-Back (New Version 2021),2021.1.4,120.3443291826842,
,,,,Conditions/Version_1/twoback(1)_v1.xlsx,New rule: Press 'space' when you see 2-back (i.e. the same letter as the one that appeared 2 letters ago.),w,None,,,,,,,,,0,2,2,2,0,6,6,6,,,,,,,,,,,,,,,,,,,,,,,,,,,,,,,,,,,,,,,,,,,,,,,,,,,,,,,,,,,,,,,,,,,,,1.9772,463.2496237999876,None,None,1,463.2496237999876,None,,P038,fencog,1,Pre,2022_Apr_26_1100,N-Back (New Version 2021),2021.1.4,120.3443291826842,
,,,,Conditions/Version_1/twoback(1)_v1.xlsx,New rule: Press 'space' when you see 2-back (i.e. the same letter as the one that appeared 2 letters ago.),R,None,,,,,,,,,0,2,2,2,0,7,7,7,,,,,,,,,,,,,,,,,,,,,,,,,,,,,,,,,,,,,,,,,,,,,,,,,,,,,,,,,,,,,,,,,,,,,1.5804,466.83361219998915,None,None,1,466.83361219998915,None,,P038,fencog,1,Pre,2022_Apr_26_1100,N-Back (New Version 2021),2021.1.4,120.3443291826842,
,,,,Conditions/Version_1/twoback(1)_v1.xlsx,New rule: Press 'space' when you see 2-back (i.e. the same letter as the one that appeared 2 letters ago.),a,None,,,,,,,,,0,2,2,2,0,8,8,8,,,,,,,,,,,,,,,,,,,,,,,,,,,,,,,,,,,,,,,,,,,,,,,,,,,,,,,,,,,,,,,,,,,,,1.3076,470.14858919999097,None,None,1,470.14858919999097,None,,P038,fencog,1,Pre,2022_Apr_26_1100,N-Back (New Version 2021),2021.1.4,120.3443291826842,
,,,,Conditions/Version_1/twoback(1)_v1.xlsx,New rule: Press 'space' when you see 2-back (i.e. the same letter as the one that appeared 2 letters ago.),r,space,,,,,,,,,0,2,2,2,0,9,9,9,,,,,,,,,,,,,,,,,,,,,,,,,,,,,,,,,,,,,,,,,,,,,,,,,,,,,,,,,,,,,,,,,,,,,1.1712,473.33001229999354,None,space,1,473.33001229999354,None,0.6952759000123478,P038,fencog,1,Pre,2022_Apr_26_1100,N-Back (New Version 2021),2021.1.4,120.3443291826842,
,,,,Conditions/Version_1/twoback(1)_v1.xlsx,New rule: Press 'space' when you see 2-back (i.e. the same letter as the one that appeared 2 letters ago.),,,,,,,,,,,0,2,2,2,,,,,,,,,,,,,,,,,,,,,,,,,,,,,,,,,,,,,,,,,,,,,,,,,,,,,,,,,,,,,,,,,,,,,,,,,,,,,,,,,P038,fencog,1,Pre,2022_Apr_26_1100,N-Back (New Version 2021),2021.1.4,120.3443291826842,
,,,,Conditions/Version_1/threeback(1)_v1.xlsx,New rule: Press 'space' when you see 3-back (i.e. the same letter as the one that appeared 3 letters ago.),r,None,,,,,,,,,0,3,3,3,0,0,0,0,,,,,,,,,,,,,,,,,,,,,,,,,,,,,,,,,,,,,,,,,,,,,,,,,,,,,,,,,,,475.35341169999447,None,478.3385234999587,None,space,1.2706389999948442,478.3385234999587,None,475.35341169999447,None,1.1402,480.7861993999686,None,None,1,480.7861993999686,None,,P038,fencog,1,Pre,2022_Apr_26_1100,N-Back (New Version 2021),2021.1.4,120.3443291826842,
,,,,Conditions/Version_1/threeback(1)_v1.xlsx,New rule: Press 'space' when you see 3-back (i.e. the same letter as the one that appeared 3 letters ago.),o,None,,,,,,,,,0,3,3,3,0,1,1,1,,,,,,,,,,,,,,,,,,,,,,,,,,,,,,,,,,,,,,,,,,,,,,,,,,,,,,,,,,,,,,,,,,,,,1.9214,484.70989779999945,None,None,1,484.70989779999945,None,,P038,fencog,1,Pre,2022_Apr_26_1100,N-Back (New Version 2021),2021.1.4,120.3443291826842,
,,,,Conditions/Version_1/threeback(1)_v1.xlsx,New rule: Press 'space' when you see 3-back (i.e. the same letter as the one that appeared 3 letters ago.),P,None,,,,,,,,,0,3,3,3,0,2,2,2,,,,,,,,,,,,,,,,,,,,,,,,,,,,,,,,,,,,,,,,,,,,,,,,,,,,,,,,,,,,,,,,,,,,,1.9524,488.6692473999574,None,None,1,488.6692473999574,None,,P038,fencog,1,Pre,2022_Apr_26_1100,N-Back (New Version 2021),2021.1.4,120.3443291826842,
,,,,Conditions/Version_1/threeback(1)_v1.xlsx,New rule: Press 'space' when you see 3-back (i.e. the same letter as the one that appeared 3 letters ago.),R,space,,,,,,,,,0,3,3,3,0,3,3,3,,,,,,,,,,,,,,,,,,,,,,,,,,,,,,,,,,,,,,,,,,,,,,,,,,,,,,,,,,,,,,,,,,,,,1.3076,491.9826733999653,None,space,1,491.9826733999653,None,0.5145719000138342,P038,fencog,1,Pre,2022_Apr_26_1100,N-Back (New Version 2021),2021.1.4,120.3443291826842,
,,,,Conditions/Version_1/threeback(1)_v1.xlsx,New rule: Press 'space' when you see 3-back (i.e. the same letter as the one that appeared 3 letters ago.),p,None,,,,,,,,,0,3,3,3,0,4,4,4,,,,,,,,,,,,,,,,,,,,,,,,,,,,,,,,,,,,,,,,,,,,,,,,,,,,,,,,,,,,,,,,,,,,,1.692,495.6733021999826,None,None,1,495.6733021999826,None,,P038,fencog,1,Pre,2022_Apr_26_1100,N-Back (New Version 2021),2021.1.4,120.3443291826842,
,,,,Conditions/Version_1/threeback(1)_v1.xlsx,New rule: Press 'space' when you see 3-back (i.e. the same letter as the one that appeared 3 letters ago.),E,None,,,,,,,,,0,3,3,3,0,5,5,5,,,,,,,,,,,,,,,,,,,,,,,,,,,,,,,,,,,,,,,,,,,,,,,,,,,,,,,,,,,,,,,,,,,,,1.2704,498.9473714999622,None,None,1,498.9473714999622,None,,P038,fencog,1,Pre,2022_Apr_26_1100,N-Back (New Version 2021),2021.1.4,120.3443291826842,
,,,,Conditions/Version_1/threeback(1)_v1.xlsx,New rule: Press 'space' when you see 3-back (i.e. the same letter as the one that appeared 3 letters ago.),e,None,,,,,,,,,0,3,3,3,0,6,6,6,,,,,,,,,,,,,,,,,,,,,,,,,,,,,,,,,,,,,,,,,,,,,,,,,,,,,,,,,,,,,,,,,,,,,1.8904,502.8378942999989,None,None,1,502.8378942999989,None,,P038,fencog,1,Pre,2022_Apr_26_1100,N-Back (New Version 2021),2021.1.4,120.3443291826842,
,,,,Conditions/Version_1/threeback(1)_v1.xlsx,New rule: Press 'space' when you see 3-back (i.e. the same letter as the one that appeared 3 letters ago.),m,None,,,,,,,,,0,3,3,3,0,7,7,7,,,,,,,,,,,,,,,,,,,,,,,,,,,,,,,,,,,,,,,,,,,,,,,,,,,,,,,,,,,,,,,,,,,,,1.8656,506.70546839997405,None,None,1,506.70546839997405,None,,P038,fencog,1,Pre,2022_Apr_26_1100,N-Back (New Version 2021),2021.1.4,120.3443291826842,
,,,,Conditions/Version_1/threeback(1)_v1.xlsx,New rule: Press 'space' when you see 3-back (i.e. the same letter as the one that appeared 3 letters ago.),n,None,,,,,,,,,0,3,3,3,0,8,8,8,,,,,,,,,,,,,,,,,,,,,,,,,,,,,,,,,,,,,,,,,,,,,,,,,,,,,,,,,,,,,,,,,,,,,1.165,509.87707769998815,None,None,1,509.87707769998815,None,,P038,fencog,1,Pre,2022_Apr_26_1100,N-Back (New Version 2021),2021.1.4,120.3443291826842,
,,,,Conditions/Version_1/threeback(1)_v1.xlsx,New rule: Press 'space' when you see 3-back (i.e. the same letter as the one that appeared 3 letters ago.),e,space,,,,,,,,,0,3,3,3,0,9,9,9,,,,,,,,,,,,,,,,,,,,,,,,,,,,,,,,,,,,,,,,,,,,,,,,,,,,,,,,,,,,,,,,,,,,,1.134,513.018271799956,None,space,1,513.018271799956,None,0.6629035000223666,P038,fencog,1,Pre,2022_Apr_26_1100,N-Back (New Version 2021),2021.1.4,120.3443291826842,
,,,,Conditions/Version_1/threeback(1)_v1.xlsx,New rule: Press 'space' when you see 3-back (i.e. the same letter as the one that appeared 3 letters ago.),,,,,,,,,,,0,3,3,3,,,,,,,,,,,,,,,,,,,,,,,,,,,,,,,,,,,,,,,,,,,,,,,,,,,,,,,,,,,,,,,,,,,,,,,,,,,,,,,,,P038,fencog,1,Pre,2022_Apr_26_1100,N-Back (New Version 2021),2021.1.4,120.3443291826842,
,,,,Conditions/Version_1/oneback(2)_v1.xlsx,New rule: Press 'space' when you see 1-back (i.e. the same letter as the one that appeared 1 letter ago.),q,None,,,,,,,,,0,4,4,4,0,0,0,0,,,,,,,,,,,,,,,,,,,,,,,,,,,,,,,,,,,,,,,,,,,,,,,,,,,,,,,,,,,515.0412329999963,None,518.0284676999436,None,space,0.6850236000027508,518.0284676999436,None,515.0412329999963,None,1.351,520.0993635999621,None,None,1,520.0993635999621,None,,P038,fencog,1,Pre,2022_Apr_26_1100,N-Back (New Version 2021),2021.1.4,120.3443291826842,
,,,,Conditions/Version_1/oneback(2)_v1.xlsx,New rule: Press 'space' when you see 1-back (i.e. the same letter as the one that appeared 1 letter ago.),Q,space,,,,,,,,,0,4,4,4,0,1,1,1,,,,,,,,,,,,,,,,,,,,,,,,,,,,,,,,,,,,,,,,,,,,,,,,,,,,,,,,,,,,,,,,,,,,,1.413,523.517899199971,None,space,1,523.517899199971,None,0.5634108000085689,P038,fencog,1,Pre,2022_Apr_26_1100,N-Back (New Version 2021),2021.1.4,120.3443291826842,
,,,,Conditions/Version_1/oneback(2)_v1.xlsx,New rule: Press 'space' when you see 1-back (i.e. the same letter as the one that appeared 1 letter ago.),P,None,,,,,,,,,0,4,4,4,0,2,2,2,,,,,,,,,,,,,,,,,,,,,,,,,,,,,,,,,,,,,,,,,,,,,,,,,,,,,,,,,,,,,,,,,,,,,1.4316,526.9556335999514,None,None,1,526.9556335999514,None,,P038,fencog,1,Pre,2022_Apr_26_1100,N-Back (New Version 2021),2021.1.4,120.3443291826842,
,,,,Conditions/Version_1/oneback(2)_v1.xlsx,New rule: Press 'space' when you see 1-back (i.e. the same letter as the one that appeared 1 letter ago.),o,None,,,,,,,,,0,4,4,4,0,3,3,3,,,,,,,,,,,,,,,,,,,,,,,,,,,,,,,,,,,,,,,,,,,,,,,,,,,,,,,,,,,,,,,,,,,,,1.134,530.0880611999892,None,None,1,530.0880611999892,None,,P038,fencog,1,Pre,2022_Apr_26_1100,N-Back (New Version 2021),2021.1.4,120.3443291826842,
,,,,Conditions/Version_1/oneback(2)_v1.xlsx,New rule: Press 'space' when you see 1-back (i.e. the same letter as the one that appeared 1 letter ago.),m,None,,,,,,,,,0,4,4,4,0,4,4,4,,,,,,,,,,,,,,,,,,,,,,,,,,,,,,,,,,,,,,,,,,,,,,,,,,,,,,,,,,,,,,,,,,,,,1.3014,533.3954604999744,None,None,1,533.3954604999744,None,,P038,fencog,1,Pre,2022_Apr_26_1100,N-Back (New Version 2021),2021.1.4,120.3443291826842,
,,,,Conditions/Version_1/oneback(2)_v1.xlsx,New rule: Press 'space' when you see 1-back (i.e. the same letter as the one that appeared 1 letter ago.),Z,None,,,,,,,,,0,4,4,4,0,5,5,5,,,,,,,,,,,,,,,,,,,,,,,,,,,,,,,,,,,,,,,,,,,,,,,,,,,,,,,,,,,,,,,,,,,,,1.6486,537.04661879997,None,None,1,537.04661879997,None,,P038,fencog,1,Pre,2022_Apr_26_1100,N-Back (New Version 2021),2021.1.4,120.3443291826842,
,,,,Conditions/Version_1/oneback(2)_v1.xlsx,New rule: Press 'space' when you see 1-back (i.e. the same letter as the one that appeared 1 letter ago.),c,None,,,,,,,,,0,4,4,4,0,6,6,6,,,,,,,,,,,,,,,,,,,,,,,,,,,,,,,,,,,,,,,,,,,,,,,,,,,,,,,,,,,,,,,,,,,,,1.2642,540.3183694999898,None,None,1,540.3183694999898,None,,P038,fencog,1,Pre,2022_Apr_26_1100,N-Back (New Version 2021),2021.1.4,120.3443291826842,
,,,,Conditions/Version_1/oneback(2)_v1.xlsx,New rule: Press 'space' when you see 1-back (i.e. the same letter as the one that appeared 1 letter ago.),c,space,,,,,,,,,0,4,4,4,0,7,7,7,,,,,,,,,,,,,,,,,,,,,,,,,,,,,,,,,,,,,,,,,,,,,,,,,,,,,,,,,,,,,,,,,,,,,1.9834,544.3007077999646,None,space,1,544.3007077999646,None,0.64460759999929,P038,fencog,1,Pre,2022_Apr_26_1100,N-Back (New Version 2021),2021.1.4,120.3443291826842,
,,,,Conditions/Version_1/oneback(2)_v1.xlsx,New rule: Press 'space' when you see 1-back (i.e. the same letter as the one that appeared 1 letter ago.),P,None,,,,,,,,,0,4,4,4,0,8,8,8,,,,,,,,,,,,,,,,,,,,,,,,,,,,,,,,,,,,,,,,,,,,,,,,,,,,,,,,,,,,,,,,,,,,,1.289,547.5912160999724,None,None,1,547.5912160999724,None,,P038,fencog,1,Pre,2022_Apr_26_1100,N-Back (New Version 2021),2021.1.4,120.3443291826842,
,,,,Conditions/Version_1/oneback(2)_v1.xlsx,New rule: Press 'space' when you see 1-back (i.e. the same letter as the one that appeared 1 letter ago.),p,space,,,,,,,,,0,4,4,4,0,9,9,9,,,,,,,,,,,,,,,,,,,,,,,,,,,,,,,,,,,,,,,,,,,,,,,,,,,,,,,,,,,,,,,,,,,,,1.8842,551.4840764999972,None,space,1,551.4840764999972,None,0.4612063000095077,P038,fencog,1,Pre,2022_Apr_26_1100,N-Back (New Version 2021),2021.1.4,120.3443291826842,
,,,,Conditions/Version_1/oneback(2)_v1.xlsx,New rule: Press 'space' when you see 1-back (i.e. the same letter as the one that appeared 1 letter ago.),,,,,,,,,,,0,4,4,4,,,,,,,,,,,,,,,,,,,,,,,,,,,,,,,,,,,,,,,,,,,,,,,,,,,,,,,,,,,,,,,,,,,,,,,,,,,,,,,,,P038,fencog,1,Pre,2022_Apr_26_1100,N-Back (New Version 2021),2021.1.4,120.3443291826842,
,,,,Conditions/Version_1/zeroback(2)_v1.xlsx,New rule: Press 'space' when you see the letter 'x' or 'X'.,p,None,,,,,,,,,0,5,5,5,0,0,0,0,,,,,,,,,,,,,,,,,,,,,,,,,,,,,,,,,,,,,,,,,,,,,,,,,,,,,,,,,,,553.5079602999613,None,556.4904887999874,None,space,0.5267268000170588,556.4904887999874,None,553.5079602999613,None,1.289,558.3381880999659,None,None,1,558.3381880999659,None,,P038,fencog,1,Pre,2022_Apr_26_1100,N-Back (New Version 2021),2021.1.4,120.3443291826842,
,,,,Conditions/Version_1/zeroback(2)_v1.xlsx,New rule: Press 'space' when you see the letter 'x' or 'X'.,L,None,,,,,,,,,0,5,5,5,0,1,1,1,,,,,,,,,,,,,,,,,,,,,,,,,,,,,,,,,,,,,,,,,,,,,,,,,,,,,,,,,,,,,,,,,,,,,1.847,562.1867835999583,None,None,1,562.1867835999583,None,,P038,fencog,1,Pre,2022_Apr_26_1100,N-Back (New Version 2021),2021.1.4,120.3443291826842,
,,,,Conditions/Version_1/zeroback(2)_v1.xlsx,New rule: Press 'space' when you see the letter 'x' or 'X'.,G,None,,,,,,,,,0,5,5,5,0,2,2,2,,,,,,,,,,,,,,,,,,,,,,,,,,,,,,,,,,,,,,,,,,,,,,,,,,,,,,,,,,,,,,,,,,,,,1.3882,565.577535599994,None,None,1,565.577535599994,None,,P038,fencog,1,Pre,2022_Apr_26_1100,N-Back (New Version 2021),2021.1.4,120.3443291826842,
,,,,Conditions/Version_1/zeroback(2)_v1.xlsx,New rule: Press 'space' when you see the letter 'x' or 'X'.,y,None,,,,,,,,,0,5,5,5,0,3,3,3,,,,,,,,,,,,,,,,,,,,,,,,,,,,,,,,,,,,,,,,,,,,,,,,,,,,,,,,,,,,,,,,,,,,,1.2952,568.8770825999673,None,None,1,568.8770825999673,None,,P038,fencog,1,Pre,2022_Apr_26_1100,N-Back (New Version 2021),2021.1.4,120.3443291826842,
,,,,Conditions/Version_1/zeroback(2)_v1.xlsx,New rule: Press 'space' when you see the letter 'x' or 'X'.,Y,None,,,,,,,,,0,5,5,5,0,4,4,4,,,,,,,,,,,,,,,,,,,,,,,,,,,,,,,,,,,,,,,,,,,,,,,,,,,,,,,,,,,,,,,,,,,,,1.9648,572.8425275999471,None,None,1,572.8425275999471,None,,P038,fencog,1,Pre,2022_Apr_26_1100,N-Back (New Version 2021),2021.1.4,120.3443291826842,
,,,,Conditions/Version_1/zeroback(2)_v1.xlsx,New rule: Press 'space' when you see the letter 'x' or 'X'.,W,None,,,,,,,,,0,5,5,5,0,5,5,5,,,,,,,,,,,,,,,,,,,,,,,,,,,,,,,,,,,,,,,,,,,,,,,,,,,,,,,,,,,,,,,,,,,,,1.6858,576.5355685999966,None,None,1,576.5355685999966,None,,P038,fencog,1,Pre,2022_Apr_26_1100,N-Back (New Version 2021),2021.1.4,120.3443291826842,
,,,,Conditions/Version_1/zeroback(2)_v1.xlsx,New rule: Press 'space' when you see the letter 'x' or 'X'.,x,space,,,,,,,,,0,5,5,5,0,6,6,6,,,,,,,,,,,,,,,,,,,,,,,,,,,,,,,,,,,,,,,,,,,,,,,,,,,,,,,,,,,,,,,,,,,,,1.9276,580.4740748999757,None,space,1,580.4740748999757,None,0.4871153000276536,P038,fencog,1,Pre,2022_Apr_26_1100,N-Back (New Version 2021),2021.1.4,120.3443291826842,
,,,,Conditions/Version_1/zeroback(2)_v1.xlsx,New rule: Press 'space' when you see the letter 'x' or 'X'.,X,space,,,,,,,,,0,5,5,5,0,7,7,7,,,,,,,,,,,,,,,,,,,,,,,,,,,,,,,,,,,,,,,,,,,,,,,,,,,,,,,,,,,,,,,,,,,,,1.2084,583.6901058999938,None,space,1,583.6901058999938,None,0.5670540999853984,P038,fencog,1,Pre,2022_Apr_26_1100,N-Back (New Version 2021),2021.1.4,120.3443291826842,
,,,,Conditions/Version_1/zeroback(2)_v1.xlsx,New rule: Press 'space' when you see the letter 'x' or 'X'.,p,None,,,,,,,,,0,5,5,5,0,8,8,8,,,,,,,,,,,,,,,,,,,,,,,,,,,,,,,,,,,,,,,,,,,,,,,,,,,,,,,,,,,,,,,,,,,,,1.0658,586.7652003999683,None,None,1,586.7652003999683,None,,P038,fencog,1,Pre,2022_Apr_26_1100,N-Back (New Version 2021),2021.1.4,120.3443291826842,
,,,,Conditions/Version_1/zeroback(2)_v1.xlsx,New rule: Press 'space' when you see the letter 'x' or 'X'.,h,None,,,,,,,,,0,5,5,5,0,9,9,9,,,,,,,,,,,,,,,,,,,,,,,,,,,,,,,,,,,,,,,,,,,,,,,,,,,,,,,,,,,,,,,,,,,,,1.6052,590.3804764999659,None,None,1,590.3804764999659,None,,P038,fencog,1,Pre,2022_Apr_26_1100,N-Back (New Version 2021),2021.1.4,120.3443291826842,
,,,,Conditions/Version_1/zeroback(2)_v1.xlsx,New rule: Press 'space' when you see the letter 'x' or 'X'.,,,,,,,,,,,0,5,5,5,,,,,,,,,,,,,,,,,,,,,,,,,,,,,,,,,,,,,,,,,,,,,,,,,,,,,,,,,,,,,,,,,,,,,,,,,,,,,,,,,P038,fencog,1,Pre,2022_Apr_26_1100,N-Back (New Version 2021),2021.1.4,120.3443291826842,
,,,,Conditions/Version_1/threeback(2)_v1.xlsx,New rule: Press 'space' when you see 3-back (i.e. the same letter as the one that appeared 3 letters ago.),q,None,,,,,,,,,0,6,6,6,0,0,0,0,,,,,,,,,,,,,,,,,,,,,,,,,,,,,,,,,,,,,,,,,,,,,,,,,,,,,,,,,,,592.4042107999558,None,595.3875660999911,None,space,0.6455898000276648,595.3875660999911,None,592.4042107999558,None,1.9958,598.0594830999617,None,None,1,598.0594830999617,None,,P038,fencog,1,Pre,2022_Apr_26_1100,N-Back (New Version 2021),2021.1.4,120.3443291826842,
,,,,Conditions/Version_1/threeback(2)_v1.xlsx,New rule: Press 'space' when you see 3-back (i.e. the same letter as the one that appeared 3 letters ago.),Y,None,,,,,,,,,0,6,6,6,0,1,1,1,,,,,,,,,,,,,,,,,,,,,,,,,,,,,,,,,,,,,,,,,,,,,,,,,,,,,,,,,,,,,,,,,,,,,1.9896,602.0501082999981,None,None,1,602.0501082999981,None,,P038,fencog,1,Pre,2022_Apr_26_1100,N-Back (New Version 2021),2021.1.4,120.3443291826842,
,,,,Conditions/Version_1/threeback(2)_v1.xlsx,New rule: Press 'space' when you see 3-back (i.e. the same letter as the one that appeared 3 letters ago.),p,None,,,,,,,,,0,6,6,6,0,2,2,2,,,,,,,,,,,,,,,,,,,,,,,,,,,,,,,,,,,,,,,,,,,,,,,,,,,,,,,,,,,,,,,,,,,,,1.9152,605.9654784999439,None,None,1,605.9654784999439,None,,P038,fencog,1,Pre,2022_Apr_26_1100,N-Back (New Version 2021),2021.1.4,120.3443291826842,
,,,,Conditions/Version_1/threeback(2)_v1.xlsx,New rule: Press 'space' when you see 3-back (i.e. the same letter as the one that appeared 3 letters ago.),p,None,,,,,,,,,0,6,6,6,0,3,3,3,,,,,,,,,,,,,,,,,,,,,,,,,,,,,,,,,,,,,,,,,,,,,,,,,,,,,,,,,,,,,,,,,,,,,1.7478,609.7143911999883,None,None,1,609.7143911999883,None,,P038,fencog,1,Pre,2022_Apr_26_1100,N-Back (New Version 2021),2021.1.4,120.3443291826842,
,,,,Conditions/Version_1/threeback(2)_v1.xlsx,New rule: Press 'space' when you see 3-back (i.e. the same letter as the one that appeared 3 letters ago.),y,space,,,,,,,,,0,6,6,6,0,4,4,4,,,,,,,,,,,,,,,,,,,,,,,,,,,,,,,,,,,,,,,,,,,,,,,,,,,,,,,,,,,,,,,,,,,,,1.103,612.8218804999487,None,space,1,612.8218804999487,None,0.7072038999758661,P038,fencog,1,Pre,2022_Apr_26_1100,N-Back (New Version 2021),2021.1.4,120.3443291826842,
,,,,Conditions/Version_1/threeback(2)_v1.xlsx,New rule: Press 'space' when you see 3-back (i.e. the same letter as the one that appeared 3 letters ago.),u,None,,,,,,,,,0,6,6,6,0,5,5,5,,,,,,,,,,,,,,,,,,,,,,,,,,,,,,,,,,,,,,,,,,,,,,,,,,,,,,,,,,,,,,,,,,,,,1.7106,616.538476799964,None,None,1,616.538476799964,None,,P038,fencog,1,Pre,2022_Apr_26_1100,N-Back (New Version 2021),2021.1.4,120.3443291826842,
,,,,Conditions/Version_1/threeback(2)_v1.xlsx,New rule: Press 'space' when you see 3-back (i.e. the same letter as the one that appeared 3 letters ago.),P,space,,,,,,,,,0,6,6,6,0,6,6,6,,,,,,,,,,,,,,,,,,,,,,,,,,,,,,,,,,,,,,,,,,,,,,,,,,,,,,,,,,,,,,,,,,,,,1.5742,620.1196039999486,None,space,1,620.1196039999486,None,1.0814149000216275,P038,fencog,1,Pre,2022_Apr_26_1100,N-Back (New Version 2021),2021.1.4,120.3443291826842,
,,,,Conditions/Version_1/threeback(2)_v1.xlsx,New rule: Press 'space' when you see 3-back (i.e. the same letter as the one that appeared 3 letters ago.),a,None,,,,,,,,,0,6,6,6,0,7,7,7,,,,,,,,,,,,,,,,,,,,,,,,,,,,,,,,,,,,,,,,,,,,,,,,,,,,,,,,,,,,,,,,,,,,,1.4254,623.5453760999953,None,None,1,623.5453760999953,None,,P038,fencog,1,Pre,2022_Apr_26_1100,N-Back (New Version 2021),2021.1.4,120.3443291826842,
,,,,Conditions/Version_1/threeback(2)_v1.xlsx,New rule: Press 'space' when you see 3-back (i.e. the same letter as the one that appeared 3 letters ago.),U,space,,,,,,,,,0,6,6,6,0,8,8,8,,,,,,,,,,,,,,,,,,,,,,,,,,,,,,,,,,,,,,,,,,,,,,,,,,,,,,,,,,,,,,,,,,,,,1.7912,627.345182799967,None,None,0,627.345182799967,None,,P038,fencog,1,Pre,2022_Apr_26_1100,N-Back (New Version 2021),2021.1.4,120.3443291826842,
,,,,Conditions/Version_1/threeback(2)_v1.xlsx,New rule: Press 'space' when you see 3-back (i.e. the same letter as the one that appeared 3 letters ago.),q,None,,,,,,,,,0,6,6,6,0,9,9,9,,,,,,,,,,,,,,,,,,,,,,,,,,,,,,,,,,,,,,,,,,,,,,,,,,,,,,,,,,,,,,,,,,,,,1.2952,630.6498520999448,None,None,1,630.6498520999448,None,,P038,fencog,1,Pre,2022_Apr_26_1100,N-Back (New Version 2021),2021.1.4,120.3443291826842,
,,,,Conditions/Version_1/threeback(2)_v1.xlsx,New rule: Press 'space' when you see 3-back (i.e. the same letter as the one that appeared 3 letters ago.),,,,,,,,,,,0,6,6,6,,,,,,,,,,,,,,,,,,,,,,,,,,,,,,,,,,,,,,,,,,,,,,,,,,,,,,,,,,,,,,,,,,,,,,,,,,,,,,,,,P038,fencog,1,Pre,2022_Apr_26_1100,N-Back (New Version 2021),2021.1.4,120.3443291826842,
,,,,Conditions/Version_1/twoback(2)_v1.xlsx,New rule: Press 'space' when you see 2-back (i.e. the same letter as the one that appeared 2 letters ago.),q,None,,,,,,,,,0,7,7,7,0,0,0,0,,,,,,,,,,,,,,,,,,,,,,,,,,,,,,,,,,,,,,,,,,,,,,,,,,,,,,,,,,,632.67286219995,None,635.6583887999877,None,space,0.5345412000315264,635.6583887999877,None,632.67286219995,None,1.9028,638.1311229999992,None,None,1,638.1311229999992,None,,P038,fencog,1,Pre,2022_Apr_26_1100,N-Back (New Version 2021),2021.1.4,120.3443291826842,
,,,,Conditions/Version_1/twoback(2)_v1.xlsx,New rule: Press 'space' when you see 2-back (i.e. the same letter as the one that appeared 2 letters ago.),r,None,,,,,,,,,0,7,7,7,0,1,1,1,,,,,,,,,,,,,,,,,,,,,,,,,,,,,,,,,,,,,,,,,,,,,,,,,,,,,,,,,,,,,,,,,,,,,1.6052,641.7402594999876,None,None,1,641.7402594999876,None,,P038,fencog,1,Pre,2022_Apr_26_1100,N-Back (New Version 2021),2021.1.4,120.3443291826842,
,,,,Conditions/Version_1/twoback(2)_v1.xlsx,New rule: Press 'space' when you see 2-back (i.e. the same letter as the one that appeared 2 letters ago.),q,space,,,,,,,,,0,7,7,7,0,2,2,2,,,,,,,,,,,,,,,,,,,,,,,,,,,,,,,,,,,,,,,,,,,,,,,,,,,,,,,,,,,,,,,,,,,,,1.2642,645.0134655999718,None,space,1,645.0134655999718,None,0.8114392000134103,P038,fencog,1,Pre,2022_Apr_26_1100,N-Back (New Version 2021),2021.1.4,120.3443291826842,
,,,,Conditions/Version_1/twoback(2)_v1.xlsx,New rule: Press 'space' when you see 2-back (i.e. the same letter as the one that appeared 2 letters ago.),P,None,,,,,,,,,0,7,7,7,0,3,3,3,,,,,,,,,,,,,,,,,,,,,,,,,,,,,,,,,,,,,,,,,,,,,,,,,,,,,,,,,,,,,,,,,,,,,1.5928,648.6195227999706,None,None,1,648.6195227999706,None,,P038,fencog,1,Pre,2022_Apr_26_1100,N-Back (New Version 2021),2021.1.4,120.3443291826842,
,,,,Conditions/Version_1/twoback(2)_v1.xlsx,New rule: Press 'space' when you see 2-back (i.e. the same letter as the one that appeared 2 letters ago.),p,None,,,,,,,,,0,7,7,7,0,4,4,4,,,,,,,,,,,,,,,,,,,,,,,,,,,,,,,,,,,,,,,,,,,,,,,,,,,,,,,,,,,,,,,,,,,,,1.103,651.7280376999988,None,None,1,651.7280376999988,None,,P038,fencog,1,Pre,2022_Apr_26_1100,N-Back (New Version 2021),2021.1.4,120.3443291826842,
,,,,Conditions/Version_1/twoback(2)_v1.xlsx,New rule: Press 'space' when you see 2-back (i.e. the same letter as the one that appeared 2 letters ago.),H,None,,,,,,,,,0,7,7,7,0,5,5,5,,,,,,,,,,,,,,,,,,,,,,,,,,,,,,,,,,,,,,,,,,,,,,,,,,,,,,,,,,,,,,,,,,,,,1.4254,655.159319599974,None,None,1,655.159319599974,None,,P038,fencog,1,Pre,2022_Apr_26_1100,N-Back (New Version 2021),2021.1.4,120.3443291826842,
,,,,Conditions/Version_1/twoback(2)_v1.xlsx,New rule: Press 'space' when you see 2-back (i.e. the same letter as the one that appeared 2 letters ago.),g,None,,,,,,,,,0,7,7,7,0,6,6,6,,,,,,,,,,,,,,,,,,,,,,,,,,,,,,,,,,,,,,,,,,,,,,,,,,,,,,,,,,,,,,,,,,,,,1.785,658.9499941999675,None,None,1,658.9499941999675,None,,P038,fencog,1,Pre,2022_Apr_26_1100,N-Back (New Version 2021),2021.1.4,120.3443291826842,
,,,,Conditions/Version_1/twoback(2)_v1.xlsx,New rule: Press 'space' when you see 2-back (i.e. the same letter as the one that appeared 2 letters ago.),j,None,,,,,,,,,0,7,7,7,0,7,7,7,,,,,,,,,,,,,,,,,,,,,,,,,,,,,,,,,,,,,,,,,,,,,,,,,,,,,,,,,,,,,,,,,,,,,1.7478,662.7024403999676,None,None,1,662.7024403999676,None,,P038,fencog,1,Pre,2022_Apr_26_1100,N-Back (New Version 2021),2021.1.4,120.3443291826842,
,,,,Conditions/Version_1/twoback(2)_v1.xlsx,New rule: Press 'space' when you see 2-back (i.e. the same letter as the one that appeared 2 letters ago.),g,space,,,,,,,,,0,7,7,7,0,8,8,8,,,,,,,,,,,,,,,,,,,,,,,,,,,,,,,,,,,,,,,,,,,,,,,,,,,,,,,,,,,,,,,,,,,,,1.32,666.0311348999967,None,space,1,666.0311348999967,None,0.6977838999591768,P038,fencog,1,Pre,2022_Apr_26_1100,N-Back (New Version 2021),2021.1.4,120.3443291826842,
,,,,Conditions/Version_1/twoback(2)_v1.xlsx,New rule: Press 'space' when you see 2-back (i.e. the same letter as the one that appeared 2 letters ago.),G,None,,,,,,,,,0,7,7,7,0,9,9,9,,,,,,,,,,,,,,,,,,,,,,,,,,,,,,,,,,,,,,,,,,,,,,,,,,,,,,,,,,,,,,,,,,,,,1.8222,669.8568037999794,None,space,0,669.8568037999794,None,1.4561231999541633,P038,fencog,1,Pre,2022_Apr_26_1100,N-Back (New Version 2021),2021.1.4,120.3443291826842,
,,,,Conditions/Version_1/twoback(2)_v1.xlsx,New rule: Press 'space' when you see 2-back (i.e. the same letter as the one that appeared 2 letters ago.),,,,,,,,,,,0,7,7,7,,,,,,,,,,,,,,,,,,,,,,,,,,,,,,,,,,,,,,,,,,,,,,,,,,,,,,,,,,,,,,,,,,,,,,,,,,,,,,,,,P038,fencog,1,Pre,2022_Apr_26_1100,N-Back (New Version 2021),2021.1.4,120.3443291826842,
,,,,Conditions/Version_1/threeback(3)_v1.xlsx,New rule: Press 'space' when you see 3-back (i.e. the same letter as the one that appeared 3 letters ago.),w,None,,,,,,,,,0,8,8,8,0,0,0,0,,,,,,,,,,,,,,,,,,,,,,,,,,,,,,,,,,,,,,,,,,,,,,,,,,,,,,,,,,,671.885807499988,None,674.8724831999862,None,space,0.45651300001190975,674.8724831999862,None,671.885807499988,None,1.2828,676.6456278999685,None,None,1,676.6456278999685,None,,P038,fencog,1,Pre,2022_Apr_26_1100,N-Back (New Version 2021),2021.1.4,120.3443291826842,
,,,,Conditions/Version_1/threeback(3)_v1.xlsx,New rule: Press 'space' when you see 3-back (i.e. the same letter as the one that appeared 3 letters ago.),p,None,,,,,,,,,0,8,8,8,0,1,1,1,,,,,,,,,,,,,,,,,,,,,,,,,,,,,,,,,,,,,,,,,,,,,,,,,,,,,,,,,,,,,,,,,,,,,1.1464,679.8020344999968,None,None,1,679.8020344999968,None,,P038,fencog,1,Pre,2022_Apr_26_1100,N-Back (New Version 2021),2021.1.4,120.3443291826842,
,,,,Conditions/Version_1/threeback(3)_v1.xlsx,New rule: Press 'space' when you see 3-back (i.e. the same letter as the one that appeared 3 letters ago.),P,None,,,,,,,,,0,8,8,8,0,2,2,2,,,,,,,,,,,,,,,,,,,,,,,,,,,,,,,,,,,,,,,,,,,,,,,,,,,,,,,,,,,,,,,,,,,,,1.0162,682.8203177999821,None,None,1,682.8203177999821,None,,P038,fencog,1,Pre,2022_Apr_26_1100,N-Back (New Version 2021),2021.1.4,120.3443291826842,
,,,,Conditions/Version_1/threeback(3)_v1.xlsx,New rule: Press 'space' when you see 3-back (i.e. the same letter as the one that appeared 3 letters ago.),i,None,,,,,,,,,0,8,8,8,0,3,3,3,,,,,,,,,,,,,,,,,,,,,,,,,,,,,,,,,,,,,,,,,,,,,,,,,,,,,,,,,,,,,,,,,,,,,1.9648,686.7934305999661,None,None,1,686.7934305999661,None,,P038,fencog,1,Pre,2022_Apr_26_1100,N-Back (New Version 2021),2021.1.4,120.3443291826842,
,,,,Conditions/Version_1/threeback(3)_v1.xlsx,New rule: Press 'space' when you see 3-back (i.e. the same letter as the one that appeared 3 letters ago.),f,None,,,,,,,,,0,8,8,8,0,4,4,4,,,,,,,,,,,,,,,,,,,,,,,,,,,,,,,,,,,,,,,,,,,,,,,,,,,,,,,,,,,,,,,,,,,,,1.0348,689.8406553999521,None,None,1,689.8406553999521,None,,P038,fencog,1,Pre,2022_Apr_26_1100,N-Back (New Version 2021),2021.1.4,120.3443291826842,
,,,,Conditions/Version_1/threeback(3)_v1.xlsx,New rule: Press 'space' when you see 3-back (i.e. the same letter as the one that appeared 3 letters ago.),o,None,,,,,,,,,0,8,8,8,0,5,5,5,,,,,,,,,,,,,,,,,,,,,,,,,,,,,,,,,,,,,,,,,,,,,,,,,,,,,,,,,,,,,,,,,,,,,1.0844,692.9315877999761,None,None,1,692.9315877999761,None,,P038,fencog,1,Pre,2022_Apr_26_1100,N-Back (New Version 2021),2021.1.4,120.3443291826842,
,,,,Conditions/Version_1/threeback(3)_v1.xlsx,New rule: Press 'space' when you see 3-back (i.e. the same letter as the one that appeared 3 letters ago.),w,None,,,,,,,,,0,8,8,8,0,6,6,6,,,,,,,,,,,,,,,,,,,,,,,,,,,,,,,,,,,,,,,,,,,,,,,,,,,,,,,,,,,,,,,,,,,,,1.7416,696.6720876999898,None,None,1,696.6720876999898,None,,P038,fencog,1,Pre,2022_Apr_26_1100,N-Back (New Version 2021),2021.1.4,120.3443291826842,
,,,,Conditions/Version_1/threeback(3)_v1.xlsx,New rule: Press 'space' when you see 3-back (i.e. the same letter as the one that appeared 3 letters ago.),F,space,,,,,,,,,0,8,8,8,0,7,7,7,,,,,,,,,,,,,,,,,,,,,,,,,,,,,,,,,,,,,,,,,,,,,,,,,,,,,,,,,,,,,,,,,,,,,1.134,699.8042784999707,None,space,1,699.8042784999707,None,1.0126599000068381,P038,fencog,1,Pre,2022_Apr_26_1100,N-Back (New Version 2021),2021.1.4,120.3443291826842,
,,,,Conditions/Version_1/threeback(3)_v1.xlsx,New rule: Press 'space' when you see 3-back (i.e. the same letter as the one that appeared 3 letters ago.),p,None,,,,,,,,,0,8,8,8,0,8,8,8,,,,,,,,,,,,,,,,,,,,,,,,,,,,,,,,,,,,,,,,,,,,,,,,,,,,,,,,,,,,,,,,,,,,,1.6734,703.4792293999926,None,None,1,703.4792293999926,None,,P038,fencog,1,Pre,2022_Apr_26_1100,N-Back (New Version 2021),2021.1.4,120.3443291826842,
,,,,Conditions/Version_1/threeback(3)_v1.xlsx,New rule: Press 'space' when you see 3-back (i.e. the same letter as the one that appeared 3 letters ago.),W,space,,,,,,,,,0,8,8,8,0,9,9,9,,,,,,,,,,,,,,,,,,,,,,,,,,,,,,,,,,,,,,,,,,,,,,,,,,,,,,,,,,,,,,,,,,,,,1.4378,706.9273285999661,None,None,0,706.9273285999661,None,,P038,fencog,1,Pre,2022_Apr_26_1100,N-Back (New Version 2021),2021.1.4,120.3443291826842,
,,,,Conditions/Version_1/threeback(3)_v1.xlsx,New rule: Press 'space' when you see 3-back (i.e. the same letter as the one that appeared 3 letters ago.),,,,,,,,,,,0,8,8,8,,,,,,,,,,,,,,,,,,,,,,,,,,,,,,,,,,,,,,,,,,,,,,,,,,,,,,,,,,,,,,,,,,,,,,,,,,,,,,,,,P038,fencog,1,Pre,2022_Apr_26_1100,N-Back (New Version 2021),2021.1.4,120.3443291826842,
,,,,Conditions/Version_1/zeroback(3)_v1.xlsx,New rule: Press 'space' when you see the letter 'x' or 'X'.,X,space,,,,,,,,,0,9,9,9,0,0,0,0,,,,,,,,,,,,,,,,,,,,,,,,,,,,,,,,,,,,,,,,,,,,,,,,,,,,,,,,,,,708.9553900999599,None,711.9358821999631,None,space,0.7371757999644615,711.9358821999631,None,708.9553900999599,None,1.1154,713.8264260999858,None,space,1,713.8264260999858,None,0.550430300005246,P038,fencog,1,Pre,2022_Apr_26_1100,N-Back (New Version 2021),2021.1.4,120.3443291826842,
,,,,Conditions/Version_1/zeroback(3)_v1.xlsx,New rule: Press 'space' when you see the letter 'x' or 'X'.,B,None,,,,,,,,,0,9,9,9,0,1,1,1,,,,,,,,,,,,,,,,,,,,,,,,,,,,,,,,,,,,,,,,,,,,,,,,,,,,,,,,,,,,,,,,,,,,,1.785,717.6261182999588,None,None,1,717.6261182999588,None,,P038,fencog,1,Pre,2022_Apr_26_1100,N-Back (New Version 2021),2021.1.4,120.3443291826842,
,,,,Conditions/Version_1/zeroback(3)_v1.xlsx,New rule: Press 'space' when you see the letter 'x' or 'X'.,m,None,,,,,,,,,0,9,9,9,0,2,2,2,,,,,,,,,,,,,,,,,,,,,,,,,,,,,,,,,,,,,,,,,,,,,,,,,,,,,,,,,,,,,,,,,,,,,1.2704,720.9063673999626,None,None,1,720.9063673999626,None,,P038,fencog,1,Pre,2022_Apr_26_1100,N-Back (New Version 2021),2021.1.4,120.3443291826842,
,,,,Conditions/Version_1/zeroback(3)_v1.xlsx,New rule: Press 'space' when you see the letter 'x' or 'X'.,m,None,,,,,,,,,0,9,9,9,0,3,3,3,,,,,,,,,,,,,,,,,,,,,,,,,,,,,,,,,,,,,,,,,,,,,,,,,,,,,,,,,,,,,,,,,,,,,1.1092,724.0222035999759,None,None,1,724.0222035999759,None,,P038,fencog,1,Pre,2022_Apr_26_1100,N-Back (New Version 2021),2021.1.4,120.3443291826842,
,,,,Conditions/Version_1/zeroback(3)_v1.xlsx,New rule: Press 'space' when you see the letter 'x' or 'X'.,o,None,,,,,,,,,0,9,9,9,0,4,4,4,,,,,,,,,,,,,,,,,,,,,,,,,,,,,,,,,,,,,,,,,,,,,,,,,,,,,,,,,,,,,,,,,,,,,1.072,727.0967309999978,None,None,1,727.0967309999978,None,,P038,fencog,1,Pre,2022_Apr_26_1100,N-Back (New Version 2021),2021.1.4,120.3443291826842,
,,,,Conditions/Version_1/zeroback(3)_v1.xlsx,New rule: Press 'space' when you see the letter 'x' or 'X'.,p,None,,,,,,,,,0,9,9,9,0,5,5,5,,,,,,,,,,,,,,,,,,,,,,,,,,,,,,,,,,,,,,,,,,,,,,,,,,,,,,,,,,,,,,,,,,,,,1.8222,730.921822699951,None,None,1,730.921822699951,None,,P038,fencog,1,Pre,2022_Apr_26_1100,N-Back (New Version 2021),2021.1.4,120.3443291826842,
,,,,Conditions/Version_1/zeroback(3)_v1.xlsx,New rule: Press 'space' when you see the letter 'x' or 'X'.,G,None,,,,,,,,,0,9,9,9,0,6,6,6,,,,,,,,,,,,,,,,,,,,,,,,,,,,,,,,,,,,,,,,,,,,,,,,,,,,,,,,,,,,,,,,,,,,,1.4688,734.4024251999799,None,None,1,734.4024251999799,None,,P038,fencog,1,Pre,2022_Apr_26_1100,N-Back (New Version 2021),2021.1.4,120.3443291826842,
,,,,Conditions/Version_1/zeroback(3)_v1.xlsx,New rule: Press 'space' when you see the letter 'x' or 'X'.,X,space,,,,,,,,,0,9,9,9,0,7,7,7,,,,,,,,,,,,,,,,,,,,,,,,,,,,,,,,,,,,,,,,,,,,,,,,,,,,,,,,,,,,,,,,,,,,,1.1526,737.5597853999934,None,space,1,737.5597853999934,None,0.4090180000057444,P038,fencog,1,Pre,2022_Apr_26_1100,N-Back (New Version 2021),2021.1.4,120.3443291826842,
,,,,Conditions/Version_1/zeroback(3)_v1.xlsx,New rule: Press 'space' when you see the letter 'x' or 'X'.,p,None,,,,,,,,,0,9,9,9,0,8,8,8,,,,,,,,,,,,,,,,,,,,,,,,,,,,,,,,,,,,,,,,,,,,,,,,,,,,,,,,,,,,,,,,,,,,,1.0782,740.6440822999575,None,None,1,740.6440822999575,None,,P038,fencog,1,Pre,2022_Apr_26_1100,N-Back (New Version 2021),2021.1.4,120.3443291826842,
,,,,Conditions/Version_1/zeroback(3)_v1.xlsx,New rule: Press 'space' when you see the letter 'x' or 'X'.,x,space,,,,,,,,,0,9,9,9,0,9,9,9,,,,,,,,,,,,,,,,,,,,,,,,,,,,,,,,,,,,,,,,,,,,,,,,,,,,,,,,,,,,,,,,,,,,,1.258,743.9078965999652,None,space,1,743.9078965999652,None,0.4127703999984078,P038,fencog,1,Pre,2022_Apr_26_1100,N-Back (New Version 2021),2021.1.4,120.3443291826842,
,,,,Conditions/Version_1/zeroback(3)_v1.xlsx,New rule: Press 'space' when you see the letter 'x' or 'X'.,,,,,,,,,,,0,9,9,9,,,,,,,,,,,,,,,,,,,,,,,,,,,,,,,,,,,,,,,,,,,,,,,,,,,,,,,,,,,,,,,,,,,,,,,,,,,,,,,,,P038,fencog,1,Pre,2022_Apr_26_1100,N-Back (New Version 2021),2021.1.4,120.3443291826842,
,,,,Conditions/Version_1/twoback(3)_v1.xlsx,New rule: Press 'space' when you see 2-back (i.e. the same letter as the one that appeared 2 letters ago.),e,None,,,,,,,,,0,10,10,10,0,0,0,0,,,,,,,,,,,,,,,,,,,,,,,,,,,,,,,,,,,,,,,,,,,,,,,,,,,,,,,,,,,745.9283195999451,None,748.9168525999994,None,space,0.3642011999618262,748.9168525999994,None,745.9283195999451,None,1.6734,750.9896319999825,None,None,1,750.9896319999825,None,,P038,fencog,1,Pre,2022_Apr_26_1100,N-Back (New Version 2021),2021.1.4,120.3443291826842,
,,,,Conditions/Version_1/twoback(3)_v1.xlsx,New rule: Press 'space' when you see 2-back (i.e. the same letter as the one that appeared 2 letters ago.),o,None,,,,,,,,,0,10,10,10,0,1,1,1,,,,,,,,,,,,,,,,,,,,,,,,,,,,,,,,,,,,,,,,,,,,,,,,,,,,,,,,,,,,,,,,,,,,,1.8222,754.8131631999859,None,None,1,754.8131631999859,None,,P038,fencog,1,Pre,2022_Apr_26_1100,N-Back (New Version 2021),2021.1.4,120.3443291826842,
,,,,Conditions/Version_1/twoback(3)_v1.xlsx,New rule: Press 'space' when you see 2-back (i.e. the same letter as the one that appeared 2 letters ago.),P,None,,,,,,,,,0,10,10,10,0,2,2,2,,,,,,,,,,,,,,,,,,,,,,,,,,,,,,,,,,,,,,,,,,,,,,,,,,,,,,,,,,,,,,,,,,,,,1.289,758.1055686999462,None,None,1,758.1055686999462,None,,P038,fencog,1,Pre,2022_Apr_26_1100,N-Back (New Version 2021),2021.1.4,120.3443291826842,
,,,,Conditions/Version_1/twoback(3)_v1.xlsx,New rule: Press 'space' when you see 2-back (i.e. the same letter as the one that appeared 2 letters ago.),z,None,,,,,,,,,0,10,10,10,0,3,3,3,,,,,,,,,,,,,,,,,,,,,,,,,,,,,,,,,,,,,,,,,,,,,,,,,,,,,,,,,,,,,,,,,,,,,1.0534,761.1723222999717,None,None,1,761.1723222999717,None,,P038,fencog,1,Pre,2022_Apr_26_1100,N-Back (New Version 2021),2021.1.4,120.3443291826842,
,,,,Conditions/Version_1/twoback(3)_v1.xlsx,New rule: Press 'space' when you see 2-back (i.e. the same letter as the one that appeared 2 letters ago.),X,None,,,,,,,,,0,10,10,10,0,4,4,4,,,,,,,,,,,,,,,,,,,,,,,,,,,,,,,,,,,,,,,,,,,,,,,,,,,,,,,,,,,,,,,,,,,,,1.4936,764.6788845999981,None,None,1,764.6788845999981,None,,P038,fencog,1,Pre,2022_Apr_26_1100,N-Back (New Version 2021),2021.1.4,120.3443291826842,
,,,,Conditions/Version_1/twoback(3)_v1.xlsx,New rule: Press 'space' when you see 2-back (i.e. the same letter as the one that appeared 2 letters ago.),z,space,,,,,,,,,0,10,10,10,0,5,5,5,,,,,,,,,,,,,,,,,,,,,,,,,,,,,,,,,,,,,,,,,,,,,,,,,,,,,,,,,,,,,,,,,,,,,1.3448,768.0340438999701,None,space,1,768.0340438999701,None,0.6947863000095822,P038,fencog,1,Pre,2022_Apr_26_1100,N-Back (New Version 2021),2021.1.4,120.3443291826842,
,,,,Conditions/Version_1/twoback(3)_v1.xlsx,New rule: Press 'space' when you see 2-back (i.e. the same letter as the one that appeared 2 letters ago.),x,space,,,,,,,,,0,10,10,10,0,6,6,6,,,,,,,,,,,,,,,,,,,,,,,,,,,,,,,,,,,,,,,,,,,,,,,,,,,,,,,,,,,,,,,,,,,,,1.4502,771.483562999987,None,space,1,771.483562999987,None,0.509132299979683,P038,fencog,1,Pre,2022_Apr_26_1100,N-Back (New Version 2021),2021.1.4,120.3443291826842,
,,,,Conditions/Version_1/twoback(3)_v1.xlsx,New rule: Press 'space' when you see 2-back (i.e. the same letter as the one that appeared 2 letters ago.),c,None,,,,,,,,,0,10,10,10,0,7,7,7,,,,,,,,,,,,,,,,,,,,,,,,,,,,,,,,,,,,,,,,,,,,,,,,,,,,,,,,,,,,,,,,,,,,,1.5804,775.0655358999502,None,None,1,775.0655358999502,None,,P038,fencog,1,Pre,2022_Apr_26_1100,N-Back (New Version 2021),2021.1.4,120.3443291826842,
,,,,Conditions/Version_1/twoback(3)_v1.xlsx,New rule: Press 'space' when you see 2-back (i.e. the same letter as the one that appeared 2 letters ago.),i,None,,,,,,,,,0,10,10,10,0,8,8,8,,,,,,,,,,,,,,,,,,,,,,,,,,,,,,,,,,,,,,,,,,,,,,,,,,,,,,,,,,,,,,,,,,,,,1.6424,778.7059276999789,None,None,1,778.7059276999789,None,,P038,fencog,1,Pre,2022_Apr_26_1100,N-Back (New Version 2021),2021.1.4,120.3443291826842,
,,,,Conditions/Version_1/twoback(3)_v1.xlsx,New rule: Press 'space' when you see 2-back (i.e. the same letter as the one that appeared 2 letters ago.),C,space,,,,,,,,,0,10,10,10,0,9,9,9,,,,,,,,,,,,,,,,,,,,,,,,,,,,,,,,,,,,,,,,,,,,,,,,,,,,,,,,,,,,,,,,,,,,,1.0906,781.7966795999673,None,space,1,781.7966795999673,None,1.067822500015609,P038,fencog,1,Pre,2022_Apr_26_1100,N-Back (New Version 2021),2021.1.4,120.3443291826842,
,,,,Conditions/Version_1/twoback(3)_v1.xlsx,New rule: Press 'space' when you see 2-back (i.e. the same letter as the one that appeared 2 letters ago.),,,,,,,,,,,0,10,10,10,,,,,,,,,,,,,,,,,,,,,,,,,,,,,,,,,,,,,,,,,,,,,,,,,,,,,,,,,,,,,,,,,,,,,,,,,,,,,,,,,P038,fencog,1,Pre,2022_Apr_26_1100,N-Back (New Version 2021),2021.1.4,120.3443291826842,
,,,,Conditions/Version_1/oneback(3)_v1.xlsx,New rule: Press 'space' when you see 1-back (i.e. the same letter as the one that appeared 1 letter ago.),o,None,,,,,,,,,0,11,11,11,0,0,0,0,,,,,,,,,,,,,,,,,,,,,,,,,,,,,,,,,,,,,,,,,,,,,,,,,,,,,,,,,,,783.822765799996,None,786.8063382999972,None,space,0.6822766999830492,786.8063382999972,None,783.822765799996,None,1.1836,788.7121524999966,None,None,1,788.7121524999966,None,,P038,fencog,1,Pre,2022_Apr_26_1100,N-Back (New Version 2021),2021.1.4,120.3443291826842,
,,,,Conditions/Version_1/oneback(3)_v1.xlsx,New rule: Press 'space' when you see 1-back (i.e. the same letter as the one that appeared 1 letter ago.),O,space,,,,,,,,,0,11,11,11,0,1,1,1,,,,,,,,,,,,,,,,,,,,,,,,,,,,,,,,,,,,,,,,,,,,,,,,,,,,,,,,,,,,,,,,,,,,,1.2394,791.9619899999816,None,space,1,791.9619899999816,None,0.702683600015007,P038,fencog,1,Pre,2022_Apr_26_1100,N-Back (New Version 2021),2021.1.4,120.3443291826842,
,,,,Conditions/Version_1/oneback(3)_v1.xlsx,New rule: Press 'space' when you see 1-back (i.e. the same letter as the one that appeared 1 letter ago.),h,None,,,,,,,,,0,11,11,11,0,2,2,2,,,,,,,,,,,,,,,,,,,,,,,,,,,,,,,,,,,,,,,,,,,,,,,,,,,,,,,,,,,,,,,,,,,,,1.3448,795.318181999959,None,None,1,795.318181999959,None,,P038,fencog,1,Pre,2022_Apr_26_1100,N-Back (New Version 2021),2021.1.4,120.3443291826842,
,,,,Conditions/Version_1/oneback(3)_v1.xlsx,New rule: Press 'space' when you see 1-back (i.e. the same letter as the one that appeared 1 letter ago.),g,None,,,,,,,,,0,11,11,11,0,3,3,3,,,,,,,,,,,,,,,,,,,,,,,,,,,,,,,,,,,,,,,,,,,,,,,,,,,,,,,,,,,,,,,,,,,,,1.4936,798.8167307999684,None,None,1,798.8167307999684,None,,P038,fencog,1,Pre,2022_Apr_26_1100,N-Back (New Version 2021),2021.1.4,120.3443291826842,
,,,,Conditions/Version_1/oneback(3)_v1.xlsx,New rule: Press 'space' when you see 1-back (i.e. the same letter as the one that appeared 1 letter ago.),n,None,,,,,,,,,0,11,11,11,0,4,4,4,,,,,,,,,,,,,,,,,,,,,,,,,,,,,,,,,,,,,,,,,,,,,,,,,,,,,,,,,,,,,,,,,,,,,1.2952,802.11941569997,None,None,1,802.11941569997,None,,P038,fencog,1,Pre,2022_Apr_26_1100,N-Back (New Version 2021),2021.1.4,120.3443291826842,
,,,,Conditions/Version_1/oneback(3)_v1.xlsx,New rule: Press 'space' when you see 1-back (i.e. the same letter as the one that appeared 1 letter ago.),z,None,,,,,,,,,0,11,11,11,0,5,5,5,,,,,,,,,,,,,,,,,,,,,,,,,,,,,,,,,,,,,,,,,,,,,,,,,,,,,,,,,,,,,,,,,,,,,1.785,805.9145948999794,None,None,1,805.9145948999794,None,,P038,fencog,1,Pre,2022_Apr_26_1100,N-Back (New Version 2021),2021.1.4,120.3443291826842,
,,,,Conditions/Version_1/oneback(3)_v1.xlsx,New rule: Press 'space' when you see 1-back (i.e. the same letter as the one that appeared 1 letter ago.),X,None,,,,,,,,,0,11,11,11,0,6,6,6,,,,,,,,,,,,,,,,,,,,,,,,,,,,,,,,,,,,,,,,,,,,,,,,,,,,,,,,,,,,,,,,,,,,,1.754,809.6718373999465,None,None,1,809.6718373999465,None,,P038,fencog,1,Pre,2022_Apr_26_1100,N-Back (New Version 2021),2021.1.4,120.3443291826842,
,,,,Conditions/Version_1/oneback(3)_v1.xlsx,New rule: Press 'space' when you see 1-back (i.e. the same letter as the one that appeared 1 letter ago.),r,None,,,,,,,,,0,11,11,11,0,7,7,7,,,,,,,,,,,,,,,,,,,,,,,,,,,,,,,,,,,,,,,,,,,,,,,,,,,,,,,,,,,,,,,,,,,,,1.382,813.0538610999938,None,None,1,813.0538610999938,None,,P038,fencog,1,Pre,2022_Apr_26_1100,N-Back (New Version 2021),2021.1.4,120.3443291826842,
,,,,Conditions/Version_1/oneback(3)_v1.xlsx,New rule: Press 'space' when you see 1-back (i.e. the same letter as the one that appeared 1 letter ago.),r,space,,,,,,,,,0,11,11,11,0,8,8,8,,,,,,,,,,,,,,,,,,,,,,,,,,,,,,,,,,,,,,,,,,,,,,,,,,,,,,,,,,,,,,,,,,,,,1.0162,816.0696530999849,None,space,1,816.0696530999849,None,0.5149626000202261,P038,fencog,1,Pre,2022_Apr_26_1100,N-Back (New Version 2021),2021.1.4,120.3443291826842,
,,,,Conditions/Version_1/oneback(3)_v1.xlsx,New rule: Press 'space' when you see 1-back (i.e. the same letter as the one that appeared 1 letter ago.),P,None,,,,,,,,,0,11,11,11,0,9,9,9,,,,,,,,,,,,,,,,,,,,,,,,,,,,,,,,,,,,,,,,,,,,,,,,,,,,,,,,,,,,,,,,,,,,,1.5556,819.6280119999428,None,None,1,819.6280119999428,None,,P038,fencog,1,Pre,2022_Apr_26_1100,N-Back (New Version 2021),2021.1.4,120.3443291826842,
,,,,Conditions/Version_1/oneback(3)_v1.xlsx,New rule: Press 'space' when you see 1-back (i.e. the same letter as the one that appeared 1 letter ago.),,,,,,,,,,,0,11,11,11,,,,,,,,,,,,,,,,,,,,,,,,,,,,,,,,,,,,,,,,,,,,,,,,,,,,,,,,,,,,,,,,,,,,,,,,,,,,,,,,,P038,fencog,1,Pre,2022_Apr_26_1100,N-Back (New Version 2021),2021.1.4,120.3443291826842,
,,,,Conditions/Version_1/twoback(4)_v1.xlsx,New rule: Press 'space' when you see 2-back (i.e. the same letter as the one that appeared 2 letters ago.),r,None,,,,,,,,,0,12,12,12,0,0,0,0,,,,,,,,,,,,,,,,,,,,,,,,,,,,,,,,,,,,,,,,,,,,,,,,,,,,,,,,,,,821.6523190999869,None,824.6357610999839,None,space,3.685116900014691,824.6357610999839,None,821.6523190999869,None,1.909,830.2986652999534,None,None,1,830.2986652999534,None,,P038,fencog,1,Pre,2022_Apr_26_1100,N-Back (New Version 2021),2021.1.4,120.3443291826842,
,,,,Conditions/Version_1/twoback(4)_v1.xlsx,New rule: Press 'space' when you see 2-back (i.e. the same letter as the one that appeared 2 letters ago.),T,None,,,,,,,,,0,12,12,12,0,1,1,1,,,,,,,,,,,,,,,,,,,,,,,,,,,,,,,,,,,,,,,,,,,,,,,,,,,,,,,,,,,,,,,,,,,,,1.0348,833.339528099983,None,None,1,833.339528099983,None,,P038,fencog,1,Pre,2022_Apr_26_1100,N-Back (New Version 2021),2021.1.4,120.3443291826842,
,,,,Conditions/Version_1/twoback(4)_v1.xlsx,New rule: Press 'space' when you see 2-back (i.e. the same letter as the one that appeared 2 letters ago.),o,None,,,,,,,,,0,12,12,12,0,2,2,2,,,,,,,,,,,,,,,,,,,,,,,,,,,,,,,,,,,,,,,,,,,,,,,,,,,,,,,,,,,,,,,,,,,,,1.5246,836.863496099948,None,None,1,836.863496099948,None,,P038,fencog,1,Pre,2022_Apr_26_1100,N-Back (New Version 2021),2021.1.4,120.3443291826842,
,,,,Conditions/Version_1/twoback(4)_v1.xlsx,New rule: Press 'space' when you see 2-back (i.e. the same letter as the one that appeared 2 letters ago.),p,None,,,,,,,,,0,12,12,12,0,3,3,3,,,,,,,,,,,,,,,,,,,,,,,,,,,,,,,,,,,,,,,,,,,,,,,,,,,,,,,,,,,,,,,,,,,,,1.413,840.2805392999435,None,None,1,840.2805392999435,None,,P038,fencog,1,Pre,2022_Apr_26_1100,N-Back (New Version 2021),2021.1.4,120.3443291826842,
,,,,Conditions/Version_1/twoback(4)_v1.xlsx,New rule: Press 'space' when you see 2-back (i.e. the same letter as the one that appeared 2 letters ago.),p,None,,,,,,,,,0,12,12,12,0,4,4,4,,,,,,,,,,,,,,,,,,,,,,,,,,,,,,,,,,,,,,,,,,,,,,,,,,,,,,,,,,,,,,,,,,,,,1.4874,843.7784547999618,None,None,1,843.7784547999618,None,,P038,fencog,1,Pre,2022_Apr_26_1100,N-Back (New Version 2021),2021.1.4,120.3443291826842,
,,,,Conditions/Version_1/twoback(4)_v1.xlsx,New rule: Press 'space' when you see 2-back (i.e. the same letter as the one that appeared 2 letters ago.),y,None,,,,,,,,,0,12,12,12,0,5,5,5,,,,,,,,,,,,,,,,,,,,,,,,,,,,,,,,,,,,,,,,,,,,,,,,,,,,,,,,,,,,,,,,,,,,,1.971,847.7523072999902,None,None,1,847.7523072999902,None,,P038,fencog,1,Pre,2022_Apr_26_1100,N-Back (New Version 2021),2021.1.4,120.3443291826842,
,,,,Conditions/Version_1/twoback(4)_v1.xlsx,New rule: Press 'space' when you see 2-back (i.e. the same letter as the one that appeared 2 letters ago.),P,space,,,,,,,,,0,12,12,12,0,6,6,6,,,,,,,,,,,,,,,,,,,,,,,,,,,,,,,,,,,,,,,,,,,,,,,,,,,,,,,,,,,,,,,,,,,,,1.2704,851.0259529999457,None,space,1,851.0259529999457,None,0.510564099997282,P038,fencog,1,Pre,2022_Apr_26_1100,N-Back (New Version 2021),2021.1.4,120.3443291826842,
,,,,Conditions/Version_1/twoback(4)_v1.xlsx,New rule: Press 'space' when you see 2-back (i.e. the same letter as the one that appeared 2 letters ago.),y,None,,,,,,,,,0,12,12,12,0,7,7,7,,,,,,,,,,,,,,,,,,,,,,,,,,,,,,,,,,,,,,,,,,,,,,,,,,,,,,,,,,,,,,,,,,,,,1.2332,854.2583219999797,None,space,0,854.2583219999797,None,1.518223199993372,P038,fencog,1,Pre,2022_Apr_26_1100,N-Back (New Version 2021),2021.1.4,120.3443291826842,
,,,,Conditions/Version_1/twoback(4)_v1.xlsx,New rule: Press 'space' when you see 2-back (i.e. the same letter as the one that appeared 2 letters ago.),y,space,,,,,,,,,0,12,12,12,0,8,8,8,,,,,,,,,,,,,,,,,,,,,,,,,,,,,,,,,,,,,,,,,,,,,,,,,,,,,,,,,,,,,,,,,,,,,1.5556,857.8156228999724,None,space,1,857.8156228999724,None,0.6088989000418223,P038,fencog,1,Pre,2022_Apr_26_1100,N-Back (New Version 2021),2021.1.4,120.3443291826842,
,,,,Conditions/Version_1/twoback(4)_v1.xlsx,New rule: Press 'space' when you see 2-back (i.e. the same letter as the one that appeared 2 letters ago.),,,,,,,,,,,0,12,12,12,,,,,,,,,,,,,,,,,,,,,,,,,,,,,,,,,,,,,,,,,,,,,,,,,,,,,,,,,,,,,,,,,,,,,,,,,,,,,,,,,P038,fencog,1,Pre,2022_Apr_26_1100,N-Back (New Version 2021),2021.1.4,120.3443291826842,
,,,,Conditions/Version_1/zeroback(4)_v1.xlsx,New rule: Press 'space' when you see the letter 'x' or 'X'.,o,None,,,,,,,,,0,13,13,13,0,0,0,0,,,,,,,,,,,,,,,,,,,,,,,,,,,,,,,,,,,,,,,,,,,,,,,,,,,,,,,,,,,859.8317246999941,None,862.815300999966,None,space,0.5370998999569565,862.815300999966,None,859.8317246999941,None,1.1092,864.4970370999654,None,None,1,864.4970370999654,None,,P038,fencog,1,Pre,2022_Apr_26_1100,N-Back (New Version 2021),2021.1.4,120.3443291826842,
,,,,Conditions/Version_1/zeroback(4)_v1.xlsx,New rule: Press 'space' when you see the letter 'x' or 'X'.,X,space,,,,,,,,,0,13,13,13,0,1,1,1,,,,,,,,,,,,,,,,,,,,,,,,,,,,,,,,,,,,,,,,,,,,,,,,,,,,,,,,,,,,,,,,,,,,,1.1774,867.6793221999542,None,space,1,867.6793221999542,None,0.4332337999949232,P038,fencog,1,Pre,2022_Apr_26_1100,N-Back (New Version 2021),2021.1.4,120.3443291826842,
,,,,Conditions/Version_1/zeroback(4)_v1.xlsx,New rule: Press 'space' when you see the letter 'x' or 'X'.,p,None,,,,,,,,,0,13,13,13,0,2,2,2,,,,,,,,,,,,,,,,,,,,,,,,,,,,,,,,,,,,,,,,,,,,,,,,,,,,,,,,,,,,,,,,,,,,,1.2828,870.9617047999636,None,None,1,870.9617047999636,None,,P038,fencog,1,Pre,2022_Apr_26_1100,N-Back (New Version 2021),2021.1.4,120.3443291826842,
,,,,Conditions/Version_1/zeroback(4)_v1.xlsx,New rule: Press 'space' when you see the letter 'x' or 'X'.,m,None,,,,,,,,,0,13,13,13,0,3,3,3,,,,,,,,,,,,,,,,,,,,,,,,,,,,,,,,,,,,,,,,,,,,,,,,,,,,,,,,,,,,,,,,,,,,,1.2642,874.2273949999944,None,None,1,874.2273949999944,None,,P038,fencog,1,Pre,2022_Apr_26_1100,N-Back (New Version 2021),2021.1.4,120.3443291826842,
,,,,Conditions/Version_1/zeroback(4)_v1.xlsx,New rule: Press 'space' when you see the letter 'x' or 'X'.,n,None,,,,,,,,,0,13,13,13,0,4,4,4,,,,,,,,,,,,,,,,,,,,,,,,,,,,,,,,,,,,,,,,,,,,,,,,,,,,,,,,,,,,,,,,,,,,,1.5618,877.7940984999877,None,None,1,877.7940984999877,None,,P038,fencog,1,Pre,2022_Apr_26_1100,N-Back (New Version 2021),2021.1.4,120.3443291826842,
,,,,Conditions/Version_1/zeroback(4)_v1.xlsx,New rule: Press 'space' when you see the letter 'x' or 'X'.,m,None,,,,,,,,,0,13,13,13,0,5,5,5,,,,,,,,,,,,,,,,,,,,,,,,,,,,,,,,,,,,,,,,,,,,,,,,,,,,,,,,,,,,,,,,,,,,,1.0472,880.8528630999499,None,None,1,880.8528630999499,None,,P038,fencog,1,Pre,2022_Apr_26_1100,N-Back (New Version 2021),2021.1.4,120.3443291826842,
,,,,Conditions/Version_1/zeroback(4)_v1.xlsx,New rule: Press 'space' when you see the letter 'x' or 'X'.,C,None,,,,,,,,,0,13,13,13,0,6,6,6,,,,,,,,,,,,,,,,,,,,,,,,,,,,,,,,,,,,,,,,,,,,,,,,,,,,,,,,,,,,,,,,,,,,,1.6858,884.5493826999445,None,None,1,884.5493826999445,None,,P038,fencog,1,Pre,2022_Apr_26_1100,N-Back (New Version 2021),2021.1.4,120.3443291826842,
,,,,Conditions/Version_1/zeroback(4)_v1.xlsx,New rule: Press 'space' when you see the letter 'x' or 'X'.,m,None,,,,,,,,,0,13,13,13,0,7,7,7,,,,,,,,,,,,,,,,,,,,,,,,,,,,,,,,,,,,,,,,,,,,,,,,,,,,,,,,,,,,,,,,,,,,,1.2208,887.7734064999968,None,None,1,887.7734064999968,None,,P038,fencog,1,Pre,2022_Apr_26_1100,N-Back (New Version 2021),2021.1.4,120.3443291826842,
,,,,Conditions/Version_1/zeroback(4)_v1.xlsx,New rule: Press 'space' when you see the letter 'x' or 'X'.,p,None,,,,,,,,,0,13,13,13,0,8,8,8,,,,,,,,,,,,,,,,,,,,,,,,,,,,,,,,,,,,,,,,,,,,,,,,,,,,,,,,,,,,,,,,,,,,,1.909,891.6898799999617,None,None,1,891.6898799999617,None,,P038,fencog,1,Pre,2022_Apr_26_1100,N-Back (New Version 2021),2021.1.4,120.3443291826842,
,,,,Conditions/Version_1/zeroback(4)_v1.xlsx,New rule: Press 'space' when you see the letter 'x' or 'X'.,X,space,,,,,,,,,0,13,13,13,0,9,9,9,,,,,,,,,,,,,,,,,,,,,,,,,,,,,,,,,,,,,,,,,,,,,,,,,,,,,,,,,,,,,,,,,,,,,1.01,894.7130010999972,None,space,1,894.7130010999972,None,0.8234388999990188,P038,fencog,1,Pre,2022_Apr_26_1100,N-Back (New Version 2021),2021.1.4,120.3443291826842,
,,,,Conditions/Version_1/zeroback(4)_v1.xlsx,New rule: Press 'space' when you see the letter 'x' or 'X'.,,,,,,,,,,,0,13,13,13,,,,,,,,,,,,,,,,,,,,,,,,,,,,,,,,,,,,,,,,,,,,,,,,,,,,,,,,,,,,,,,,,,,,,,,,,,,,,,,,,P038,fencog,1,Pre,2022_Apr_26_1100,N-Back (New Version 2021),2021.1.4,120.3443291826842,
,,,,Conditions/Version_1/oneback(4)_v1.xlsx,New rule: Press 'space' when you see 1-back (i.e. the same letter as the one that appeared 1 letter ago.),w,None,,,,,,,,,0,14,14,14,0,0,0,0,,,,,,,,,,,,,,,,,,,,,,,,,,,,,,,,,,,,,,,,,,,,,,,,,,,,,,,,,,,896.736332499946,None,899.7216832999839,None,space,1.1667492000269704,899.7216832999839,None,896.736332499946,None,1.0162,901.9361110999598,None,None,1,901.9361110999598,None,,P038,fencog,1,Pre,2022_Apr_26_1100,N-Back (New Version 2021),2021.1.4,120.3443291826842,
,,,,Conditions/Version_1/oneback(4)_v1.xlsx,New rule: Press 'space' when you see 1-back (i.e. the same letter as the one that appeared 1 letter ago.),q,None,,,,,,,,,0,14,14,14,0,1,1,1,,,,,,,,,,,,,,,,,,,,,,,,,,,,,,,,,,,,,,,,,,,,,,,,,,,,,,,,,,,,,,,,,,,,,1.3138,905.2526535999496,None,None,1,905.2526535999496,None,,P038,fencog,1,Pre,2022_Apr_26_1100,N-Back (New Version 2021),2021.1.4,120.3443291826842,
,,,,Conditions/Version_1/oneback(4)_v1.xlsx,New rule: Press 'space' when you see 1-back (i.e. the same letter as the one that appeared 1 letter ago.),i,None,,,,,,,,,0,14,14,14,0,2,2,2,,,,,,,,,,,,,,,,,,,,,,,,,,,,,,,,,,,,,,,,,,,,,,,,,,,,,,,,,,,,,,,,,,,,,1.599,908.8593323999667,None,None,1,908.8593323999667,None,,P038,fencog,1,Pre,2022_Apr_26_1100,N-Back (New Version 2021),2021.1.4,120.3443291826842,
,,,,Conditions/Version_1/oneback(4)_v1.xlsx,New rule: Press 'space' when you see 1-back (i.e. the same letter as the one that appeared 1 letter ago.),t,None,,,,,,,,,0,14,14,14,0,3,3,3,,,,,,,,,,,,,,,,,,,,,,,,,,,,,,,,,,,,,,,,,,,,,,,,,,,,,,,,,,,,,,,,,,,,,1.4874,912.357906899997,None,None,1,912.357906899997,None,,P038,fencog,1,Pre,2022_Apr_26_1100,N-Back (New Version 2021),2021.1.4,120.3443291826842,
,,,,Conditions/Version_1/oneback(4)_v1.xlsx,New rule: Press 'space' when you see 1-back (i.e. the same letter as the one that appeared 1 letter ago.),v,None,,,,,,,,,0,14,14,14,0,4,4,4,,,,,,,,,,,,,,,,,,,,,,,,,,,,,,,,,,,,,,,,,,,,,,,,,,,,,,,,,,,,,,,,,,,,,1.4006,915.7598257999634,None,None,1,915.7598257999634,None,,P038,fencog,1,Pre,2022_Apr_26_1100,N-Back (New Version 2021),2021.1.4,120.3443291826842,
,,,,Conditions/Version_1/oneback(4)_v1.xlsx,New rule: Press 'space' when you see 1-back (i.e. the same letter as the one that appeared 1 letter ago.),V,space,,,,,,,,,0,14,14,14,0,5,5,5,,,,,,,,,,,,,,,,,,,,,,,,,,,,,,,,,,,,,,,,,,,,,,,,,,,,,,,,,,,,,,,,,,,,,1.413,919.1820814999519,None,None,0,919.1820814999519,None,,P038,fencog,1,Pre,2022_Apr_26_1100,N-Back (New Version 2021),2021.1.4,120.3443291826842,
,,,,Conditions/Version_1/oneback(4)_v1.xlsx,New rule: Press 'space' when you see 1-back (i.e. the same letter as the one that appeared 1 letter ago.),v,space,,,,,,,,,0,14,14,14,0,6,6,6,,,,,,,,,,,,,,,,,,,,,,,,,,,,,,,,,,,,,,,,,,,,,,,,,,,,,,,,,,,,,,,,,,,,,1.9028,923.0964734999579,None,None,0,923.0964734999579,None,,P038,fencog,1,Pre,2022_Apr_26_1100,N-Back (New Version 2021),2021.1.4,120.3443291826842,
,,,,Conditions/Version_1/oneback(4)_v1.xlsx,New rule: Press 'space' when you see 1-back (i.e. the same letter as the one that appeared 1 letter ago.),p,None,,,,,,,,,0,14,14,14,0,7,7,7,,,,,,,,,,,,,,,,,,,,,,,,,,,,,,,,,,,,,,,,,,,,,,,,,,,,,,,,,,,,,,,,,,,,,1.94,927.0369856999605,None,None,1,927.0369856999605,None,,P038,fencog,1,Pre,2022_Apr_26_1100,N-Back (New Version 2021),2021.1.4,120.3443291826842,
,,,,Conditions/Version_1/oneback(4)_v1.xlsx,New rule: Press 'space' when you see 1-back (i.e. the same letter as the one that appeared 1 letter ago.),w,None,,,,,,,,,0,14,14,14,0,8,8,8,,,,,,,,,,,,,,,,,,,,,,,,,,,,,,,,,,,,,,,,,,,,,,,,,,,,,,,,,,,,,,,,,,,,,1.6734,930.7106838999898,None,None,1,930.7106838999898,None,,P038,fencog,1,Pre,2022_Apr_26_1100,N-Back (New Version 2021),2021.1.4,120.3443291826842,
,,,,Conditions/Version_1/oneback(4)_v1.xlsx,New rule: Press 'space' when you see 1-back (i.e. the same letter as the one that appeared 1 letter ago.),W,space,,,,,,,,,0,14,14,14,0,9,9,9,,,,,,,,,,,,,,,,,,,,,,,,,,,,,,,,,,,,,,,,,,,,,,,,,,,,,,,,,,,,,,,,,,,,,1.8718,934.584808399959,None,None,0,934.584808399959,None,,P038,fencog,1,Pre,2022_Apr_26_1100,N-Back (New Version 2021),2021.1.4,120.3443291826842,
,,,,Conditions/Version_1/oneback(4)_v1.xlsx,New rule: Press 'space' when you see 1-back (i.e. the same letter as the one that appeared 1 letter ago.),,,,,,,,,,,0,14,14,14,,,,,,,,,,,,,,,,,,,,,,,,,,,,,,,,,,,,,,,,,,,,,,,,,,,,,,,,,,,,,,,,,,,,,,,,,,,,,,,,,P038,fencog,1,Pre,2022_Apr_26_1100,N-Back (New Version 2021),2021.1.4,120.3443291826842,
,,,,Conditions/Version_1/threeback(4)_v1.xlsx,New rule: Press 'space' when you see 3-back (i.e. the same letter as the one that appeared 3 letters ago.),A,None,,,,,,,,,0,15,15,15,0,0,0,0,,,,,,,,,,,,,,,,,,,,,,,,,,,,,,,,,,,,,,,,,,,,,,,,,,,,,,,,,,,936.6074495999492,None,939.5938399999868,None,space,0.7986040000105277,939.5938399999868,None,936.6074495999492,None,1.072,941.5015778999659,None,None,1,941.5015778999659,None,,P038,fencog,1,Pre,2022_Apr_26_1100,N-Back (New Version 2021),2021.1.4,120.3443291826842,
,,,,Conditions/Version_1/threeback(4)_v1.xlsx,New rule: Press 'space' when you see 3-back (i.e. the same letter as the one that appeared 3 letters ago.),n,None,,,,,,,,,0,15,15,15,0,1,1,1,,,,,,,,,,,,,,,,,,,,,,,,,,,,,,,,,,,,,,,,,,,,,,,,,,,,,,,,,,,,,,,,,,,,,1.196,944.7072456999449,None,None,1,944.7072456999449,None,,P038,fencog,1,Pre,2022_Apr_26_1100,N-Back (New Version 2021),2021.1.4,120.3443291826842,
,,,,Conditions/Version_1/threeback(4)_v1.xlsx,New rule: Press 'space' when you see 3-back (i.e. the same letter as the one that appeared 3 letters ago.),g,None,,,,,,,,,0,15,15,15,0,2,2,2,,,,,,,,,,,,,,,,,,,,,,,,,,,,,,,,,,,,,,,,,,,,,,,,,,,,,,,,,,,,,,,,,,,,,1.6176,948.3400994999683,None,None,1,948.3400994999683,None,,P038,fencog,1,Pre,2022_Apr_26_1100,N-Back (New Version 2021),2021.1.4,120.3443291826842,
,,,,Conditions/Version_1/threeback(4)_v1.xlsx,New rule: Press 'space' when you see 3-back (i.e. the same letter as the one that appeared 3 letters ago.),A,space,,,,,,,,,0,15,15,15,0,3,3,3,,,,,,,,,,,,,,,,,,,,,,,,,,,,,,,,,,,,,,,,,,,,,,,,,,,,,,,,,,,,,,,,,,,,,1.351,951.7066584999557,None,space,1,951.7066584999557,None,0.6297212999779731,P038,fencog,1,Pre,2022_Apr_26_1100,N-Back (New Version 2021),2021.1.4,120.3443291826842,
,,,,Conditions/Version_1/threeback(4)_v1.xlsx,New rule: Press 'space' when you see 3-back (i.e. the same letter as the one that appeared 3 letters ago.),p,None,,,,,,,,,0,15,15,15,0,4,4,4,,,,,,,,,,,,,,,,,,,,,,,,,,,,,,,,,,,,,,,,,,,,,,,,,,,,,,,,,,,,,,,,,,,,,1.4316,955.1450323999743,None,None,1,955.1450323999743,None,,P038,fencog,1,Pre,2022_Apr_26_1100,N-Back (New Version 2021),2021.1.4,120.3443291826842,
,,,,Conditions/Version_1/threeback(4)_v1.xlsx,New rule: Press 'space' when you see 3-back (i.e. the same letter as the one that appeared 3 letters ago.),O,None,,,,,,,,,0,15,15,15,0,5,5,5,,,,,,,,,,,,,,,,,,,,,,,,,,,,,,,,,,,,,,,,,,,,,,,,,,,,,,,,,,,,,,,,,,,,,1.5308,958.6787783999462,None,None,1,958.6787783999462,None,,P038,fencog,1,Pre,2022_Apr_26_1100,N-Back (New Version 2021),2021.1.4,120.3443291826842,
,,,,Conditions/Version_1/threeback(4)_v1.xlsx,New rule: Press 'space' when you see 3-back (i.e. the same letter as the one that appeared 3 letters ago.),a,space,,,,,,,,,0,15,15,15,0,6,6,6,,,,,,,,,,,,,,,,,,,,,,,,,,,,,,,,,,,,,,,,,,,,,,,,,,,,,,,,,,,,,,,,,,,,,1.4192,962.1096930999774,None,None,0,962.1096930999774,None,,P038,fencog,1,Pre,2022_Apr_26_1100,N-Back (New Version 2021),2021.1.4,120.3443291826842,
,,,,Conditions/Version_1/threeback(4)_v1.xlsx,New rule: Press 'space' when you see 3-back (i.e. the same letter as the one that appeared 3 letters ago.),p,space,,,,,,,,,0,15,15,15,0,7,7,7,,,,,,,,,,,,,,,,,,,,,,,,,,,,,,,,,,,,,,,,,,,,,,,,,,,,,,,,,,,,,,,,,,,,,1.5618,965.6774810999632,None,space,1,965.6774810999632,None,0.42677520000142977,P038,fencog,1,Pre,2022_Apr_26_1100,N-Back (New Version 2021),2021.1.4,120.3443291826842,
,,,,Conditions/Version_1/threeback(4)_v1.xlsx,New rule: Press 'space' when you see 3-back (i.e. the same letter as the one that appeared 3 letters ago.),x,None,,,,,,,,,0,15,15,15,0,8,8,8,,,,,,,,,,,,,,,,,,,,,,,,,,,,,,,,,,,,,,,,,,,,,,,,,,,,,,,,,,,,,,,,,,,,,1.4254,969.1077664999757,None,None,1,969.1077664999757,None,,P038,fencog,1,Pre,2022_Apr_26_1100,N-Back (New Version 2021),2021.1.4,120.3443291826842,
,,,,Conditions/Version_1/threeback(4)_v1.xlsx,New rule: Press 'space' when you see 3-back (i.e. the same letter as the one that appeared 3 letters ago.),X,None,,,,,,,,,0,15,15,15,0,9,9,9,,,,,,,,,,,,,,,,,,,,,,,,,,,,,,,,,,,,,,,,,,,,,,,,,,,,,,,,,,,,,,,,,,,,,1.3386,972.448411499965,None,None,1,972.448411499965,None,,P038,fencog,1,Pre,2022_Apr_26_1100,N-Back (New Version 2021),2021.1.4,120.3443291826842,
,,,,Conditions/Version_1/threeback(4)_v1.xlsx,New rule: Press 'space' when you see 3-back (i.e. the same letter as the one that appeared 3 letters ago.),,,,,,,,,,,0,15,15,15,,,,,,,,,,,,,,,,,,,,,,,,,,,,,,,,,,,,,,,,,,,,,,,,,,,,,,,,,,,,,,,,,,,,,,,,,,,,,,,,,P038,fencog,1,Pre,2022_Apr_26_1100,N-Back (New Version 2021),2021.1.4,120.3443291826842,
