CondFileP,InstructionsP,LettersDisplayedP,CorrectnessP,CondFile,Instructions,LettersDisplayed,Correctness,practicetrials.thisRepN,practicetrials.thisTrialN,practicetrials.thisN,practicetrials.thisIndex,InnerLoopPractice.thisRepN,InnerLoopPractice.thisTrialN,InnerLoopPractice.thisN,InnerLoopPractice.thisIndex,trials.thisRepN,trials.thisTrialN,trials.thisN,trials.thisIndex,InnerLoop.thisRepN,InnerLoop.thisTrialN,InnerLoop.thisN,InnerLoop.thisIndex,TaskVersionText.started,TaskVersionText.stopped,InstrKey1.keys,InstrKey1.rt,InstrKey1.started,InstrKey1.stopped,text.started,text.stopped,key_resp_4.keys,key_resp_4.rt,key_resp_4.started,key_resp_4.stopped,text_2.started,text_2.stopped,key_resp_3.keys,key_resp_3.rt,key_resp_3.started,key_resp_3.stopped,text_3.started,text_3.stopped,key_resp_2.keys,key_resp_2.rt,key_resp_2.started,key_resp_2.stopped,PractIn1.started,PractIn1.stopped,PractIn2.started,PractIn2.stopped,PractInstructionPass.keys,PractInstructionPass.rt,PractInstructionPass.started,PractInstructionPass.stopped,PractBlock1.started,PractBlock1.stopped,ISIjitterPractice,ISI_Pract_Fixation.started,ISI_Pract_Fixation.stopped,N_backP.started,N_backP.stopped,KeyPractice.keys,KeyPractice.corr,KeyPractice.rt,KeyPractice.started,KeyPractice.stopped,text_4.started,text_4.stopped,TransitionText.started,TransitionText.stopped,key_resp_6.keys,key_resp_6.rt,key_resp_6.started,key_resp_6.stopped,text_5.started,text_5.stopped,key_resp_5.keys,key_resp_5.rt,key_resp_5.started,key_resp_5.stopped,MainInt1.started,MainInt1.stopped,MainInt2.started,MainInt2.stopped,InstructionPass.keys,InstructionPass.rt,InstructionPass.started,InstructionPass.stopped,Blocks1.started,Blocks1.stopped,ISIjitter,N_backD.started,N_backD.stopped,key_resp.keys,key_resp.corr,key_resp.started,key_resp.stopped,key_resp.rt,participant,Study Name,Task Version (required to run),PRE/POST,date,expName,psychopyVersion,frameRate,
,,,,,,,,,,,,,,,,,,,,,,,,65.75896970002213,None,space,23.046693800017238,66.255229900009,None,,,,,,,,,,,,,,,,,,,,,,,,,,,,,,,,,,,,,,,,,,,,,,,,,,,,,,,,,,,,,,,,,,,,,,,P038,FENCOG,2,Post,2022_May_03_1253,N-Back (New Version 2021),2021.1.4,120.09040412947378,
,,,,,,,,,,,,,,,,,,,,,,,,,,,,,,89.33702170004835,None,space,11.749832200002857,89.83203690004302,None,,,,,,,,,,,,,,,,,,,,,,,,,,,,,,,,,,,,,,,,,,,,,,,,,,,,,,,,,,,,,,,,,P038,FENCOG,2,Post,2022_May_03_1253,N-Back (New Version 2021),2021.1.4,120.09040412947378,
,,,,,,,,,,,,,,,,,,,,,,,,,,,,,,,,,,,,101.62154570000712,None,space,6.845732900022995,102.11202960001538,None,,,,,,,,,,,,,,,,,,,,,,,,,,,,,,,,,,,,,,,,,,,,,,,,,,,,,,,,,,,P038,FENCOG,2,Post,2022_May_03_1253,N-Back (New Version 2021),2021.1.4,120.09040412947378,
,,,,,,,,,,,,,,,,,,,,,,,,,,,,,,,,,,,,,,,,,,108.98366060003173,None,space,3.8492979999864474,109.47641320002731,None,,,,,,,,,,,,,,,,,,,,,,,,,,,,,,,,,,,,,,,,,,,,,,,,,,,,,P038,FENCOG,2,Post,2022_May_03_1253,N-Back (New Version 2021),2021.1.4,120.09040412947378,
Conditions/Version_2Pr/zeroback(1)_v2.xlsx,Rule: Press 'space' when you see the letter 'x' or 'X'.,x,space,,,,,0,0,0,0,0,0,0,0,,,,,,,,,,,,,,,,,,,,,,,,,,,,,,,,,114.71019640000304,None,117.69204130000435,None,space,0.8096170999924652,117.69204130000435,None,114.71019640000304,None,1.165,118.53504849999445,None,119.70889970002463,None,space,1,0.40076970000518486,119.70889970002463,None,120.12838070001453,None,,,,,,,,,,,,,,,,,,,,,,,,,,,,,,,P038,FENCOG,2,Post,2022_May_03_1253,N-Back (New Version 2021),2021.1.4,120.09040412947378,
Conditions/Version_2Pr/zeroback(1)_v2.xlsx,Rule: Press 'space' when you see the letter 'x' or 'X'.,R,None,,,,,0,0,0,0,0,1,1,1,,,,,,,,,,,,,,,,,,,,,,,,,,,,,,,,,,,,,,,,,,,1.24,121.6302959000459,None,122.87307280005189,None,None,1,,122.87307280005189,None,124.8793148000259,None,,,,,,,,,,,,,,,,,,,,,,,,,,,,,,,P038,FENCOG,2,Post,2022_May_03_1253,N-Back (New Version 2021),2021.1.4,120.09040412947378,
Conditions/Version_2Pr/zeroback(1)_v2.xlsx,Rule: Press 'space' when you see the letter 'x' or 'X'.,p,None,,,,,0,0,0,0,0,2,2,2,,,,,,,,,,,,,,,,,,,,,,,,,,,,,,,,,,,,,,,,,,,1.19,126.3789672999992,None,127.57179750001524,None,None,1,,127.57179750001524,None,129.57804819999728,None,,,,,,,,,,,,,,,,,,,,,,,,,,,,,,,P038,FENCOG,2,Post,2022_May_03_1253,N-Back (New Version 2021),2021.1.4,120.09040412947378,
Conditions/Version_2Pr/zeroback(1)_v2.xlsx,Rule: Press 'space' when you see the letter 'x' or 'X'.,O,None,,,,,0,0,0,0,0,3,3,3,,,,,,,,,,,,,,,,,,,,,,,,,,,,,,,,,,,,,,,,,,,1.815,131.0775636000326,None,132.89417700003833,None,None,1,,132.89417700003833,None,134.90147480001906,None,,,,,,,,,,,,,,,,,,,,,,,,,,,,,,,P038,FENCOG,2,Post,2022_May_03_1253,N-Back (New Version 2021),2021.1.4,120.09040412947378,
Conditions/Version_2Pr/zeroback(1)_v2.xlsx,Rule: Press 'space' when you see the letter 'x' or 'X'.,i,None,,,,,0,0,0,0,0,4,4,4,,,,,,,,,,,,,,,,,,,,,,,,,,,,,,,,,,,,,,,,,,,1.665,136.4008791000233,None,138.0687149000005,None,None,1,,138.0687149000005,None,140.07470140000805,None,,,,,,,,,,,,,,,,,,,,,,,,,,,,,,,P038,FENCOG,2,Post,2022_May_03_1253,N-Back (New Version 2021),2021.1.4,120.09040412947378,
Conditions/Version_2Pr/zeroback(1)_v2.xlsx,Rule: Press 'space' when you see the letter 'x' or 'X'.,U,None,,,,,0,0,0,0,0,5,5,5,,,,,,,,,,,,,,,,,,,,,,,,,,,,,,,,,,,,,,,,,,,1.315,141.574442800018,None,142.89313320000656,None,None,1,,142.89313320000656,None,144.8984290000517,None,,,,,,,,,,,,,,,,,,,,,,,,,,,,,,,P038,FENCOG,2,Post,2022_May_03_1253,N-Back (New Version 2021),2021.1.4,120.09040412947378,
Conditions/Version_2Pr/zeroback(1)_v2.xlsx,Rule: Press 'space' when you see the letter 'x' or 'X'.,N,None,,,,,0,0,0,0,0,6,6,6,,,,,,,,,,,,,,,,,,,,,,,,,,,,,,,,,,,,,,,,,,,1.415,146.39795430004597,None,147.81833570002345,None,None,1,,147.81833570002345,None,149.82198860001517,None,,,,,,,,,,,,,,,,,,,,,,,,,,,,,,,P038,FENCOG,2,Post,2022_May_03_1253,N-Back (New Version 2021),2021.1.4,120.09040412947378,
Conditions/Version_2Pr/zeroback(1)_v2.xlsx,Rule: Press 'space' when you see the letter 'x' or 'X'.,m,None,,,,,0,0,0,0,0,7,7,7,,,,,,,,,,,,,,,,,,,,,,,,,,,,,,,,,,,,,,,,,,,1.59,151.32150220003678,None,152.91429420001805,None,None,1,,152.91429420001805,None,154.92036899999948,None,,,,,,,,,,,,,,,,,,,,,,,,,,,,,,,P038,FENCOG,2,Post,2022_May_03_1253,N-Back (New Version 2021),2021.1.4,120.09040412947378,
Conditions/Version_2Pr/zeroback(1)_v2.xlsx,Rule: Press 'space' when you see the letter 'x' or 'X'.,x,space,,,,,0,0,0,0,0,8,8,8,,,,,,,,,,,,,,,,,,,,,,,,,,,,,,,,,,,,,,,,,,,1.265,156.42007700004615,None,157.6882661000127,None,space,1,0.3575235999887809,157.6882661000127,None,158.05449080001563,None,,,,,,,,,,,,,,,,,,,,,,,,,,,,,,,P038,FENCOG,2,Post,2022_May_03_1253,N-Back (New Version 2021),2021.1.4,120.09040412947378,
Conditions/Version_2Pr/zeroback(1)_v2.xlsx,Rule: Press 'space' when you see the letter 'x' or 'X'.,X,space,,,,,0,0,0,0,0,9,9,9,,,,,,,,,,,,,,,,,,,,,,,,,,,,,,,,,,,,,,,,,,,1.765,159.56074159999844,None,161.33326600003056,None,space,1,0.36830839997855946,161.33326600003056,None,161.7104979000287,None,,,,,,,,,,,,,,,,,,,,,,,,,,,,,,,P038,FENCOG,2,Post,2022_May_03_1253,N-Back (New Version 2021),2021.1.4,120.09040412947378,
Conditions/Version_2Pr/zeroback(1)_v2.xlsx,Rule: Press 'space' when you see the letter 'x' or 'X'.,,,,,,,0,0,0,0,,,,,,,,,,,,,,,,,,,,,,,,,,,,,,,,,,,,,,,,,,,,,,,,,,,,,,,,,,,,,,,,,,,,,,,,,,,,,,,,,,,,,,,,,P038,FENCOG,2,Post,2022_May_03_1253,N-Back (New Version 2021),2021.1.4,120.09040412947378,
Conditions/Version_2Pr/oneback(1)_v2.xlsx,New rule: Press 'space' when you see 1-back (i.e. the same letter as the one that appeared 1 letter ago.),r,None,,,,,0,1,1,1,0,0,0,0,,,,,,,,,,,,,,,,,,,,,,,,,,,,,,,,,163.2338873000117,None,166.21856380003737,None,space,0.8350958999944851,166.21856380003737,None,163.2338873000117,None,1.315,167.0906355000334,None,168.40988310001558,None,None,1,,168.40988310001558,None,170.41216130001703,None,,,,,,,,,,,,,,,,,,,,,,,,,,,,,,,P038,FENCOG,2,Post,2022_May_03_1253,N-Back (New Version 2021),2021.1.4,120.09040412947378,
Conditions/Version_2Pr/oneback(1)_v2.xlsx,New rule: Press 'space' when you see 1-back (i.e. the same letter as the one that appeared 1 letter ago.),t,None,,,,,0,1,1,1,0,1,1,1,,,,,,,,,,,,,,,,,,,,,,,,,,,,,,,,,,,,,,,,,,,1.965,171.91548930003773,None,173.88430309999967,None,None,1,,173.88430309999967,None,175.8892690000357,None,,,,,,,,,,,,,,,,,,,,,,,,,,,,,,,P038,FENCOG,2,Post,2022_May_03_1253,N-Back (New Version 2021),2021.1.4,120.09040412947378,
Conditions/Version_2Pr/oneback(1)_v2.xlsx,New rule: Press 'space' when you see 1-back (i.e. the same letter as the one that appeared 1 letter ago.),Y,None,,,,,0,1,1,1,0,2,2,2,,,,,,,,,,,,,,,,,,,,,,,,,,,,,,,,,,,,,,,,,,,1.94,177.3888752000057,None,179.33149780001258,None,None,1,,179.33149780001258,None,181.33769900002517,None,,,,,,,,,,,,,,,,,,,,,,,,,,,,,,,P038,FENCOG,2,Post,2022_May_03_1253,N-Back (New Version 2021),2021.1.4,120.09040412947378,
Conditions/Version_2Pr/oneback(1)_v2.xlsx,New rule: Press 'space' when you see 1-back (i.e. the same letter as the one that appeared 1 letter ago.),y,space,,,,,0,1,1,1,0,3,3,3,,,,,,,,,,,,,,,,,,,,,,,,,,,,,,,,,,,,,,,,,,,1.64,182.83727610000642,None,184.4800975000253,None,space,1,0.4139308999874629,184.4800975000253,None,184.91320230002748,None,,,,,,,,,,,,,,,,,,,,,,,,,,,,,,,P038,FENCOG,2,Post,2022_May_03_1253,N-Back (New Version 2021),2021.1.4,120.09040412947378,
Conditions/Version_2Pr/oneback(1)_v2.xlsx,New rule: Press 'space' when you see 1-back (i.e. the same letter as the one that appeared 1 letter ago.),p,None,,,,,0,1,1,1,0,4,4,4,,,,,,,,,,,,,,,,,,,,,,,,,,,,,,,,,,,,,,,,,,,1.04,186.41948150005192,None,187.46189800003776,None,None,1,,187.46189800003776,None,189.46860580000794,None,,,,,,,,,,,,,,,,,,,,,,,,,,,,,,,P038,FENCOG,2,Post,2022_May_03_1253,N-Back (New Version 2021),2021.1.4,120.09040412947378,
Conditions/Version_2Pr/oneback(1)_v2.xlsx,New rule: Press 'space' when you see 1-back (i.e. the same letter as the one that appeared 1 letter ago.),P,space,,,,,0,1,1,1,0,5,5,5,,,,,,,,,,,,,,,,,,,,,,,,,,,,,,,,,,,,,,,,,,,1.065,190.96816980000585,None,192.03750960004982,None,space,1,0.7042663000174798,192.03750960004982,None,192.75271369999973,None,,,,,,,,,,,,,,,,,,,,,,,,,,,,,,,P038,FENCOG,2,Post,2022_May_03_1253,N-Back (New Version 2021),2021.1.4,120.09040412947378,
Conditions/Version_2Pr/oneback(1)_v2.xlsx,New rule: Press 'space' when you see 1-back (i.e. the same letter as the one that appeared 1 letter ago.),e,None,,,,,0,1,1,1,0,6,6,6,,,,,,,,,,,,,,,,,,,,,,,,,,,,,,,,,,,,,,,,,,,1.29,194.25883440003963,None,195.55220720003126,None,None,1,,195.55220720003126,None,197.55787670001155,None,,,,,,,,,,,,,,,,,,,,,,,,,,,,,,,P038,FENCOG,2,Post,2022_May_03_1253,N-Back (New Version 2021),2021.1.4,120.09040412947378,
Conditions/Version_2Pr/oneback(1)_v2.xlsx,New rule: Press 'space' when you see 1-back (i.e. the same letter as the one that appeared 1 letter ago.),r,None,,,,,0,1,1,1,0,7,7,7,,,,,,,,,,,,,,,,,,,,,,,,,,,,,,,,,,,,,,,,,,,1.69,199.05739230004838,None,200.75011990003986,None,None,1,,200.75011990003986,None,202.75638440001057,None,,,,,,,,,,,,,,,,,,,,,,,,,,,,,,,P038,FENCOG,2,Post,2022_May_03_1253,N-Back (New Version 2021),2021.1.4,120.09040412947378,
Conditions/Version_2Pr/oneback(1)_v2.xlsx,New rule: Press 'space' when you see 1-back (i.e. the same letter as the one that appeared 1 letter ago.),R,space,,,,,0,1,1,1,0,8,8,8,,,,,,,,,,,,,,,,,,,,,,,,,,,,,,,,,,,,,,,,,,,1.115,204.2559119000216,None,205.3732456000289,None,space,1,0.4004760999814607,205.3732456000289,None,205.7903608000488,None,,,,,,,,,,,,,,,,,,,,,,,,,,,,,,,P038,FENCOG,2,Post,2022_May_03_1253,N-Back (New Version 2021),2021.1.4,120.09040412947378,
Conditions/Version_2Pr/oneback(1)_v2.xlsx,New rule: Press 'space' when you see 1-back (i.e. the same letter as the one that appeared 1 letter ago.),p,None,,,,,0,1,1,1,0,9,9,9,,,,,,,,,,,,,,,,,,,,,,,,,,,,,,,,,,,,,,,,,,,1.99,207.2966688000015,None,209.28901400003815,None,None,1,,209.28901400003815,None,211.29546720004873,None,,,,,,,,,,,,,,,,,,,,,,,,,,,,,,,P038,FENCOG,2,Post,2022_May_03_1253,N-Back (New Version 2021),2021.1.4,120.09040412947378,
Conditions/Version_2Pr/oneback(1)_v2.xlsx,New rule: Press 'space' when you see 1-back (i.e. the same letter as the one that appeared 1 letter ago.),,,,,,,0,1,1,1,,,,,,,,,,,,,,,,,,,,,,,,,,,,,,,,,,,,,,,,,,,,,,,,,,,,,,,,,,,,,,,,,,,,,,,,,,,,,,,,,,,,,,,,,P038,FENCOG,2,Post,2022_May_03_1253,N-Back (New Version 2021),2021.1.4,120.09040412947378,
Conditions/Version_2Pr/twoback(1)_v2.xlsx,New rule: Press 'space' when you see 2-back (i.e. the same letter as the one that appeared 2 letters ago.),r,None,,,,,0,2,2,2,0,0,0,0,,,,,,,,,,,,,,,,,,,,,,,,,,,,,,,,,212.82386570004746,None,215.80503879999742,None,space,3.1524313000263646,215.80503879999742,None,212.82386570004746,None,1.515,218.9860557000502,None,220.50180710002314,None,None,1,,220.50180710002314,None,222.50893750000978,None,,,,,,,,,,,,,,,,,,,,,,,,,,,,,,,P038,FENCOG,2,Post,2022_May_03_1253,N-Back (New Version 2021),2021.1.4,120.09040412947378,
Conditions/Version_2Pr/twoback(1)_v2.xlsx,New rule: Press 'space' when you see 2-back (i.e. the same letter as the one that appeared 2 letters ago.),P,None,,,,,0,2,2,2,0,1,1,1,,,,,,,,,,,,,,,,,,,,,,,,,,,,,,,,,,,,,,,,,,,1.165,224.00826950004557,None,225.17559970001457,None,None,1,,225.17559970001457,None,227.18213440000545,None,,,,,,,,,,,,,,,,,,,,,,,,,,,,,,,P038,FENCOG,2,Post,2022_May_03_1253,N-Back (New Version 2021),2021.1.4,120.09040412947378,
Conditions/Version_2Pr/twoback(1)_v2.xlsx,New rule: Press 'space' when you see 2-back (i.e. the same letter as the one that appeared 2 letters ago.),o,None,,,,,0,2,2,2,0,2,2,2,,,,,,,,,,,,,,,,,,,,,,,,,,,,,,,,,,,,,,,,,,,2.015,228.68199410004308,None,230.7034800000256,None,None,1,,230.7034800000256,None,232.70566070004134,None,,,,,,,,,,,,,,,,,,,,,,,,,,,,,,,P038,FENCOG,2,Post,2022_May_03_1253,N-Back (New Version 2021),2021.1.4,120.09040412947378,
Conditions/Version_2Pr/twoback(1)_v2.xlsx,New rule: Press 'space' when you see 2-back (i.e. the same letter as the one that appeared 2 letters ago.),p,space,,,,,0,2,2,2,0,3,3,3,,,,,,,,,,,,,,,,,,,,,,,,,,,,,,,,,,,,,,,,,,,1.84,234.20536910003284,None,236.0483813000028,None,space,1,0.3813954000361264,236.0483813000028,None,236.43981110001914,None,,,,,,,,,,,,,,,,,,,,,,,,,,,,,,,P038,FENCOG,2,Post,2022_May_03_1253,N-Back (New Version 2021),2021.1.4,120.09040412947378,
Conditions/Version_2Pr/twoback(1)_v2.xlsx,New rule: Press 'space' when you see 2-back (i.e. the same letter as the one that appeared 2 letters ago.),Y,None,,,,,0,2,2,2,0,4,4,4,,,,,,,,,,,,,,,,,,,,,,,,,,,,,,,,,,,,,,,,,,,1.365,237.94593899999745,None,239.31362100003753,None,None,1,,239.31362100003753,None,241.31995070003904,None,,,,,,,,,,,,,,,,,,,,,,,,,,,,,,,P038,FENCOG,2,Post,2022_May_03_1253,N-Back (New Version 2021),2021.1.4,120.09040412947378,
Conditions/Version_2Pr/twoback(1)_v2.xlsx,New rule: Press 'space' when you see 2-back (i.e. the same letter as the one that appeared 2 letters ago.),q,None,,,,,0,2,2,2,0,5,5,5,,,,,,,,,,,,,,,,,,,,,,,,,,,,,,,,,,,,,,,,,,,1.24,242.8191904000123,None,244.06367130001308,None,None,1,,244.06367130001308,None,246.06851110002026,None,,,,,,,,,,,,,,,,,,,,,,,,,,,,,,,P038,FENCOG,2,Post,2022_May_03_1253,N-Back (New Version 2021),2021.1.4,120.09040412947378,
Conditions/Version_2Pr/twoback(1)_v2.xlsx,New rule: Press 'space' when you see 2-back (i.e. the same letter as the one that appeared 2 letters ago.),m,None,,,,,0,2,2,2,0,6,6,6,,,,,,,,,,,,,,,,,,,,,,,,,,,,,,,,,,,,,,,,,,,1.79,247.56805450003594,None,249.359041800024,None,None,1,,249.359041800024,None,251.35861300001852,None,,,,,,,,,,,,,,,,,,,,,,,,,,,,,,,P038,FENCOG,2,Post,2022_May_03_1253,N-Back (New Version 2021),2021.1.4,120.09040412947378,
Conditions/Version_2Pr/twoback(1)_v2.xlsx,New rule: Press 'space' when you see 2-back (i.e. the same letter as the one that appeared 2 letters ago.),Q,space,,,,,0,2,2,2,0,7,7,7,,,,,,,,,,,,,,,,,,,,,,,,,,,,,,,,,,,,,,,,,,,1.54,252.8581510000513,None,254.40220140002202,None,space,1,0.7077959000016563,254.40220140002202,None,255.12425320001785,None,,,,,,,,,,,,,,,,,,,,,,,,,,,,,,,P038,FENCOG,2,Post,2022_May_03_1253,N-Back (New Version 2021),2021.1.4,120.09040412947378,
Conditions/Version_2Pr/twoback(1)_v2.xlsx,New rule: Press 'space' when you see 2-back (i.e. the same letter as the one that appeared 2 letters ago.),L,None,,,,,0,2,2,2,0,8,8,8,,,,,,,,,,,,,,,,,,,,,,,,,,,,,,,,,,,,,,,,,,,1.29,256.6237294000457,None,257.91902940004366,None,None,1,,257.91902940004366,None,259.9228514000424,None,,,,,,,,,,,,,,,,,,,,,,,,,,,,,,,P038,FENCOG,2,Post,2022_May_03_1253,N-Back (New Version 2021),2021.1.4,120.09040412947378,
Conditions/Version_2Pr/twoback(1)_v2.xlsx,New rule: Press 'space' when you see 2-back (i.e. the same letter as the one that appeared 2 letters ago.),q,space,,,,,0,2,2,2,0,9,9,9,,,,,,,,,,,,,,,,,,,,,,,,,,,,,,,,,,,,,,,,,,,1.99,261.4224046000163,None,263.41440000000875,None,space,1,0.8074367000372149,263.41440000000875,None,264.2306680000038,None,,,,,,,,,,,,,,,,,,,,,,,,,,,,,,,P038,FENCOG,2,Post,2022_May_03_1253,N-Back (New Version 2021),2021.1.4,120.09040412947378,
Conditions/Version_2Pr/twoback(1)_v2.xlsx,New rule: Press 'space' when you see 2-back (i.e. the same letter as the one that appeared 2 letters ago.),,,,,,,0,2,2,2,,,,,,,,,,,,,,,,,,,,,,,,,,,,,,,,,,,,,,,,,,,,,,,,,,,,,,,,,,,,,,,,,,,,,,,,,,,,,,,,,,,,,,,,,P038,FENCOG,2,Post,2022_May_03_1253,N-Back (New Version 2021),2021.1.4,120.09040412947378,
Conditions/Version_2Pr/threeback(1)_v2.xlsx,New rule: Press 'space' when you see 3-back (i.e. the same letter as the one that appeared 3 letters ago.),u,None,,,,,0,3,3,3,0,0,0,0,,,,,,,,,,,,,,,,,,,,,,,,,,,,,,,,,265.7572619999992,None,268.74530140002025,None,space,0.4522031999658793,268.74530140002025,None,265.7572619999992,None,1.165,269.2279733000323,None,270.3985092000221,None,None,1,,270.3985092000221,None,272.4024237000267,None,,,,,,,,,,,,,,,,,,,,,,,,,,,,,,,P038,FENCOG,2,Post,2022_May_03_1253,N-Back (New Version 2021),2021.1.4,120.09040412947378,
Conditions/Version_2Pr/threeback(1)_v2.xlsx,New rule: Press 'space' when you see 3-back (i.e. the same letter as the one that appeared 3 letters ago.),U,None,,,,,0,3,3,3,0,1,1,1,,,,,,,,,,,,,,,,,,,,,,,,,,,,,,,,,,,,,,,,,,,1.415,273.9019810000318,None,275.31900030002,None,None,1,,275.31900030002,None,277.3259915999952,None,,,,,,,,,,,,,,,,,,,,,,,,,,,,,,,P038,FENCOG,2,Post,2022_May_03_1253,N-Back (New Version 2021),2021.1.4,120.09040412947378,
Conditions/Version_2Pr/threeback(1)_v2.xlsx,New rule: Press 'space' when you see 3-back (i.e. the same letter as the one that appeared 3 letters ago.),p,None,,,,,0,3,3,3,0,2,2,2,,,,,,,,,,,,,,,,,,,,,,,,,,,,,,,,,,,,,,,,,,,1.49,278.8255282000173,None,280.31769720005104,None,None,1,,280.31769720005104,None,282.32420279999496,None,,,,,,,,,,,,,,,,,,,,,,,,,,,,,,,P038,FENCOG,2,Post,2022_May_03_1253,N-Back (New Version 2021),2021.1.4,120.09040412947378,
Conditions/Version_2Pr/threeback(1)_v2.xlsx,New rule: Press 'space' when you see 3-back (i.e. the same letter as the one that appeared 3 letters ago.),U,space,,,,,0,3,3,3,0,3,3,3,,,,,,,,,,,,,,,,,,,,,,,,,,,,,,,,,,,,,,,,,,,1.24,283.8240302000195,None,285.06893440004205,None,space,1,0.520685900002718,285.06893440004205,None,285.60009200003697,None,,,,,,,,,,,,,,,,,,,,,,,,,,,,,,,P038,FENCOG,2,Post,2022_May_03_1253,N-Back (New Version 2021),2021.1.4,120.09040412947378,
Conditions/Version_2Pr/threeback(1)_v2.xlsx,New rule: Press 'space' when you see 3-back (i.e. the same letter as the one that appeared 3 letters ago.),e,None,,,,,0,3,3,3,0,4,4,4,,,,,,,,,,,,,,,,,,,,,,,,,,,,,,,,,,,,,,,,,,,1.29,287.10659300000407,None,288.3985881000408,None,None,1,,288.3985881000408,None,290.40540440002223,None,,,,,,,,,,,,,,,,,,,,,,,,,,,,,,,P038,FENCOG,2,Post,2022_May_03_1253,N-Back (New Version 2021),2021.1.4,120.09040412947378,
Conditions/Version_2Pr/threeback(1)_v2.xlsx,New rule: Press 'space' when you see 3-back (i.e. the same letter as the one that appeared 3 letters ago.),R,None,,,,,0,3,3,3,0,5,5,5,,,,,,,,,,,,,,,,,,,,,,,,,,,,,,,,,,,,,,,,,,,1.59,291.90498550003394,None,293.4977405000245,None,None,1,,293.4977405000245,None,295.5039109000354,None,,,,,,,,,,,,,,,,,,,,,,,,,,,,,,,P038,FENCOG,2,Post,2022_May_03_1253,N-Back (New Version 2021),2021.1.4,120.09040412947378,
Conditions/Version_2Pr/threeback(1)_v2.xlsx,New rule: Press 'space' when you see 3-back (i.e. the same letter as the one that appeared 3 letters ago.),p,None,,,,,0,3,3,3,0,6,6,6,,,,,,,,,,,,,,,,,,,,,,,,,,,,,,,,,,,,,,,,,,,1.64,297.0034718000097,None,298.6449291000026,None,None,1,,298.6449291000026,None,300.6447690000059,None,,,,,,,,,,,,,,,,,,,,,,,,,,,,,,,P038,FENCOG,2,Post,2022_May_03_1253,N-Back (New Version 2021),2021.1.4,120.09040412947378,
Conditions/Version_2Pr/threeback(1)_v2.xlsx,New rule: Press 'space' when you see 3-back (i.e. the same letter as the one that appeared 3 letters ago.),E,space,,,,,0,3,3,3,0,7,7,7,,,,,,,,,,,,,,,,,,,,,,,,,,,,,,,,,,,,,,,,,,,1.665,302.1519732000306,None,303.81955720001133,None,space,1,0.47463169996626675,303.81955720001133,None,304.3022324000485,None,,,,,,,,,,,,,,,,,,,,,,,,,,,,,,,P038,FENCOG,2,Post,2022_May_03_1253,N-Back (New Version 2021),2021.1.4,120.09040412947378,
Conditions/Version_2Pr/threeback(1)_v2.xlsx,New rule: Press 'space' when you see 3-back (i.e. the same letter as the one that appeared 3 letters ago.),k,None,,,,,0,3,3,3,0,8,8,8,,,,,,,,,,,,,,,,,,,,,,,,,,,,,,,,,,,,,,,,,,,1.99,305.8103511000518,None,307.8019592000055,None,None,1,,307.8019592000055,None,309.80786709999666,None,,,,,,,,,,,,,,,,,,,,,,,,,,,,,,,P038,FENCOG,2,Post,2022_May_03_1253,N-Back (New Version 2021),2021.1.4,120.09040412947378,
Conditions/Version_2Pr/threeback(1)_v2.xlsx,New rule: Press 'space' when you see 3-back (i.e. the same letter as the one that appeared 3 letters ago.),m,None,,,,,0,3,3,3,0,9,9,9,,,,,,,,,,,,,,,,,,,,,,,,,,,,,,,,,,,,,,,,,,,1.265,311.30753210000694,None,312.57455760001903,None,None,1,,312.57455760001903,None,314.5816527000279,None,,,,,,,,,,,,,,,,,,,,,,,,,,,,,,,P038,FENCOG,2,Post,2022_May_03_1253,N-Back (New Version 2021),2021.1.4,120.09040412947378,
Conditions/Version_2Pr/threeback(1)_v2.xlsx,New rule: Press 'space' when you see 3-back (i.e. the same letter as the one that appeared 3 letters ago.),,,,,,,0,3,3,3,,,,,,,,,,,,,,,,,,,,,,,,,,,,,,,,,,,,,,,,,,,,,,,,,,,,,,,,,,,,,,,,,,,,,,,,,,,,,,,,,,,,,,,,,P038,FENCOG,2,Post,2022_May_03_1253,N-Back (New Version 2021),2021.1.4,120.09040412947378,
,,,,,,,,,,,,,,,,,,,,,,,,,,,,,,,,,,,,,,,,,,,,,,,,,,,,,,,,,,,,,,,,,,,,,,316.0884958000388,None,space,0.9523461000062525,316.5813562000403,None,,,,,,,,,,,,,,,,,,,,,,,,,P038,FENCOG,2,Post,2022_May_03_1253,N-Back (New Version 2021),2021.1.4,120.09040412947378,
,,,,,,,,,,,,,,,,,,,,,,,,,,,,,,,,,,,,,,,,,,,,,,,,,,,,,,,,,,,,,,,,,,,,,,,,,,,,317.56316250003874,None,space,1.8215822000056505,318.056049900013,None,,,,,,,,,,,,,,,,,,,P038,FENCOG,2,Post,2022_May_03_1253,N-Back (New Version 2021),2021.1.4,120.09040412947378,
,,,,Conditions/Version_1/zeroback(1)_v1.xlsx,Rule: Press 'space' when you see the letter 'x' or 'X'.,b,None,,,,,,,,,0,0,0,0,0,0,0,0,,,,,,,,,,,,,,,,,,,,,,,,,,,,,,,,,,,,,,,,,,,,,,,,,,,,,,,,,,,320.00085680000484,None,322.98922940000193,None,space,0.4403467000229284,322.98922940000193,None,320.00085680000484,None,1.5618,325.0231866000104,None,None,1,325.0231866000104,None,,P038,FENCOG,2,Post,2022_May_03_1253,N-Back (New Version 2021),2021.1.4,120.09040412947378,
,,,,Conditions/Version_1/zeroback(1)_v1.xlsx,Rule: Press 'space' when you see the letter 'x' or 'X'.,T,None,,,,,,,,,0,0,0,0,0,1,1,1,,,,,,,,,,,,,,,,,,,,,,,,,,,,,,,,,,,,,,,,,,,,,,,,,,,,,,,,,,,,,,,,,,,,,1.413,328.44707220001146,None,None,1,328.44707220001146,None,,P038,FENCOG,2,Post,2022_May_03_1253,N-Back (New Version 2021),2021.1.4,120.09040412947378,
,,,,Conditions/Version_1/zeroback(1)_v1.xlsx,Rule: Press 'space' when you see the letter 'x' or 'X'.,L,None,,,,,,,,,0,0,0,0,0,2,2,2,,,,,,,,,,,,,,,,,,,,,,,,,,,,,,,,,,,,,,,,,,,,,,,,,,,,,,,,,,,,,,,,,,,,,1.5928,332.05127480003284,None,None,1,332.05127480003284,None,,P038,FENCOG,2,Post,2022_May_03_1253,N-Back (New Version 2021),2021.1.4,120.09040412947378,
,,,,Conditions/Version_1/zeroback(1)_v1.xlsx,Rule: Press 'space' when you see the letter 'x' or 'X'.,x,space,,,,,,,,,0,0,0,0,0,3,3,3,,,,,,,,,,,,,,,,,,,,,,,,,,,,,,,,,,,,,,,,,,,,,,,,,,,,,,,,,,,,,,,,,,,,,1.4564,335.5093987000291,None,space,1,335.5093987000291,None,0.4003056000219658,P038,FENCOG,2,Post,2022_May_03_1253,N-Back (New Version 2021),2021.1.4,120.09040412947378,
,,,,Conditions/Version_1/zeroback(1)_v1.xlsx,Rule: Press 'space' when you see the letter 'x' or 'X'.,o,None,,,,,,,,,0,0,0,0,0,4,4,4,,,,,,,,,,,,,,,,,,,,,,,,,,,,,,,,,,,,,,,,,,,,,,,,,,,,,,,,,,,,,,,,,,,,,1.6052,339.12410290003754,None,None,1,339.12410290003754,None,,P038,FENCOG,2,Post,2022_May_03_1253,N-Back (New Version 2021),2021.1.4,120.09040412947378,
,,,,Conditions/Version_1/zeroback(1)_v1.xlsx,Rule: Press 'space' when you see the letter 'x' or 'X'.,P,None,,,,,,,,,0,0,0,0,0,5,5,5,,,,,,,,,,,,,,,,,,,,,,,,,,,,,,,,,,,,,,,,,,,,,,,,,,,,,,,,,,,,,,,,,,,,,1.9338,343.064653700043,None,None,1,343.064653700043,None,,P038,FENCOG,2,Post,2022_May_03_1253,N-Back (New Version 2021),2021.1.4,120.09040412947378,
,,,,Conditions/Version_1/zeroback(1)_v1.xlsx,Rule: Press 'space' when you see the letter 'x' or 'X'.,X,space,,,,,,,,,0,0,0,0,0,6,6,6,,,,,,,,,,,,,,,,,,,,,,,,,,,,,,,,,,,,,,,,,,,,,,,,,,,,,,,,,,,,,,,,,,,,,1.9648,347.0301266000024,None,space,1,347.0301266000024,None,0.38341579999541864,P038,FENCOG,2,Post,2022_May_03_1253,N-Back (New Version 2021),2021.1.4,120.09040412947378,
,,,,Conditions/Version_1/zeroback(1)_v1.xlsx,Rule: Press 'space' when you see the letter 'x' or 'X'.,n,None,,,,,,,,,0,0,0,0,0,7,7,7,,,,,,,,,,,,,,,,,,,,,,,,,,,,,,,,,,,,,,,,,,,,,,,,,,,,,,,,,,,,,,,,,,,,,1.2518,350.2877140000346,None,None,1,350.2877140000346,None,,P038,FENCOG,2,Post,2022_May_03_1253,N-Back (New Version 2021),2021.1.4,120.09040412947378,
,,,,Conditions/Version_1/zeroback(1)_v1.xlsx,Rule: Press 'space' when you see the letter 'x' or 'X'.,M,None,,,,,,,,,0,0,0,0,0,8,8,8,,,,,,,,,,,,,,,,,,,,,,,,,,,,,,,,,,,,,,,,,,,,,,,,,,,,,,,,,,,,,,,,,,,,,1.1712,353.46424570004456,None,None,1,353.46424570004456,None,,P038,FENCOG,2,Post,2022_May_03_1253,N-Back (New Version 2021),2021.1.4,120.09040412947378,
,,,,Conditions/Version_1/zeroback(1)_v1.xlsx,Rule: Press 'space' when you see the letter 'x' or 'X'.,a,None,,,,,,,,,0,0,0,0,0,9,9,9,,,,,,,,,,,,,,,,,,,,,,,,,,,,,,,,,,,,,,,,,,,,,,,,,,,,,,,,,,,,,,,,,,,,,1.2146,356.687575100048,None,None,1,356.687575100048,None,,P038,FENCOG,2,Post,2022_May_03_1253,N-Back (New Version 2021),2021.1.4,120.09040412947378,
,,,,Conditions/Version_1/zeroback(1)_v1.xlsx,Rule: Press 'space' when you see the letter 'x' or 'X'.,,,,,,,,,,,0,0,0,0,,,,,,,,,,,,,,,,,,,,,,,,,,,,,,,,,,,,,,,,,,,,,,,,,,,,,,,,,,,,,,,,,,,,,,,,,,,,,,,,,P038,FENCOG,2,Post,2022_May_03_1253,N-Back (New Version 2021),2021.1.4,120.09040412947378,
,,,,Conditions/Version_1/oneback(1)_v1.xlsx,New rule: Press 'space' when you see 1-back (i.e. the same letter as the one that appeared 1 letter ago.),b,None,,,,,,,,,0,1,1,1,0,0,0,0,,,,,,,,,,,,,,,,,,,,,,,,,,,,,,,,,,,,,,,,,,,,,,,,,,,,,,,,,,,358.7171614000108,None,361.7024919000105,None,space,33.158853099972475,361.7024919000105,None,358.7171614000108,None,1.2084,396.10926420002943,None,None,1,396.10926420002943,None,,P038,FENCOG,2,Post,2022_May_03_1253,N-Back (New Version 2021),2021.1.4,120.09040412947378,
,,,,Conditions/Version_1/oneback(1)_v1.xlsx,New rule: Press 'space' when you see 1-back (i.e. the same letter as the one that appeared 1 letter ago.),p,None,,,,,,,,,0,1,1,1,0,1,1,1,,,,,,,,,,,,,,,,,,,,,,,,,,,,,,,,,,,,,,,,,,,,,,,,,,,,,,,,,,,,,,,,,,,,,1.3138,399.4313328000135,None,None,1,399.4313328000135,None,,P038,FENCOG,2,Post,2022_May_03_1253,N-Back (New Version 2021),2021.1.4,120.09040412947378,
,,,,Conditions/Version_1/oneback(1)_v1.xlsx,New rule: Press 'space' when you see 1-back (i.e. the same letter as the one that appeared 1 letter ago.),M,None,,,,,,,,,0,1,1,1,0,2,2,2,,,,,,,,,,,,,,,,,,,,,,,,,,,,,,,,,,,,,,,,,,,,,,,,,,,,,,,,,,,,,,,,,,,,,1.9586,403.3915487000486,None,None,1,403.3915487000486,None,,P038,FENCOG,2,Post,2022_May_03_1253,N-Back (New Version 2021),2021.1.4,120.09040412947378,
,,,,Conditions/Version_1/oneback(1)_v1.xlsx,New rule: Press 'space' when you see 1-back (i.e. the same letter as the one that appeared 1 letter ago.),M,space,,,,,,,,,0,1,1,1,0,3,3,3,,,,,,,,,,,,,,,,,,,,,,,,,,,,,,,,,,,,,,,,,,,,,,,,,,,,,,,,,,,,,,,,,,,,,1.7044,407.10433080000803,None,space,1,407.10433080000803,None,0.5012064999900758,P038,FENCOG,2,Post,2022_May_03_1253,N-Back (New Version 2021),2021.1.4,120.09040412947378,
,,,,Conditions/Version_1/oneback(1)_v1.xlsx,New rule: Press 'space' when you see 1-back (i.e. the same letter as the one that appeared 1 letter ago.),n,None,,,,,,,,,0,1,1,1,0,4,4,4,,,,,,,,,,,,,,,,,,,,,,,,,,,,,,,,,,,,,,,,,,,,,,,,,,,,,,,,,,,,,,,,,,,,,1.3634,410.471901300014,None,None,1,410.471901300014,None,,P038,FENCOG,2,Post,2022_May_03_1253,N-Back (New Version 2021),2021.1.4,120.09040412947378,
,,,,Conditions/Version_1/oneback(1)_v1.xlsx,New rule: Press 'space' when you see 1-back (i.e. the same letter as the one that appeared 1 letter ago.),g,None,,,,,,,,,0,1,1,1,0,5,5,5,,,,,,,,,,,,,,,,,,,,,,,,,,,,,,,,,,,,,,,,,,,,,,,,,,,,,,,,,,,,,,,,,,,,,1.2146,413.6956290000235,None,None,1,413.6956290000235,None,,P038,FENCOG,2,Post,2022_May_03_1253,N-Back (New Version 2021),2021.1.4,120.09040412947378,
,,,,Conditions/Version_1/oneback(1)_v1.xlsx,New rule: Press 'space' when you see 1-back (i.e. the same letter as the one that appeared 1 letter ago.),P,None,,,,,,,,,0,1,1,1,0,6,6,6,,,,,,,,,,,,,,,,,,,,,,,,,,,,,,,,,,,,,,,,,,,,,,,,,,,,,,,,,,,,,,,,,,,,,1.5804,417.2864910000353,None,None,1,417.2864910000353,None,,P038,FENCOG,2,Post,2022_May_03_1253,N-Back (New Version 2021),2021.1.4,120.09040412947378,
,,,,Conditions/Version_1/oneback(1)_v1.xlsx,New rule: Press 'space' when you see 1-back (i.e. the same letter as the one that appeared 1 letter ago.),o,None,,,,,,,,,0,1,1,1,0,7,7,7,,,,,,,,,,,,,,,,,,,,,,,,,,,,,,,,,,,,,,,,,,,,,,,,,,,,,,,,,,,,,,,,,,,,,1.9834,421.2754665000248,None,None,1,421.2754665000248,None,,P038,FENCOG,2,Post,2022_May_03_1253,N-Back (New Version 2021),2021.1.4,120.09040412947378,
,,,,Conditions/Version_1/oneback(1)_v1.xlsx,New rule: Press 'space' when you see 1-back (i.e. the same letter as the one that appeared 1 letter ago.),f,None,,,,,,,,,0,1,1,1,0,8,8,8,,,,,,,,,,,,,,,,,,,,,,,,,,,,,,,,,,,,,,,,,,,,,,,,,,,,,,,,,,,,,,,,,,,,,1.4812,424.76528460002737,None,None,1,424.76528460002737,None,,P038,FENCOG,2,Post,2022_May_03_1253,N-Back (New Version 2021),2021.1.4,120.09040412947378,
,,,,Conditions/Version_1/oneback(1)_v1.xlsx,New rule: Press 'space' when you see 1-back (i.e. the same letter as the one that appeared 1 letter ago.),F,space,,,,,,,,,0,1,1,1,0,9,9,9,,,,,,,,,,,,,,,,,,,,,,,,,,,,,,,,,,,,,,,,,,,,,,,,,,,,,,,,,,,,,,,,,,,,,1.94,428.70667949999915,None,space,1,428.70667949999915,None,0.7786728999926709,P038,FENCOG,2,Post,2022_May_03_1253,N-Back (New Version 2021),2021.1.4,120.09040412947378,
,,,,Conditions/Version_1/oneback(1)_v1.xlsx,New rule: Press 'space' when you see 1-back (i.e. the same letter as the one that appeared 1 letter ago.),,,,,,,,,,,0,1,1,1,,,,,,,,,,,,,,,,,,,,,,,,,,,,,,,,,,,,,,,,,,,,,,,,,,,,,,,,,,,,,,,,,,,,,,,,,,,,,,,,,P038,FENCOG,2,Post,2022_May_03_1253,N-Back (New Version 2021),2021.1.4,120.09040412947378,
,,,,Conditions/Version_1/twoback(1)_v1.xlsx,New rule: Press 'space' when you see 2-back (i.e. the same letter as the one that appeared 2 letters ago.),b,None,,,,,,,,,0,2,2,2,0,0,0,0,,,,,,,,,,,,,,,,,,,,,,,,,,,,,,,,,,,,,,,,,,,,,,,,,,,,,,,,,,,430.7367269000388,None,433.7235233000247,None,space,1.0660080999950878,433.7235233000247,None,430.7367269000388,None,1.2766,436.0955411000177,None,None,1,436.0955411000177,None,,P038,FENCOG,2,Post,2022_May_03_1253,N-Back (New Version 2021),2021.1.4,120.09040412947378,
,,,,Conditions/Version_1/twoback(1)_v1.xlsx,New rule: Press 'space' when you see 2-back (i.e. the same letter as the one that appeared 2 letters ago.),h,None,,,,,,,,,0,2,2,2,0,1,1,1,,,,,,,,,,,,,,,,,,,,,,,,,,,,,,,,,,,,,,,,,,,,,,,,,,,,,,,,,,,,,,,,,,,,,1.8718,439.9715067000361,None,None,1,439.9715067000361,None,,P038,FENCOG,2,Post,2022_May_03_1253,N-Back (New Version 2021),2021.1.4,120.09040412947378,
,,,,Conditions/Version_1/twoback(1)_v1.xlsx,New rule: Press 'space' when you see 2-back (i.e. the same letter as the one that appeared 2 letters ago.),j,None,,,,,,,,,0,2,2,2,0,2,2,2,,,,,,,,,,,,,,,,,,,,,,,,,,,,,,,,,,,,,,,,,,,,,,,,,,,,,,,,,,,,,,,,,,,,,1.8842,443.8703649000381,None,None,1,443.8703649000381,None,,P038,FENCOG,2,Post,2022_May_03_1253,N-Back (New Version 2021),2021.1.4,120.09040412947378,
,,,,Conditions/Version_1/twoback(1)_v1.xlsx,New rule: Press 'space' when you see 2-back (i.e. the same letter as the one that appeared 2 letters ago.),H,space,,,,,,,,,0,2,2,2,0,3,3,3,,,,,,,,,,,,,,,,,,,,,,,,,,,,,,,,,,,,,,,,,,,,,,,,,,,,,,,,,,,,,,,,,,,,,1.413,447.29364520002855,None,space,1,447.29364520002855,None,0.5276597999618389,P038,FENCOG,2,Post,2022_May_03_1253,N-Back (New Version 2021),2021.1.4,120.09040412947378,
,,,,Conditions/Version_1/twoback(1)_v1.xlsx,New rule: Press 'space' when you see 2-back (i.e. the same letter as the one that appeared 2 letters ago.),p,None,,,,,,,,,0,2,2,2,0,4,4,4,,,,,,,,,,,,,,,,,,,,,,,,,,,,,,,,,,,,,,,,,,,,,,,,,,,,,,,,,,,,,,,,,,,,,1.3882,450.6912078000023,None,None,1,450.6912078000023,None,,P038,FENCOG,2,Post,2022_May_03_1253,N-Back (New Version 2021),2021.1.4,120.09040412947378,
,,,,Conditions/Version_1/twoback(1)_v1.xlsx,New rule: Press 'space' when you see 2-back (i.e. the same letter as the one that appeared 2 letters ago.),p,None,,,,,,,,,0,2,2,2,0,5,5,5,,,,,,,,,,,,,,,,,,,,,,,,,,,,,,,,,,,,,,,,,,,,,,,,,,,,,,,,,,,,,,,,,,,,,1.94,454.63165900000604,None,space,0,454.63165900000604,None,0.7896753000095487,P038,FENCOG,2,Post,2022_May_03_1253,N-Back (New Version 2021),2021.1.4,120.09040412947378,
,,,,Conditions/Version_1/twoback(1)_v1.xlsx,New rule: Press 'space' when you see 2-back (i.e. the same letter as the one that appeared 2 letters ago.),w,None,,,,,,,,,0,2,2,2,0,6,6,6,,,,,,,,,,,,,,,,,,,,,,,,,,,,,,,,,,,,,,,,,,,,,,,,,,,,,,,,,,,,,,,,,,,,,1.444,458.0823687000084,None,None,1,458.0823687000084,None,,P038,FENCOG,2,Post,2022_May_03_1253,N-Back (New Version 2021),2021.1.4,120.09040412947378,
,,,,Conditions/Version_1/twoback(1)_v1.xlsx,New rule: Press 'space' when you see 2-back (i.e. the same letter as the one that appeared 2 letters ago.),R,None,,,,,,,,,0,2,2,2,0,7,7,7,,,,,,,,,,,,,,,,,,,,,,,,,,,,,,,,,,,,,,,,,,,,,,,,,,,,,,,,,,,,,,,,,,,,,1.0472,461.1393890000181,None,None,1,461.1393890000181,None,,P038,FENCOG,2,Post,2022_May_03_1253,N-Back (New Version 2021),2021.1.4,120.09040412947378,
,,,,Conditions/Version_1/twoback(1)_v1.xlsx,New rule: Press 'space' when you see 2-back (i.e. the same letter as the one that appeared 2 letters ago.),a,None,,,,,,,,,0,2,2,2,0,8,8,8,,,,,,,,,,,,,,,,,,,,,,,,,,,,,,,,,,,,,,,,,,,,,,,,,,,,,,,,,,,,,,,,,,,,,1.9524,465.1045195000479,None,None,1,465.1045195000479,None,,P038,FENCOG,2,Post,2022_May_03_1253,N-Back (New Version 2021),2021.1.4,120.09040412947378,
,,,,Conditions/Version_1/twoback(1)_v1.xlsx,New rule: Press 'space' when you see 2-back (i.e. the same letter as the one that appeared 2 letters ago.),r,space,,,,,,,,,0,2,2,2,0,9,9,9,,,,,,,,,,,,,,,,,,,,,,,,,,,,,,,,,,,,,,,,,,,,,,,,,,,,,,,,,,,,,,,,,,,,,1.7168,468.83579149999423,None,space,1,468.83579149999423,None,0.4255305000115186,P038,FENCOG,2,Post,2022_May_03_1253,N-Back (New Version 2021),2021.1.4,120.09040412947378,
,,,,Conditions/Version_1/twoback(1)_v1.xlsx,New rule: Press 'space' when you see 2-back (i.e. the same letter as the one that appeared 2 letters ago.),,,,,,,,,,,0,2,2,2,,,,,,,,,,,,,,,,,,,,,,,,,,,,,,,,,,,,,,,,,,,,,,,,,,,,,,,,,,,,,,,,,,,,,,,,,,,,,,,,,P038,FENCOG,2,Post,2022_May_03_1253,N-Back (New Version 2021),2021.1.4,120.09040412947378,
,,,,Conditions/Version_1/threeback(1)_v1.xlsx,New rule: Press 'space' when you see 3-back (i.e. the same letter as the one that appeared 3 letters ago.),r,None,,,,,,,,,0,3,3,3,0,0,0,0,,,,,,,,,,,,,,,,,,,,,,,,,,,,,,,,,,,,,,,,,,,,,,,,,,,,,,,,,,,470.8583137000096,None,473.84505610005,None,space,1.536398000025656,473.84505610005,None,470.8583137000096,None,1.7726,477.1918076000293,None,None,1,477.1918076000293,None,,P038,FENCOG,2,Post,2022_May_03_1253,N-Back (New Version 2021),2021.1.4,120.09040412947378,
,,,,Conditions/Version_1/threeback(1)_v1.xlsx,New rule: Press 'space' when you see 3-back (i.e. the same letter as the one that appeared 3 letters ago.),o,None,,,,,,,,,0,3,3,3,0,1,1,1,,,,,,,,,,,,,,,,,,,,,,,,,,,,,,,,,,,,,,,,,,,,,,,,,,,,,,,,,,,,,,,,,,,,,1.8098,481.0082850000472,None,None,1,481.0082850000472,None,,P038,FENCOG,2,Post,2022_May_03_1253,N-Back (New Version 2021),2021.1.4,120.09040412947378,
,,,,Conditions/Version_1/threeback(1)_v1.xlsx,New rule: Press 'space' when you see 3-back (i.e. the same letter as the one that appeared 3 letters ago.),P,None,,,,,,,,,0,3,3,3,0,2,2,2,,,,,,,,,,,,,,,,,,,,,,,,,,,,,,,,,,,,,,,,,,,,,,,,,,,,,,,,,,,,,,,,,,,,,1.9338,484.94762049999554,None,None,1,484.94762049999554,None,,P038,FENCOG,2,Post,2022_May_03_1253,N-Back (New Version 2021),2021.1.4,120.09040412947378,
,,,,Conditions/Version_1/threeback(1)_v1.xlsx,New rule: Press 'space' when you see 3-back (i.e. the same letter as the one that appeared 3 letters ago.),R,space,,,,,,,,,0,3,3,3,0,3,3,3,,,,,,,,,,,,,,,,,,,,,,,,,,,,,,,,,,,,,,,,,,,,,,,,,,,,,,,,,,,,,,,,,,,,,1.7664,488.7146052000462,None,space,1,488.7146052000462,None,0.4428094000322744,P038,FENCOG,2,Post,2022_May_03_1253,N-Back (New Version 2021),2021.1.4,120.09040412947378,
,,,,Conditions/Version_1/threeback(1)_v1.xlsx,New rule: Press 'space' when you see 3-back (i.e. the same letter as the one that appeared 3 letters ago.),p,None,,,,,,,,,0,3,3,3,0,4,4,4,,,,,,,,,,,,,,,,,,,,,,,,,,,,,,,,,,,,,,,,,,,,,,,,,,,,,,,,,,,,,,,,,,,,,1.6672,492.395584300044,None,space,0,492.395584300044,None,0.825917899957858,P038,FENCOG,2,Post,2022_May_03_1253,N-Back (New Version 2021),2021.1.4,120.09040412947378,
,,,,Conditions/Version_1/threeback(1)_v1.xlsx,New rule: Press 'space' when you see 3-back (i.e. the same letter as the one that appeared 3 letters ago.),E,None,,,,,,,,,0,3,3,3,0,5,5,5,,,,,,,,,,,,,,,,,,,,,,,,,,,,,,,,,,,,,,,,,,,,,,,,,,,,,,,,,,,,,,,,,,,,,1.5556,495.9528888000059,None,None,1,495.9528888000059,None,,P038,FENCOG,2,Post,2022_May_03_1253,N-Back (New Version 2021),2021.1.4,120.09040412947378,
,,,,Conditions/Version_1/threeback(1)_v1.xlsx,New rule: Press 'space' when you see 3-back (i.e. the same letter as the one that appeared 3 letters ago.),e,None,,,,,,,,,0,3,3,3,0,6,6,6,,,,,,,,,,,,,,,,,,,,,,,,,,,,,,,,,,,,,,,,,,,,,,,,,,,,,,,,,,,,,,,,,,,,,1.4068,499.3612969000242,None,None,1,499.3612969000242,None,,P038,FENCOG,2,Post,2022_May_03_1253,N-Back (New Version 2021),2021.1.4,120.09040412947378,
,,,,Conditions/Version_1/threeback(1)_v1.xlsx,New rule: Press 'space' when you see 3-back (i.e. the same letter as the one that appeared 3 letters ago.),m,None,,,,,,,,,0,3,3,3,0,7,7,7,,,,,,,,,,,,,,,,,,,,,,,,,,,,,,,,,,,,,,,,,,,,,,,,,,,,,,,,,,,,,,,,,,,,,1.5866,502.9591556999949,None,None,1,502.9591556999949,None,,P038,FENCOG,2,Post,2022_May_03_1253,N-Back (New Version 2021),2021.1.4,120.09040412947378,
,,,,Conditions/Version_1/threeback(1)_v1.xlsx,New rule: Press 'space' when you see 3-back (i.e. the same letter as the one that appeared 3 letters ago.),n,None,,,,,,,,,0,3,3,3,0,8,8,8,,,,,,,,,,,,,,,,,,,,,,,,,,,,,,,,,,,,,,,,,,,,,,,,,,,,,,,,,,,,,,,,,,,,,1.909,506.87556730001234,None,None,1,506.87556730001234,None,,P038,FENCOG,2,Post,2022_May_03_1253,N-Back (New Version 2021),2021.1.4,120.09040412947378,
,,,,Conditions/Version_1/threeback(1)_v1.xlsx,New rule: Press 'space' when you see 3-back (i.e. the same letter as the one that appeared 3 letters ago.),e,space,,,,,,,,,0,3,3,3,0,9,9,9,,,,,,,,,,,,,,,,,,,,,,,,,,,,,,,,,,,,,,,,,,,,,,,,,,,,,,,,,,,,,,,,,,,,,1.0658,509.94863500003703,None,space,1,509.94863500003703,None,0.9125924999825656,P038,FENCOG,2,Post,2022_May_03_1253,N-Back (New Version 2021),2021.1.4,120.09040412947378,
,,,,Conditions/Version_1/threeback(1)_v1.xlsx,New rule: Press 'space' when you see 3-back (i.e. the same letter as the one that appeared 3 letters ago.),,,,,,,,,,,0,3,3,3,,,,,,,,,,,,,,,,,,,,,,,,,,,,,,,,,,,,,,,,,,,,,,,,,,,,,,,,,,,,,,,,,,,,,,,,,,,,,,,,,P038,FENCOG,2,Post,2022_May_03_1253,N-Back (New Version 2021),2021.1.4,120.09040412947378,
,,,,Conditions/Version_1/oneback(2)_v1.xlsx,New rule: Press 'space' when you see 1-back (i.e. the same letter as the one that appeared 1 letter ago.),q,None,,,,,,,,,0,4,4,4,0,0,0,0,,,,,,,,,,,,,,,,,,,,,,,,,,,,,,,,,,,,,,,,,,,,,,,,,,,,,,,,,,,511.9716924999957,None,514.9577310000313,None,space,1.0713637000299059,514.9577310000313,None,511.9716924999957,None,1.6672,517.7305327000213,None,None,1,517.7305327000213,None,,P038,FENCOG,2,Post,2022_May_03_1253,N-Back (New Version 2021),2021.1.4,120.09040412947378,
,,,,Conditions/Version_1/oneback(2)_v1.xlsx,New rule: Press 'space' when you see 1-back (i.e. the same letter as the one that appeared 1 letter ago.),Q,space,,,,,,,,,0,4,4,4,0,1,1,1,,,,,,,,,,,,,,,,,,,,,,,,,,,,,,,,,,,,,,,,,,,,,,,,,,,,,,,,,,,,,,,,,,,,,1.3758,521.120930300036,None,space,1,521.120930300036,None,0.93249510001624,P038,FENCOG,2,Post,2022_May_03_1253,N-Back (New Version 2021),2021.1.4,120.09040412947378,
,,,,Conditions/Version_1/oneback(2)_v1.xlsx,New rule: Press 'space' when you see 1-back (i.e. the same letter as the one that appeared 1 letter ago.),P,None,,,,,,,,,0,4,4,4,0,2,2,2,,,,,,,,,,,,,,,,,,,,,,,,,,,,,,,,,,,,,,,,,,,,,,,,,,,,,,,,,,,,,,,,,,,,,1.94,525.060898100026,None,None,1,525.060898100026,None,,P038,FENCOG,2,Post,2022_May_03_1253,N-Back (New Version 2021),2021.1.4,120.09040412947378,
,,,,Conditions/Version_1/oneback(2)_v1.xlsx,New rule: Press 'space' when you see 1-back (i.e. the same letter as the one that appeared 1 letter ago.),o,None,,,,,,,,,0,4,4,4,0,3,3,3,,,,,,,,,,,,,,,,,,,,,,,,,,,,,,,,,,,,,,,,,,,,,,,,,,,,,,,,,,,,,,,,,,,,,1.1712,528.2348787000519,None,None,1,528.2348787000519,None,,P038,FENCOG,2,Post,2022_May_03_1253,N-Back (New Version 2021),2021.1.4,120.09040412947378,
,,,,Conditions/Version_1/oneback(2)_v1.xlsx,New rule: Press 'space' when you see 1-back (i.e. the same letter as the one that appeared 1 letter ago.),m,None,,,,,,,,,0,4,4,4,0,4,4,4,,,,,,,,,,,,,,,,,,,,,,,,,,,,,,,,,,,,,,,,,,,,,,,,,,,,,,,,,,,,,,,,,,,,,1.289,531.5277977000223,None,None,1,531.5277977000223,None,,P038,FENCOG,2,Post,2022_May_03_1253,N-Back (New Version 2021),2021.1.4,120.09040412947378,
,,,,Conditions/Version_1/oneback(2)_v1.xlsx,New rule: Press 'space' when you see 1-back (i.e. the same letter as the one that appeared 1 letter ago.),Z,None,,,,,,,,,0,4,4,4,0,5,5,5,,,,,,,,,,,,,,,,,,,,,,,,,,,,,,,,,,,,,,,,,,,,,,,,,,,,,,,,,,,,,,,,,,,,,1.599,535.1366665000096,None,None,1,535.1366665000096,None,,P038,FENCOG,2,Post,2022_May_03_1253,N-Back (New Version 2021),2021.1.4,120.09040412947378,
,,,,Conditions/Version_1/oneback(2)_v1.xlsx,New rule: Press 'space' when you see 1-back (i.e. the same letter as the one that appeared 1 letter ago.),c,None,,,,,,,,,0,4,4,4,0,6,6,6,,,,,,,,,,,,,,,,,,,,,,,,,,,,,,,,,,,,,,,,,,,,,,,,,,,,,,,,,,,,,,,,,,,,,1.1216,538.2679454000317,None,None,1,538.2679454000317,None,,P038,FENCOG,2,Post,2022_May_03_1253,N-Back (New Version 2021),2021.1.4,120.09040412947378,
,,,,Conditions/Version_1/oneback(2)_v1.xlsx,New rule: Press 'space' when you see 1-back (i.e. the same letter as the one that appeared 1 letter ago.),c,space,,,,,,,,,0,4,4,4,0,7,7,7,,,,,,,,,,,,,,,,,,,,,,,,,,,,,,,,,,,,,,,,,,,,,,,,,,,,,,,,,,,,,,,,,,,,,1.0968,541.3727483000257,None,space,1,541.3727483000257,None,0.6646142000099644,P038,FENCOG,2,Post,2022_May_03_1253,N-Back (New Version 2021),2021.1.4,120.09040412947378,
,,,,Conditions/Version_1/oneback(2)_v1.xlsx,New rule: Press 'space' when you see 1-back (i.e. the same letter as the one that appeared 1 letter ago.),P,None,,,,,,,,,0,4,4,4,0,8,8,8,,,,,,,,,,,,,,,,,,,,,,,,,,,,,,,,,,,,,,,,,,,,,,,,,,,,,,,,,,,,,,,,,,,,,1.8594,545.2400904000388,None,None,1,545.2400904000388,None,,P038,FENCOG,2,Post,2022_May_03_1253,N-Back (New Version 2021),2021.1.4,120.09040412947378,
,,,,Conditions/Version_1/oneback(2)_v1.xlsx,New rule: Press 'space' when you see 1-back (i.e. the same letter as the one that appeared 1 letter ago.),p,space,,,,,,,,,0,4,4,4,0,9,9,9,,,,,,,,,,,,,,,,,,,,,,,,,,,,,,,,,,,,,,,,,,,,,,,,,,,,,,,,,,,,,,,,,,,,,1.1774,548.4290815000422,None,space,1,548.4290815000422,None,0.5282752000493929,P038,FENCOG,2,Post,2022_May_03_1253,N-Back (New Version 2021),2021.1.4,120.09040412947378,
,,,,Conditions/Version_1/oneback(2)_v1.xlsx,New rule: Press 'space' when you see 1-back (i.e. the same letter as the one that appeared 1 letter ago.),,,,,,,,,,,0,4,4,4,,,,,,,,,,,,,,,,,,,,,,,,,,,,,,,,,,,,,,,,,,,,,,,,,,,,,,,,,,,,,,,,,,,,,,,,,,,,,,,,,P038,FENCOG,2,Post,2022_May_03_1253,N-Back (New Version 2021),2021.1.4,120.09040412947378,
,,,,Conditions/Version_1/zeroback(2)_v1.xlsx,New rule: Press 'space' when you see the letter 'x' or 'X'.,p,None,,,,,,,,,0,5,5,5,0,0,0,0,,,,,,,,,,,,,,,,,,,,,,,,,,,,,,,,,,,,,,,,,,,,,,,,,,,,,,,,,,,550.4485836999957,None,553.4377915000077,None,space,0.48764180002035573,553.4377915000077,None,550.4485836999957,None,1.0596,555.018818200042,None,None,1,555.018818200042,None,,P038,FENCOG,2,Post,2022_May_03_1253,N-Back (New Version 2021),2021.1.4,120.09040412947378,
,,,,Conditions/Version_1/zeroback(2)_v1.xlsx,New rule: Press 'space' when you see the letter 'x' or 'X'.,L,None,,,,,,,,,0,5,5,5,0,1,1,1,,,,,,,,,,,,,,,,,,,,,,,,,,,,,,,,,,,,,,,,,,,,,,,,,,,,,,,,,,,,,,,,,,,,,1.8346,558.8601904000388,None,None,1,558.8601904000388,None,,P038,FENCOG,2,Post,2022_May_03_1253,N-Back (New Version 2021),2021.1.4,120.09040412947378,
,,,,Conditions/Version_1/zeroback(2)_v1.xlsx,New rule: Press 'space' when you see the letter 'x' or 'X'.,G,None,,,,,,,,,0,5,5,5,0,2,2,2,,,,,,,,,,,,,,,,,,,,,,,,,,,,,,,,,,,,,,,,,,,,,,,,,,,,,,,,,,,,,,,,,,,,,1.6672,562.5452541999985,None,None,1,562.5452541999985,None,,P038,FENCOG,2,Post,2022_May_03_1253,N-Back (New Version 2021),2021.1.4,120.09040412947378,
,,,,Conditions/Version_1/zeroback(2)_v1.xlsx,New rule: Press 'space' when you see the letter 'x' or 'X'.,y,None,,,,,,,,,0,5,5,5,0,3,3,3,,,,,,,,,,,,,,,,,,,,,,,,,,,,,,,,,,,,,,,,,,,,,,,,,,,,,,,,,,,,,,,,,,,,,1.7416,566.2903040000238,None,None,1,566.2903040000238,None,,P038,FENCOG,2,Post,2022_May_03_1253,N-Back (New Version 2021),2021.1.4,120.09040412947378,
,,,,Conditions/Version_1/zeroback(2)_v1.xlsx,New rule: Press 'space' when you see the letter 'x' or 'X'.,Y,None,,,,,,,,,0,5,5,5,0,4,4,4,,,,,,,,,,,,,,,,,,,,,,,,,,,,,,,,,,,,,,,,,,,,,,,,,,,,,,,,,,,,,,,,,,,,,1.8842,570.182819800044,None,None,1,570.182819800044,None,,P038,FENCOG,2,Post,2022_May_03_1253,N-Back (New Version 2021),2021.1.4,120.09040412947378,
,,,,Conditions/Version_1/zeroback(2)_v1.xlsx,New rule: Press 'space' when you see the letter 'x' or 'X'.,W,None,,,,,,,,,0,5,5,5,0,5,5,5,,,,,,,,,,,,,,,,,,,,,,,,,,,,,,,,,,,,,,,,,,,,,,,,,,,,,,,,,,,,,,,,,,,,,1.3324,573.5234528000001,None,None,1,573.5234528000001,None,,P038,FENCOG,2,Post,2022_May_03_1253,N-Back (New Version 2021),2021.1.4,120.09040412947378,
,,,,Conditions/Version_1/zeroback(2)_v1.xlsx,New rule: Press 'space' when you see the letter 'x' or 'X'.,x,space,,,,,,,,,0,5,5,5,0,6,6,6,,,,,,,,,,,,,,,,,,,,,,,,,,,,,,,,,,,,,,,,,,,,,,,,,,,,,,,,,,,,,,,,,,,,,1.2208,576.7538124000421,None,space,1,576.7538124000421,None,0.5075148000032641,P038,FENCOG,2,Post,2022_May_03_1253,N-Back (New Version 2021),2021.1.4,120.09040412947378,
,,,,Conditions/Version_1/zeroback(2)_v1.xlsx,New rule: Press 'space' when you see the letter 'x' or 'X'.,X,space,,,,,,,,,0,5,5,5,0,7,7,7,,,,,,,,,,,,,,,,,,,,,,,,,,,,,,,,,,,,,,,,,,,,,,,,,,,,,,,,,,,,,,,,,,,,,1.9276,580.6869883000036,None,space,1,580.6869883000036,None,0.47817489999579266,P038,FENCOG,2,Post,2022_May_03_1253,N-Back (New Version 2021),2021.1.4,120.09040412947378,
,,,,Conditions/Version_1/zeroback(2)_v1.xlsx,New rule: Press 'space' when you see the letter 'x' or 'X'.,p,None,,,,,,,,,0,5,5,5,0,8,8,8,,,,,,,,,,,,,,,,,,,,,,,,,,,,,,,,,,,,,,,,,,,,,,,,,,,,,,,,,,,,,,,,,,,,,1.63,584.3274307000102,None,None,1,584.3274307000102,None,,P038,FENCOG,2,Post,2022_May_03_1253,N-Back (New Version 2021),2021.1.4,120.09040412947378,
,,,,Conditions/Version_1/zeroback(2)_v1.xlsx,New rule: Press 'space' when you see the letter 'x' or 'X'.,h,None,,,,,,,,,0,5,5,5,0,9,9,9,,,,,,,,,,,,,,,,,,,,,,,,,,,,,,,,,,,,,,,,,,,,,,,,,,,,,,,,,,,,,,,,,,,,,1.5246,587.8633189999964,None,None,1,587.8633189999964,None,,P038,FENCOG,2,Post,2022_May_03_1253,N-Back (New Version 2021),2021.1.4,120.09040412947378,
,,,,Conditions/Version_1/zeroback(2)_v1.xlsx,New rule: Press 'space' when you see the letter 'x' or 'X'.,,,,,,,,,,,0,5,5,5,,,,,,,,,,,,,,,,,,,,,,,,,,,,,,,,,,,,,,,,,,,,,,,,,,,,,,,,,,,,,,,,,,,,,,,,,,,,,,,,,P038,FENCOG,2,Post,2022_May_03_1253,N-Back (New Version 2021),2021.1.4,120.09040412947378,
,,,,Conditions/Version_1/threeback(2)_v1.xlsx,New rule: Press 'space' when you see 3-back (i.e. the same letter as the one that appeared 3 letters ago.),q,None,,,,,,,,,0,6,6,6,0,0,0,0,,,,,,,,,,,,,,,,,,,,,,,,,,,,,,,,,,,,,,,,,,,,,,,,,,,,,,,,,,,589.8898731000372,None,592.8771436000243,None,space,11.344152199977543,592.8771436000243,None,589.8898731000372,None,1.6362,605.8871396000031,None,None,1,605.8871396000031,None,,P038,FENCOG,2,Post,2022_May_03_1253,N-Back (New Version 2021),2021.1.4,120.09040412947378,
,,,,Conditions/Version_1/threeback(2)_v1.xlsx,New rule: Press 'space' when you see 3-back (i.e. the same letter as the one that appeared 3 letters ago.),Y,None,,,,,,,,,0,6,6,6,0,1,1,1,,,,,,,,,,,,,,,,,,,,,,,,,,,,,,,,,,,,,,,,,,,,,,,,,,,,,,,,,,,,,,,,,,,,,1.2394,609.1276406000252,None,None,1,609.1276406000252,None,,P038,FENCOG,2,Post,2022_May_03_1253,N-Back (New Version 2021),2021.1.4,120.09040412947378,
,,,,Conditions/Version_1/threeback(2)_v1.xlsx,New rule: Press 'space' when you see 3-back (i.e. the same letter as the one that appeared 3 letters ago.),p,None,,,,,,,,,0,6,6,6,0,2,2,2,,,,,,,,,,,,,,,,,,,,,,,,,,,,,,,,,,,,,,,,,,,,,,,,,,,,,,,,,,,,,,,,,,,,,1.2084,612.3351637000451,None,None,1,612.3351637000451,None,,P038,FENCOG,2,Post,2022_May_03_1253,N-Back (New Version 2021),2021.1.4,120.09040412947378,
,,,,Conditions/Version_1/threeback(2)_v1.xlsx,New rule: Press 'space' when you see 3-back (i.e. the same letter as the one that appeared 3 letters ago.),p,None,,,,,,,,,0,6,6,6,0,3,3,3,,,,,,,,,,,,,,,,,,,,,,,,,,,,,,,,,,,,,,,,,,,,,,,,,,,,,,,,,,,,,,,,,,,,,1.0534,615.3926531000179,None,None,1,615.3926531000179,None,,P038,FENCOG,2,Post,2022_May_03_1253,N-Back (New Version 2021),2021.1.4,120.09040412947378,
,,,,Conditions/Version_1/threeback(2)_v1.xlsx,New rule: Press 'space' when you see 3-back (i.e. the same letter as the one that appeared 3 letters ago.),y,space,,,,,,,,,0,6,6,6,0,4,4,4,,,,,,,,,,,,,,,,,,,,,,,,,,,,,,,,,,,,,,,,,,,,,,,,,,,,,,,,,,,,,,,,,,,,,1.475,618.8663996999967,None,space,1,618.8663996999967,None,0.8908435999765061,P038,FENCOG,2,Post,2022_May_03_1253,N-Back (New Version 2021),2021.1.4,120.09040412947378,
,,,,Conditions/Version_1/threeback(2)_v1.xlsx,New rule: Press 'space' when you see 3-back (i.e. the same letter as the one that appeared 3 letters ago.),u,None,,,,,,,,,0,6,6,6,0,5,5,5,,,,,,,,,,,,,,,,,,,,,,,,,,,,,,,,,,,,,,,,,,,,,,,,,,,,,,,,,,,,,,,,,,,,,1.0658,621.9321777000441,None,None,1,621.9321777000441,None,,P038,FENCOG,2,Post,2022_May_03_1253,N-Back (New Version 2021),2021.1.4,120.09040412947378,
,,,,Conditions/Version_1/threeback(2)_v1.xlsx,New rule: Press 'space' when you see 3-back (i.e. the same letter as the one that appeared 3 letters ago.),P,space,,,,,,,,,0,6,6,6,0,6,6,6,,,,,,,,,,,,,,,,,,,,,,,,,,,,,,,,,,,,,,,,,,,,,,,,,,,,,,,,,,,,,,,,,,,,,1.7912,625.7228548999992,None,space,1,625.7228548999992,None,0.4264028000179678,P038,FENCOG,2,Post,2022_May_03_1253,N-Back (New Version 2021),2021.1.4,120.09040412947378,
,,,,Conditions/Version_1/threeback(2)_v1.xlsx,New rule: Press 'space' when you see 3-back (i.e. the same letter as the one that appeared 3 letters ago.),a,None,,,,,,,,,0,6,6,6,0,7,7,7,,,,,,,,,,,,,,,,,,,,,,,,,,,,,,,,,,,,,,,,,,,,,,,,,,,,,,,,,,,,,,,,,,,,,1.8594,629.5908753999975,None,None,1,629.5908753999975,None,,P038,FENCOG,2,Post,2022_May_03_1253,N-Back (New Version 2021),2021.1.4,120.09040412947378,
,,,,Conditions/Version_1/threeback(2)_v1.xlsx,New rule: Press 'space' when you see 3-back (i.e. the same letter as the one that appeared 3 letters ago.),U,space,,,,,,,,,0,6,6,6,0,8,8,8,,,,,,,,,,,,,,,,,,,,,,,,,,,,,,,,,,,,,,,,,,,,,,,,,,,,,,,,,,,,,,,,,,,,,1.4564,633.0540374999982,None,space,1,633.0540374999982,None,1.0950639999937266,P038,FENCOG,2,Post,2022_May_03_1253,N-Back (New Version 2021),2021.1.4,120.09040412947378,
,,,,Conditions/Version_1/threeback(2)_v1.xlsx,New rule: Press 'space' when you see 3-back (i.e. the same letter as the one that appeared 3 letters ago.),q,None,,,,,,,,,0,6,6,6,0,9,9,9,,,,,,,,,,,,,,,,,,,,,,,,,,,,,,,,,,,,,,,,,,,,,,,,,,,,,,,,,,,,,,,,,,,,,1.8842,636.9444493000046,None,None,1,636.9444493000046,None,,P038,FENCOG,2,Post,2022_May_03_1253,N-Back (New Version 2021),2021.1.4,120.09040412947378,
,,,,Conditions/Version_1/threeback(2)_v1.xlsx,New rule: Press 'space' when you see 3-back (i.e. the same letter as the one that appeared 3 letters ago.),,,,,,,,,,,0,6,6,6,,,,,,,,,,,,,,,,,,,,,,,,,,,,,,,,,,,,,,,,,,,,,,,,,,,,,,,,,,,,,,,,,,,,,,,,,,,,,,,,,P038,FENCOG,2,Post,2022_May_03_1253,N-Back (New Version 2021),2021.1.4,120.09040412947378,
,,,,Conditions/Version_1/twoback(2)_v1.xlsx,New rule: Press 'space' when you see 2-back (i.e. the same letter as the one that appeared 2 letters ago.),q,None,,,,,,,,,0,7,7,7,0,0,0,0,,,,,,,,,,,,,,,,,,,,,,,,,,,,,,,,,,,,,,,,,,,,,,,,,,,,,,,,,,,638.9694823000464,None,641.9537363999989,None,space,1.107500499987509,641.9537363999989,None,638.9694823000464,None,1.4874,644.5838481000392,None,None,1,644.5838481000392,None,,P038,FENCOG,2,Post,2022_May_03_1253,N-Back (New Version 2021),2021.1.4,120.09040412947378,
,,,,Conditions/Version_1/twoback(2)_v1.xlsx,New rule: Press 'space' when you see 2-back (i.e. the same letter as the one that appeared 2 letters ago.),r,None,,,,,,,,,0,7,7,7,0,1,1,1,,,,,,,,,,,,,,,,,,,,,,,,,,,,,,,,,,,,,,,,,,,,,,,,,,,,,,,,,,,,,,,,,,,,,1.847,648.4348470999976,None,None,1,648.4348470999976,None,,P038,FENCOG,2,Post,2022_May_03_1253,N-Back (New Version 2021),2021.1.4,120.09040412947378,
,,,,Conditions/Version_1/twoback(2)_v1.xlsx,New rule: Press 'space' when you see 2-back (i.e. the same letter as the one that appeared 2 letters ago.),q,space,,,,,,,,,0,7,7,7,0,2,2,2,,,,,,,,,,,,,,,,,,,,,,,,,,,,,,,,,,,,,,,,,,,,,,,,,,,,,,,,,,,,,,,,,,,,,1.041,651.4836933000479,None,space,1,651.4836933000479,None,0.6256070000235923,P038,FENCOG,2,Post,2022_May_03_1253,N-Back (New Version 2021),2021.1.4,120.09040412947378,
,,,,Conditions/Version_1/twoback(2)_v1.xlsx,New rule: Press 'space' when you see 2-back (i.e. the same letter as the one that appeared 2 letters ago.),P,None,,,,,,,,,0,7,7,7,0,3,3,3,,,,,,,,,,,,,,,,,,,,,,,,,,,,,,,,,,,,,,,,,,,,,,,,,,,,,,,,,,,,,,,,,,,,,1.2146,654.7069575000205,None,None,1,654.7069575000205,None,,P038,FENCOG,2,Post,2022_May_03_1253,N-Back (New Version 2021),2021.1.4,120.09040412947378,
,,,,Conditions/Version_1/twoback(2)_v1.xlsx,New rule: Press 'space' when you see 2-back (i.e. the same letter as the one that appeared 2 letters ago.),p,None,,,,,,,,,0,7,7,7,0,4,4,4,,,,,,,,,,,,,,,,,,,,,,,,,,,,,,,,,,,,,,,,,,,,,,,,,,,,,,,,,,,,,,,,,,,,,1.258,657.9714981000288,None,None,1,657.9714981000288,None,,P038,FENCOG,2,Post,2022_May_03_1253,N-Back (New Version 2021),2021.1.4,120.09040412947378,
,,,,Conditions/Version_1/twoback(2)_v1.xlsx,New rule: Press 'space' when you see 2-back (i.e. the same letter as the one that appeared 2 letters ago.),H,None,,,,,,,,,0,7,7,7,0,5,5,5,,,,,,,,,,,,,,,,,,,,,,,,,,,,,,,,,,,,,,,,,,,,,,,,,,,,,,,,,,,,,,,,,,,,,1.0534,661.0299696000293,None,None,1,661.0299696000293,None,,P038,FENCOG,2,Post,2022_May_03_1253,N-Back (New Version 2021),2021.1.4,120.09040412947378,
,,,,Conditions/Version_1/twoback(2)_v1.xlsx,New rule: Press 'space' when you see 2-back (i.e. the same letter as the one that appeared 2 letters ago.),g,None,,,,,,,,,0,7,7,7,0,6,6,6,,,,,,,,,,,,,,,,,,,,,,,,,,,,,,,,,,,,,,,,,,,,,,,,,,,,,,,,,,,,,,,,,,,,,1.5804,664.6195980000193,None,None,1,664.6195980000193,None,,P038,FENCOG,2,Post,2022_May_03_1253,N-Back (New Version 2021),2021.1.4,120.09040412947378,
,,,,Conditions/Version_1/twoback(2)_v1.xlsx,New rule: Press 'space' when you see 2-back (i.e. the same letter as the one that appeared 2 letters ago.),j,None,,,,,,,,,0,7,7,7,0,7,7,7,,,,,,,,,,,,,,,,,,,,,,,,,,,,,,,,,,,,,,,,,,,,,,,,,,,,,,,,,,,,,,,,,,,,,1.3944,668.0198192000389,None,None,1,668.0198192000389,None,,P038,FENCOG,2,Post,2022_May_03_1253,N-Back (New Version 2021),2021.1.4,120.09040412947378,
,,,,Conditions/Version_1/twoback(2)_v1.xlsx,New rule: Press 'space' when you see 2-back (i.e. the same letter as the one that appeared 2 letters ago.),g,space,,,,,,,,,0,7,7,7,0,8,8,8,,,,,,,,,,,,,,,,,,,,,,,,,,,,,,,,,,,,,,,,,,,,,,,,,,,,,,,,,,,,,,,,,,,,,1.8718,671.9018049000297,None,space,1,671.9018049000297,None,0.45546299999114126,P038,FENCOG,2,Post,2022_May_03_1253,N-Back (New Version 2021),2021.1.4,120.09040412947378,
,,,,Conditions/Version_1/twoback(2)_v1.xlsx,New rule: Press 'space' when you see 2-back (i.e. the same letter as the one that appeared 2 letters ago.),G,None,,,,,,,,,0,7,7,7,0,9,9,9,,,,,,,,,,,,,,,,,,,,,,,,,,,,,,,,,,,,,,,,,,,,,,,,,,,,,,,,,,,,,,,,,,,,,1.7974,675.7101739000063,None,None,1,675.7101739000063,None,,P038,FENCOG,2,Post,2022_May_03_1253,N-Back (New Version 2021),2021.1.4,120.09040412947378,
,,,,Conditions/Version_1/twoback(2)_v1.xlsx,New rule: Press 'space' when you see 2-back (i.e. the same letter as the one that appeared 2 letters ago.),,,,,,,,,,,0,7,7,7,,,,,,,,,,,,,,,,,,,,,,,,,,,,,,,,,,,,,,,,,,,,,,,,,,,,,,,,,,,,,,,,,,,,,,,,,,,,,,,,,P038,FENCOG,2,Post,2022_May_03_1253,N-Back (New Version 2021),2021.1.4,120.09040412947378,
,,,,Conditions/Version_1/threeback(3)_v1.xlsx,New rule: Press 'space' when you see 3-back (i.e. the same letter as the one that appeared 3 letters ago.),w,None,,,,,,,,,0,8,8,8,0,0,0,0,,,,,,,,,,,,,,,,,,,,,,,,,,,,,,,,,,,,,,,,,,,,,,,,,,,,,,,,,,,677.7486311999965,None,680.7264591000276,None,space,1.4145938000292517,680.7264591000276,None,677.7486311999965,None,1.0906,683.2641207000124,None,None,1,683.2641207000124,None,,P038,FENCOG,2,Post,2022_May_03_1253,N-Back (New Version 2021),2021.1.4,120.09040412947378,
,,,,Conditions/Version_1/threeback(3)_v1.xlsx,New rule: Press 'space' when you see 3-back (i.e. the same letter as the one that appeared 3 letters ago.),p,None,,,,,,,,,0,8,8,8,0,1,1,1,,,,,,,,,,,,,,,,,,,,,,,,,,,,,,,,,,,,,,,,,,,,,,,,,,,,,,,,,,,,,,,,,,,,,1.5804,686.8463974000188,None,None,1,686.8463974000188,None,,P038,FENCOG,2,Post,2022_May_03_1253,N-Back (New Version 2021),2021.1.4,120.09040412947378,
,,,,Conditions/Version_1/threeback(3)_v1.xlsx,New rule: Press 'space' when you see 3-back (i.e. the same letter as the one that appeared 3 letters ago.),P,None,,,,,,,,,0,8,8,8,0,2,2,2,,,,,,,,,,,,,,,,,,,,,,,,,,,,,,,,,,,,,,,,,,,,,,,,,,,,,,,,,,,,,,,,,,,,,1.9214,690.7701942000422,None,None,1,690.7701942000422,None,,P038,FENCOG,2,Post,2022_May_03_1253,N-Back (New Version 2021),2021.1.4,120.09040412947378,
,,,,Conditions/Version_1/threeback(3)_v1.xlsx,New rule: Press 'space' when you see 3-back (i.e. the same letter as the one that appeared 3 letters ago.),i,None,,,,,,,,,0,8,8,8,0,3,3,3,,,,,,,,,,,,,,,,,,,,,,,,,,,,,,,,,,,,,,,,,,,,,,,,,,,,,,,,,,,,,,,,,,,,,1.9276,694.7023928000126,None,None,1,694.7023928000126,None,,P038,FENCOG,2,Post,2022_May_03_1253,N-Back (New Version 2021),2021.1.4,120.09040412947378,
,,,,Conditions/Version_1/threeback(3)_v1.xlsx,New rule: Press 'space' when you see 3-back (i.e. the same letter as the one that appeared 3 letters ago.),f,None,,,,,,,,,0,8,8,8,0,4,4,4,,,,,,,,,,,,,,,,,,,,,,,,,,,,,,,,,,,,,,,,,,,,,,,,,,,,,,,,,,,,,,,,,,,,,1.6424,698.3512213000213,None,None,1,698.3512213000213,None,,P038,FENCOG,2,Post,2022_May_03_1253,N-Back (New Version 2021),2021.1.4,120.09040412947378,
,,,,Conditions/Version_1/threeback(3)_v1.xlsx,New rule: Press 'space' when you see 3-back (i.e. the same letter as the one that appeared 3 letters ago.),o,None,,,,,,,,,0,8,8,8,0,5,5,5,,,,,,,,,,,,,,,,,,,,,,,,,,,,,,,,,,,,,,,,,,,,,,,,,,,,,,,,,,,,,,,,,,,,,1.2704,701.6273824000382,None,None,1,701.6273824000382,None,,P038,FENCOG,2,Post,2022_May_03_1253,N-Back (New Version 2021),2021.1.4,120.09040412947378,
,,,,Conditions/Version_1/threeback(3)_v1.xlsx,New rule: Press 'space' when you see 3-back (i.e. the same letter as the one that appeared 3 letters ago.),w,None,,,,,,,,,0,8,8,8,0,6,6,6,,,,,,,,,,,,,,,,,,,,,,,,,,,,,,,,,,,,,,,,,,,,,,,,,,,,,,,,,,,,,,,,,,,,,1.537,705.1751854000031,None,None,1,705.1751854000031,None,,P038,FENCOG,2,Post,2022_May_03_1253,N-Back (New Version 2021),2021.1.4,120.09040412947378,
,,,,Conditions/Version_1/threeback(3)_v1.xlsx,New rule: Press 'space' when you see 3-back (i.e. the same letter as the one that appeared 3 letters ago.),F,space,,,,,,,,,0,8,8,8,0,7,7,7,,,,,,,,,,,,,,,,,,,,,,,,,,,,,,,,,,,,,,,,,,,,,,,,,,,,,,,,,,,,,,,,,,,,,1.661,708.8481405000202,None,space,1,708.8481405000202,None,0.9410510999732651,P038,FENCOG,2,Post,2022_May_03_1253,N-Back (New Version 2021),2021.1.4,120.09040412947378,
,,,,Conditions/Version_1/threeback(3)_v1.xlsx,New rule: Press 'space' when you see 3-back (i.e. the same letter as the one that appeared 3 letters ago.),p,None,,,,,,,,,0,8,8,8,0,8,8,8,,,,,,,,,,,,,,,,,,,,,,,,,,,,,,,,,,,,,,,,,,,,,,,,,,,,,,,,,,,,,,,,,,,,,1.0596,711.9139940000023,None,None,1,711.9139940000023,None,,P038,FENCOG,2,Post,2022_May_03_1253,N-Back (New Version 2021),2021.1.4,120.09040412947378,
,,,,Conditions/Version_1/threeback(3)_v1.xlsx,New rule: Press 'space' when you see 3-back (i.e. the same letter as the one that appeared 3 letters ago.),W,space,,,,,,,,,0,8,8,8,0,9,9,9,,,,,,,,,,,,,,,,,,,,,,,,,,,,,,,,,,,,,,,,,,,,,,,,,,,,,,,,,,,,,,,,,,,,,1.8532,715.7711233000155,None,space,1,715.7711233000155,None,0.46599600004265085,P038,FENCOG,2,Post,2022_May_03_1253,N-Back (New Version 2021),2021.1.4,120.09040412947378,
,,,,Conditions/Version_1/threeback(3)_v1.xlsx,New rule: Press 'space' when you see 3-back (i.e. the same letter as the one that appeared 3 letters ago.),,,,,,,,,,,0,8,8,8,,,,,,,,,,,,,,,,,,,,,,,,,,,,,,,,,,,,,,,,,,,,,,,,,,,,,,,,,,,,,,,,,,,,,,,,,,,,,,,,,P038,FENCOG,2,Post,2022_May_03_1253,N-Back (New Version 2021),2021.1.4,120.09040412947378,
,,,,Conditions/Version_1/zeroback(3)_v1.xlsx,New rule: Press 'space' when you see the letter 'x' or 'X'.,X,space,,,,,,,,,0,9,9,9,0,0,0,0,,,,,,,,,,,,,,,,,,,,,,,,,,,,,,,,,,,,,,,,,,,,,,,,,,,,,,,,,,,717.7919566000346,None,720.7800905000186,None,space,0.8730364999501035,720.7800905000186,None,717.7919566000346,None,1.103,722.7866745000356,None,space,1,722.7866745000356,None,0.4663334999931976,P038,FENCOG,2,Post,2022_May_03_1253,N-Back (New Version 2021),2021.1.4,120.09040412947378,
,,,,Conditions/Version_1/zeroback(3)_v1.xlsx,New rule: Press 'space' when you see the letter 'x' or 'X'.,B,None,,,,,,,,,0,9,9,9,0,1,1,1,,,,,,,,,,,,,,,,,,,,,,,,,,,,,,,,,,,,,,,,,,,,,,,,,,,,,,,,,,,,,,,,,,,,,1.0534,725.8533426000504,None,None,1,725.8533426000504,None,,P038,FENCOG,2,Post,2022_May_03_1253,N-Back (New Version 2021),2021.1.4,120.09040412947378,
,,,,Conditions/Version_1/zeroback(3)_v1.xlsx,New rule: Press 'space' when you see the letter 'x' or 'X'.,m,None,,,,,,,,,0,9,9,9,0,2,2,2,,,,,,,,,,,,,,,,,,,,,,,,,,,,,,,,,,,,,,,,,,,,,,,,,,,,,,,,,,,,,,,,,,,,,1.2952,729.1588823000202,None,None,1,729.1588823000202,None,,P038,FENCOG,2,Post,2022_May_03_1253,N-Back (New Version 2021),2021.1.4,120.09040412947378,
,,,,Conditions/Version_1/zeroback(3)_v1.xlsx,New rule: Press 'space' when you see the letter 'x' or 'X'.,m,None,,,,,,,,,0,9,9,9,0,3,3,3,,,,,,,,,,,,,,,,,,,,,,,,,,,,,,,,,,,,,,,,,,,,,,,,,,,,,,,,,,,,,,,,,,,,,1.8284,732.99120270001,None,None,1,732.99120270001,None,,P038,FENCOG,2,Post,2022_May_03_1253,N-Back (New Version 2021),2021.1.4,120.09040412947378,
,,,,Conditions/Version_1/zeroback(3)_v1.xlsx,New rule: Press 'space' when you see the letter 'x' or 'X'.,o,None,,,,,,,,,0,9,9,9,0,4,4,4,,,,,,,,,,,,,,,,,,,,,,,,,,,,,,,,,,,,,,,,,,,,,,,,,,,,,,,,,,,,,,,,,,,,,1.2208,736.2150083000306,None,None,1,736.2150083000306,None,,P038,FENCOG,2,Post,2022_May_03_1253,N-Back (New Version 2021),2021.1.4,120.09040412947378,
,,,,Conditions/Version_1/zeroback(3)_v1.xlsx,New rule: Press 'space' when you see the letter 'x' or 'X'.,p,None,,,,,,,,,0,9,9,9,0,5,5,5,,,,,,,,,,,,,,,,,,,,,,,,,,,,,,,,,,,,,,,,,,,,,,,,,,,,,,,,,,,,,,,,,,,,,1.6362,739.8574869000004,None,None,1,739.8574869000004,None,,P038,FENCOG,2,Post,2022_May_03_1253,N-Back (New Version 2021),2021.1.4,120.09040412947378,
,,,,Conditions/Version_1/zeroback(3)_v1.xlsx,New rule: Press 'space' when you see the letter 'x' or 'X'.,G,None,,,,,,,,,0,9,9,9,0,6,6,6,,,,,,,,,,,,,,,,,,,,,,,,,,,,,,,,,,,,,,,,,,,,,,,,,,,,,,,,,,,,,,,,,,,,,1.0844,742.9547191000311,None,None,1,742.9547191000311,None,,P038,FENCOG,2,Post,2022_May_03_1253,N-Back (New Version 2021),2021.1.4,120.09040412947378,
,,,,Conditions/Version_1/zeroback(3)_v1.xlsx,New rule: Press 'space' when you see the letter 'x' or 'X'.,X,space,,,,,,,,,0,9,9,9,0,7,7,7,,,,,,,,,,,,,,,,,,,,,,,,,,,,,,,,,,,,,,,,,,,,,,,,,,,,,,,,,,,,,,,,,,,,,1.5742,746.5288511000108,None,space,1,746.5288511000108,None,0.6282655000104569,P038,FENCOG,2,Post,2022_May_03_1253,N-Back (New Version 2021),2021.1.4,120.09040412947378,
,,,,Conditions/Version_1/zeroback(3)_v1.xlsx,New rule: Press 'space' when you see the letter 'x' or 'X'.,p,None,,,,,,,,,0,9,9,9,0,8,8,8,,,,,,,,,,,,,,,,,,,,,,,,,,,,,,,,,,,,,,,,,,,,,,,,,,,,,,,,,,,,,,,,,,,,,1.8718,750.4025123000029,None,None,1,750.4025123000029,None,,P038,FENCOG,2,Post,2022_May_03_1253,N-Back (New Version 2021),2021.1.4,120.09040412947378,
,,,,Conditions/Version_1/zeroback(3)_v1.xlsx,New rule: Press 'space' when you see the letter 'x' or 'X'.,x,space,,,,,,,,,0,9,9,9,0,9,9,9,,,,,,,,,,,,,,,,,,,,,,,,,,,,,,,,,,,,,,,,,,,,,,,,,,,,,,,,,,,,,,,,,,,,,1.0782,753.4850036000134,None,space,1,753.4850036000134,None,0.39209169999230653,P038,FENCOG,2,Post,2022_May_03_1253,N-Back (New Version 2021),2021.1.4,120.09040412947378,
,,,,Conditions/Version_1/zeroback(3)_v1.xlsx,New rule: Press 'space' when you see the letter 'x' or 'X'.,,,,,,,,,,,0,9,9,9,,,,,,,,,,,,,,,,,,,,,,,,,,,,,,,,,,,,,,,,,,,,,,,,,,,,,,,,,,,,,,,,,,,,,,,,,,,,,,,,,P038,FENCOG,2,Post,2022_May_03_1253,N-Back (New Version 2021),2021.1.4,120.09040412947378,
,,,,Conditions/Version_1/twoback(3)_v1.xlsx,New rule: Press 'space' when you see 2-back (i.e. the same letter as the one that appeared 2 letters ago.),e,None,,,,,,,,,0,10,10,10,0,0,0,0,,,,,,,,,,,,,,,,,,,,,,,,,,,,,,,,,,,,,,,,,,,,,,,,,,,,,,,,,,,755.5050041000359,None,758.4939575000317,None,space,1.1429567000013776,758.4939575000317,None,755.5050041000359,None,1.7416,761.4160646999953,None,None,1,761.4160646999953,None,,P038,FENCOG,2,Post,2022_May_03_1253,N-Back (New Version 2021),2021.1.4,120.09040412947378,
,,,,Conditions/Version_1/twoback(3)_v1.xlsx,New rule: Press 'space' when you see 2-back (i.e. the same letter as the one that appeared 2 letters ago.),o,None,,,,,,,,,0,10,10,10,0,1,1,1,,,,,,,,,,,,,,,,,,,,,,,,,,,,,,,,,,,,,,,,,,,,,,,,,,,,,,,,,,,,,,,,,,,,,1.165,764.590086500044,None,None,1,764.590086500044,None,,P038,FENCOG,2,Post,2022_May_03_1253,N-Back (New Version 2021),2021.1.4,120.09040412947378,
,,,,Conditions/Version_1/twoback(3)_v1.xlsx,New rule: Press 'space' when you see 2-back (i.e. the same letter as the one that appeared 2 letters ago.),P,None,,,,,,,,,0,10,10,10,0,2,2,2,,,,,,,,,,,,,,,,,,,,,,,,,,,,,,,,,,,,,,,,,,,,,,,,,,,,,,,,,,,,,,,,,,,,,1.4626,768.0589016000158,None,None,1,768.0589016000158,None,,P038,FENCOG,2,Post,2022_May_03_1253,N-Back (New Version 2021),2021.1.4,120.09040412947378,
,,,,Conditions/Version_1/twoback(3)_v1.xlsx,New rule: Press 'space' when you see 2-back (i.e. the same letter as the one that appeared 2 letters ago.),z,None,,,,,,,,,0,10,10,10,0,3,3,3,,,,,,,,,,,,,,,,,,,,,,,,,,,,,,,,,,,,,,,,,,,,,,,,,,,,,,,,,,,,,,,,,,,,,1.4378,771.5076726000407,None,None,1,771.5076726000407,None,,P038,FENCOG,2,Post,2022_May_03_1253,N-Back (New Version 2021),2021.1.4,120.09040412947378,
,,,,Conditions/Version_1/twoback(3)_v1.xlsx,New rule: Press 'space' when you see 2-back (i.e. the same letter as the one that appeared 2 letters ago.),X,None,,,,,,,,,0,10,10,10,0,4,4,4,,,,,,,,,,,,,,,,,,,,,,,,,,,,,,,,,,,,,,,,,,,,,,,,,,,,,,,,,,,,,,,,,,,,,1.4874,775.0042314000311,None,None,1,775.0042314000311,None,,P038,FENCOG,2,Post,2022_May_03_1253,N-Back (New Version 2021),2021.1.4,120.09040412947378,
,,,,Conditions/Version_1/twoback(3)_v1.xlsx,New rule: Press 'space' when you see 2-back (i.e. the same letter as the one that appeared 2 letters ago.),z,space,,,,,,,,,0,10,10,10,0,5,5,5,,,,,,,,,,,,,,,,,,,,,,,,,,,,,,,,,,,,,,,,,,,,,,,,,,,,,,,,,,,,,,,,,,,,,1.2208,778.2359674000181,None,space,1,778.2359674000181,None,0.9928170000202954,P038,FENCOG,2,Post,2022_May_03_1253,N-Back (New Version 2021),2021.1.4,120.09040412947378,
,,,,Conditions/Version_1/twoback(3)_v1.xlsx,New rule: Press 'space' when you see 2-back (i.e. the same letter as the one that appeared 2 letters ago.),x,space,,,,,,,,,0,10,10,10,0,6,6,6,,,,,,,,,,,,,,,,,,,,,,,,,,,,,,,,,,,,,,,,,,,,,,,,,,,,,,,,,,,,,,,,,,,,,1.8904,782.1286502000294,None,space,1,782.1286502000294,None,0.6524578999960795,P038,FENCOG,2,Post,2022_May_03_1253,N-Back (New Version 2021),2021.1.4,120.09040412947378,
,,,,Conditions/Version_1/twoback(3)_v1.xlsx,New rule: Press 'space' when you see 2-back (i.e. the same letter as the one that appeared 2 letters ago.),c,None,,,,,,,,,0,10,10,10,0,7,7,7,,,,,,,,,,,,,,,,,,,,,,,,,,,,,,,,,,,,,,,,,,,,,,,,,,,,,,,,,,,,,,,,,,,,,1.8284,785.9693432000349,None,None,1,785.9693432000349,None,,P038,FENCOG,2,Post,2022_May_03_1253,N-Back (New Version 2021),2021.1.4,120.09040412947378,
,,,,Conditions/Version_1/twoback(3)_v1.xlsx,New rule: Press 'space' when you see 2-back (i.e. the same letter as the one that appeared 2 letters ago.),i,None,,,,,,,,,0,10,10,10,0,8,8,8,,,,,,,,,,,,,,,,,,,,,,,,,,,,,,,,,,,,,,,,,,,,,,,,,,,,,,,,,,,,,,,,,,,,,1.6672,789.6409316000063,None,None,1,789.6409316000063,None,,P038,FENCOG,2,Post,2022_May_03_1253,N-Back (New Version 2021),2021.1.4,120.09040412947378,
,,,,Conditions/Version_1/twoback(3)_v1.xlsx,New rule: Press 'space' when you see 2-back (i.e. the same letter as the one that appeared 2 letters ago.),C,space,,,,,,,,,0,10,10,10,0,9,9,9,,,,,,,,,,,,,,,,,,,,,,,,,,,,,,,,,,,,,,,,,,,,,,,,,,,,,,,,,,,,,,,,,,,,,1.5122,793.1592814000323,None,space,1,793.1592814000323,None,0.6699955000076443,P038,FENCOG,2,Post,2022_May_03_1253,N-Back (New Version 2021),2021.1.4,120.09040412947378,
,,,,Conditions/Version_1/twoback(3)_v1.xlsx,New rule: Press 'space' when you see 2-back (i.e. the same letter as the one that appeared 2 letters ago.),,,,,,,,,,,0,10,10,10,,,,,,,,,,,,,,,,,,,,,,,,,,,,,,,,,,,,,,,,,,,,,,,,,,,,,,,,,,,,,,,,,,,,,,,,,,,,,,,,,P038,FENCOG,2,Post,2022_May_03_1253,N-Back (New Version 2021),2021.1.4,120.09040412947378,
,,,,Conditions/Version_1/oneback(3)_v1.xlsx,New rule: Press 'space' when you see 1-back (i.e. the same letter as the one that appeared 1 letter ago.),o,None,,,,,,,,,0,11,11,11,0,0,0,0,,,,,,,,,,,,,,,,,,,,,,,,,,,,,,,,,,,,,,,,,,,,,,,,,,,,,,,,,,,795.1881996000302,None,798.1765542000066,None,space,1.972347599978093,798.1765542000066,None,795.1881996000302,None,1.4564,801.6302443000022,None,None,1,801.6302443000022,None,,P038,FENCOG,2,Post,2022_May_03_1253,N-Back (New Version 2021),2021.1.4,120.09040412947378,
,,,,Conditions/Version_1/oneback(3)_v1.xlsx,New rule: Press 'space' when you see 1-back (i.e. the same letter as the one that appeared 1 letter ago.),O,space,,,,,,,,,0,11,11,11,0,1,1,1,,,,,,,,,,,,,,,,,,,,,,,,,,,,,,,,,,,,,,,,,,,,,,,,,,,,,,,,,,,,,,,,,,,,,1.3696,805.0114880000474,None,space,1,805.0114880000474,None,1.0015763999545015,P038,FENCOG,2,Post,2022_May_03_1253,N-Back (New Version 2021),2021.1.4,120.09040412947378,
,,,,Conditions/Version_1/oneback(3)_v1.xlsx,New rule: Press 'space' when you see 1-back (i.e. the same letter as the one that appeared 1 letter ago.),h,None,,,,,,,,,0,11,11,11,0,2,2,2,,,,,,,,,,,,,,,,,,,,,,,,,,,,,,,,,,,,,,,,,,,,,,,,,,,,,,,,,,,,,,,,,,,,,1.8036,808.8186070999946,None,None,1,808.8186070999946,None,,P038,FENCOG,2,Post,2022_May_03_1253,N-Back (New Version 2021),2021.1.4,120.09040412947378,
,,,,Conditions/Version_1/oneback(3)_v1.xlsx,New rule: Press 'space' when you see 1-back (i.e. the same letter as the one that appeared 1 letter ago.),g,None,,,,,,,,,0,11,11,11,0,3,3,3,,,,,,,,,,,,,,,,,,,,,,,,,,,,,,,,,,,,,,,,,,,,,,,,,,,,,,,,,,,,,,,,,,,,,1.5122,812.3354163000477,None,None,1,812.3354163000477,None,,P038,FENCOG,2,Post,2022_May_03_1253,N-Back (New Version 2021),2021.1.4,120.09040412947378,
,,,,Conditions/Version_1/oneback(3)_v1.xlsx,New rule: Press 'space' when you see 1-back (i.e. the same letter as the one that appeared 1 letter ago.),n,None,,,,,,,,,0,11,11,11,0,4,4,4,,,,,,,,,,,,,,,,,,,,,,,,,,,,,,,,,,,,,,,,,,,,,,,,,,,,,,,,,,,,,,,,,,,,,1.2518,815.5999994000304,None,None,1,815.5999994000304,None,,P038,FENCOG,2,Post,2022_May_03_1253,N-Back (New Version 2021),2021.1.4,120.09040412947378,
,,,,Conditions/Version_1/oneback(3)_v1.xlsx,New rule: Press 'space' when you see 1-back (i.e. the same letter as the one that appeared 1 letter ago.),z,None,,,,,,,,,0,11,11,11,0,5,5,5,,,,,,,,,,,,,,,,,,,,,,,,,,,,,,,,,,,,,,,,,,,,,,,,,,,,,,,,,,,,,,,,,,,,,1.1092,818.7156353000319,None,None,1,818.7156353000319,None,,P038,FENCOG,2,Post,2022_May_03_1253,N-Back (New Version 2021),2021.1.4,120.09040412947378,
,,,,Conditions/Version_1/oneback(3)_v1.xlsx,New rule: Press 'space' when you see 1-back (i.e. the same letter as the one that appeared 1 letter ago.),X,None,,,,,,,,,0,11,11,11,0,6,6,6,,,,,,,,,,,,,,,,,,,,,,,,,,,,,,,,,,,,,,,,,,,,,,,,,,,,,,,,,,,,,,,,,,,,,1.0596,821.78212540003,None,None,1,821.78212540003,None,,P038,FENCOG,2,Post,2022_May_03_1253,N-Back (New Version 2021),2021.1.4,120.09040412947378,
,,,,Conditions/Version_1/oneback(3)_v1.xlsx,New rule: Press 'space' when you see 1-back (i.e. the same letter as the one that appeared 1 letter ago.),r,None,,,,,,,,,0,11,11,11,0,7,7,7,,,,,,,,,,,,,,,,,,,,,,,,,,,,,,,,,,,,,,,,,,,,,,,,,,,,,,,,,,,,,,,,,,,,,1.9276,825.7219446999952,None,None,1,825.7219446999952,None,,P038,FENCOG,2,Post,2022_May_03_1253,N-Back (New Version 2021),2021.1.4,120.09040412947378,
,,,,Conditions/Version_1/oneback(3)_v1.xlsx,New rule: Press 'space' when you see 1-back (i.e. the same letter as the one that appeared 1 letter ago.),r,space,,,,,,,,,0,11,11,11,0,8,8,8,,,,,,,,,,,,,,,,,,,,,,,,,,,,,,,,,,,,,,,,,,,,,,,,,,,,,,,,,,,,,,,,,,,,,1.2022,828.9294860000373,None,space,1,828.9294860000373,None,0.8195143999764696,P038,FENCOG,2,Post,2022_May_03_1253,N-Back (New Version 2021),2021.1.4,120.09040412947378,
,,,,Conditions/Version_1/oneback(3)_v1.xlsx,New rule: Press 'space' when you see 1-back (i.e. the same letter as the one that appeared 1 letter ago.),P,None,,,,,,,,,0,11,11,11,0,9,9,9,,,,,,,,,,,,,,,,,,,,,,,,,,,,,,,,,,,,,,,,,,,,,,,,,,,,,,,,,,,,,,,,,,,,,1.2332,832.1628222000436,None,None,1,832.1628222000436,None,,P038,FENCOG,2,Post,2022_May_03_1253,N-Back (New Version 2021),2021.1.4,120.09040412947378,
,,,,Conditions/Version_1/oneback(3)_v1.xlsx,New rule: Press 'space' when you see 1-back (i.e. the same letter as the one that appeared 1 letter ago.),,,,,,,,,,,0,11,11,11,,,,,,,,,,,,,,,,,,,,,,,,,,,,,,,,,,,,,,,,,,,,,,,,,,,,,,,,,,,,,,,,,,,,,,,,,,,,,,,,,P038,FENCOG,2,Post,2022_May_03_1253,N-Back (New Version 2021),2021.1.4,120.09040412947378,
,,,,Conditions/Version_1/twoback(4)_v1.xlsx,New rule: Press 'space' when you see 2-back (i.e. the same letter as the one that appeared 2 letters ago.),r,None,,,,,,,,,0,12,12,12,0,0,0,0,,,,,,,,,,,,,,,,,,,,,,,,,,,,,,,,,,,,,,,,,,,,,,,,,,,,,,,,,,,834.1914137999993,None,837.1786048000213,None,space,2.314248700044118,837.1786048000213,None,834.1914137999993,None,1.4998,841.0674042000319,None,None,1,841.0674042000319,None,,P038,FENCOG,2,Post,2022_May_03_1253,N-Back (New Version 2021),2021.1.4,120.09040412947378,
,,,,Conditions/Version_1/twoback(4)_v1.xlsx,New rule: Press 'space' when you see 2-back (i.e. the same letter as the one that appeared 2 letters ago.),T,None,,,,,,,,,0,12,12,12,0,1,1,1,,,,,,,,,,,,,,,,,,,,,,,,,,,,,,,,,,,,,,,,,,,,,,,,,,,,,,,,,,,,,,,,,,,,,1.4626,844.535471900017,None,None,1,844.535471900017,None,,P038,FENCOG,2,Post,2022_May_03_1253,N-Back (New Version 2021),2021.1.4,120.09040412947378,
,,,,Conditions/Version_1/twoback(4)_v1.xlsx,New rule: Press 'space' when you see 2-back (i.e. the same letter as the one that appeared 2 letters ago.),o,None,,,,,,,,,0,12,12,12,0,2,2,2,,,,,,,,,,,,,,,,,,,,,,,,,,,,,,,,,,,,,,,,,,,,,,,,,,,,,,,,,,,,,,,,,,,,,1.4812,848.0234351000399,None,None,1,848.0234351000399,None,,P038,FENCOG,2,Post,2022_May_03_1253,N-Back (New Version 2021),2021.1.4,120.09040412947378,
,,,,Conditions/Version_1/twoback(4)_v1.xlsx,New rule: Press 'space' when you see 2-back (i.e. the same letter as the one that appeared 2 letters ago.),p,None,,,,,,,,,0,12,12,12,0,3,3,3,,,,,,,,,,,,,,,,,,,,,,,,,,,,,,,,,,,,,,,,,,,,,,,,,,,,,,,,,,,,,,,,,,,,,1.1402,851.1644035000354,None,None,1,851.1644035000354,None,,P038,FENCOG,2,Post,2022_May_03_1253,N-Back (New Version 2021),2021.1.4,120.09040412947378,
,,,,Conditions/Version_1/twoback(4)_v1.xlsx,New rule: Press 'space' when you see 2-back (i.e. the same letter as the one that appeared 2 letters ago.),p,None,,,,,,,,,0,12,12,12,0,4,4,4,,,,,,,,,,,,,,,,,,,,,,,,,,,,,,,,,,,,,,,,,,,,,,,,,,,,,,,,,,,,,,,,,,,,,1.6114,854.7801444000215,None,None,1,854.7801444000215,None,,P038,FENCOG,2,Post,2022_May_03_1253,N-Back (New Version 2021),2021.1.4,120.09040412947378,
,,,,Conditions/Version_1/twoback(4)_v1.xlsx,New rule: Press 'space' when you see 2-back (i.e. the same letter as the one that appeared 2 letters ago.),y,None,,,,,,,,,0,12,12,12,0,5,5,5,,,,,,,,,,,,,,,,,,,,,,,,,,,,,,,,,,,,,,,,,,,,,,,,,,,,,,,,,,,,,,,,,,,,,1.382,858.1624702000408,None,None,1,858.1624702000408,None,,P038,FENCOG,2,Post,2022_May_03_1253,N-Back (New Version 2021),2021.1.4,120.09040412947378,
,,,,Conditions/Version_1/twoback(4)_v1.xlsx,New rule: Press 'space' when you see 2-back (i.e. the same letter as the one that appeared 2 letters ago.),P,space,,,,,,,,,0,12,12,12,0,6,6,6,,,,,,,,,,,,,,,,,,,,,,,,,,,,,,,,,,,,,,,,,,,,,,,,,,,,,,,,,,,,,,,,,,,,,1.351,861.5209372999961,None,space,1,861.5209372999961,None,0.4359156000427902,P038,FENCOG,2,Post,2022_May_03_1253,N-Back (New Version 2021),2021.1.4,120.09040412947378,
,,,,Conditions/Version_1/twoback(4)_v1.xlsx,New rule: Press 'space' when you see 2-back (i.e. the same letter as the one that appeared 2 letters ago.),y,None,,,,,,,,,0,12,12,12,0,7,7,7,,,,,,,,,,,,,,,,,,,,,,,,,,,,,,,,,,,,,,,,,,,,,,,,,,,,,,,,,,,,,,,,,,,,,1.4068,864.936291799997,None,space,0,864.936291799997,None,0.7646306999959052,P038,FENCOG,2,Post,2022_May_03_1253,N-Back (New Version 2021),2021.1.4,120.09040412947378,
,,,,Conditions/Version_1/twoback(4)_v1.xlsx,New rule: Press 'space' when you see 2-back (i.e. the same letter as the one that appeared 2 letters ago.),y,space,,,,,,,,,0,12,12,12,0,8,8,8,,,,,,,,,,,,,,,,,,,,,,,,,,,,,,,,,,,,,,,,,,,,,,,,,,,,,,,,,,,,,,,,,,,,,1.5742,868.5174566000351,None,None,0,868.5174566000351,None,,P038,FENCOG,2,Post,2022_May_03_1253,N-Back (New Version 2021),2021.1.4,120.09040412947378,
,,,,Conditions/Version_1/twoback(4)_v1.xlsx,New rule: Press 'space' when you see 2-back (i.e. the same letter as the one that appeared 2 letters ago.),,,,,,,,,,,0,12,12,12,,,,,,,,,,,,,,,,,,,,,,,,,,,,,,,,,,,,,,,,,,,,,,,,,,,,,,,,,,,,,,,,,,,,,,,,,,,,,,,,,P038,FENCOG,2,Post,2022_May_03_1253,N-Back (New Version 2021),2021.1.4,120.09040412947378,
,,,,Conditions/Version_1/zeroback(4)_v1.xlsx,New rule: Press 'space' when you see the letter 'x' or 'X'.,o,None,,,,,,,,,0,13,13,13,0,0,0,0,,,,,,,,,,,,,,,,,,,,,,,,,,,,,,,,,,,,,,,,,,,,,,,,,,,,,,,,,,,870.5389100000029,None,873.5268207000336,None,space,3.7019526000367478,873.5268207000336,None,870.5389100000029,None,1.3138,878.5739961000509,None,None,1,878.5739961000509,None,,P038,FENCOG,2,Post,2022_May_03_1253,N-Back (New Version 2021),2021.1.4,120.09040412947378,
,,,,Conditions/Version_1/zeroback(4)_v1.xlsx,New rule: Press 'space' when you see the letter 'x' or 'X'.,X,space,,,,,,,,,0,13,13,13,0,1,1,1,,,,,,,,,,,,,,,,,,,,,,,,,,,,,,,,,,,,,,,,,,,,,,,,,,,,,,,,,,,,,,,,,,,,,1.0472,881.6324671000475,None,space,1,881.6324671000475,None,0.4525784000288695,P038,FENCOG,2,Post,2022_May_03_1253,N-Back (New Version 2021),2021.1.4,120.09040412947378,
,,,,Conditions/Version_1/zeroback(4)_v1.xlsx,New rule: Press 'space' when you see the letter 'x' or 'X'.,p,None,,,,,,,,,0,13,13,13,0,2,2,2,,,,,,,,,,,,,,,,,,,,,,,,,,,,,,,,,,,,,,,,,,,,,,,,,,,,,,,,,,,,,,,,,,,,,1.1774,884.8212319000158,None,None,1,884.8212319000158,None,,P038,FENCOG,2,Post,2022_May_03_1253,N-Back (New Version 2021),2021.1.4,120.09040412947378,
,,,,Conditions/Version_1/zeroback(4)_v1.xlsx,New rule: Press 'space' when you see the letter 'x' or 'X'.,m,None,,,,,,,,,0,13,13,13,0,3,3,3,,,,,,,,,,,,,,,,,,,,,,,,,,,,,,,,,,,,,,,,,,,,,,,,,,,,,,,,,,,,,,,,,,,,,1.4378,888.2618204000173,None,None,1,888.2618204000173,None,,P038,FENCOG,2,Post,2022_May_03_1253,N-Back (New Version 2021),2021.1.4,120.09040412947378,
,,,,Conditions/Version_1/zeroback(4)_v1.xlsx,New rule: Press 'space' when you see the letter 'x' or 'X'.,n,None,,,,,,,,,0,13,13,13,0,4,4,4,,,,,,,,,,,,,,,,,,,,,,,,,,,,,,,,,,,,,,,,,,,,,,,,,,,,,,,,,,,,,,,,,,,,,1.2704,891.5394050000468,None,None,1,891.5394050000468,None,,P038,FENCOG,2,Post,2022_May_03_1253,N-Back (New Version 2021),2021.1.4,120.09040412947378,
,,,,Conditions/Version_1/zeroback(4)_v1.xlsx,New rule: Press 'space' when you see the letter 'x' or 'X'.,m,None,,,,,,,,,0,13,13,13,0,5,5,5,,,,,,,,,,,,,,,,,,,,,,,,,,,,,,,,,,,,,,,,,,,,,,,,,,,,,,,,,,,,,,,,,,,,,1.4688,895.0200605000136,None,None,1,895.0200605000136,None,,P038,FENCOG,2,Post,2022_May_03_1253,N-Back (New Version 2021),2021.1.4,120.09040412947378,
,,,,Conditions/Version_1/zeroback(4)_v1.xlsx,New rule: Press 'space' when you see the letter 'x' or 'X'.,C,None,,,,,,,,,0,13,13,13,0,6,6,6,,,,,,,,,,,,,,,,,,,,,,,,,,,,,,,,,,,,,,,,,,,,,,,,,,,,,,,,,,,,,,,,,,,,,1.6114,898.6426358000026,None,None,1,898.6426358000026,None,,P038,FENCOG,2,Post,2022_May_03_1253,N-Back (New Version 2021),2021.1.4,120.09040412947378,
,,,,Conditions/Version_1/zeroback(4)_v1.xlsx,New rule: Press 'space' when you see the letter 'x' or 'X'.,m,None,,,,,,,,,0,13,13,13,0,7,7,7,,,,,,,,,,,,,,,,,,,,,,,,,,,,,,,,,,,,,,,,,,,,,,,,,,,,,,,,,,,,,,,,,,,,,1.754,902.4077541000443,None,None,1,902.4077541000443,None,,P038,FENCOG,2,Post,2022_May_03_1253,N-Back (New Version 2021),2021.1.4,120.09040412947378,
,,,,Conditions/Version_1/zeroback(4)_v1.xlsx,New rule: Press 'space' when you see the letter 'x' or 'X'.,p,None,,,,,,,,,0,13,13,13,0,8,8,8,,,,,,,,,,,,,,,,,,,,,,,,,,,,,,,,,,,,,,,,,,,,,,,,,,,,,,,,,,,,,,,,,,,,,1.5246,905.9315528000006,None,None,1,905.9315528000006,None,,P038,FENCOG,2,Post,2022_May_03_1253,N-Back (New Version 2021),2021.1.4,120.09040412947378,
,,,,Conditions/Version_1/zeroback(4)_v1.xlsx,New rule: Press 'space' when you see the letter 'x' or 'X'.,X,space,,,,,,,,,0,13,13,13,0,9,9,9,,,,,,,,,,,,,,,,,,,,,,,,,,,,,,,,,,,,,,,,,,,,,,,,,,,,,,,,,,,,,,,,,,,,,1.1278,909.0641686000163,None,space,1,909.0641686000163,None,0.7407213000115007,P038,FENCOG,2,Post,2022_May_03_1253,N-Back (New Version 2021),2021.1.4,120.09040412947378,
,,,,Conditions/Version_1/zeroback(4)_v1.xlsx,New rule: Press 'space' when you see the letter 'x' or 'X'.,,,,,,,,,,,0,13,13,13,,,,,,,,,,,,,,,,,,,,,,,,,,,,,,,,,,,,,,,,,,,,,,,,,,,,,,,,,,,,,,,,,,,,,,,,,,,,,,,,,P038,FENCOG,2,Post,2022_May_03_1253,N-Back (New Version 2021),2021.1.4,120.09040412947378,
,,,,Conditions/Version_1/oneback(4)_v1.xlsx,New rule: Press 'space' when you see 1-back (i.e. the same letter as the one that appeared 1 letter ago.),w,None,,,,,,,,,0,14,14,14,0,0,0,0,,,,,,,,,,,,,,,,,,,,,,,,,,,,,,,,,,,,,,,,,,,,,,,,,,,,,,,,,,,911.0864148000255,None,914.0724756999989,None,space,3.124434700002894,914.0724756999989,None,911.0864148000255,None,1.4378,918.6701381000457,None,None,1,918.6701381000457,None,,P038,FENCOG,2,Post,2022_May_03_1253,N-Back (New Version 2021),2021.1.4,120.09040412947378,
,,,,Conditions/Version_1/oneback(4)_v1.xlsx,New rule: Press 'space' when you see 1-back (i.e. the same letter as the one that appeared 1 letter ago.),q,None,,,,,,,,,0,14,14,14,0,1,1,1,,,,,,,,,,,,,,,,,,,,,,,,,,,,,,,,,,,,,,,,,,,,,,,,,,,,,,,,,,,,,,,,,,,,,1.4192,922.101831500011,None,space,0,922.101831500011,None,1.2391689000069164,P038,FENCOG,2,Post,2022_May_03_1253,N-Back (New Version 2021),2021.1.4,120.09040412947378,
,,,,Conditions/Version_1/oneback(4)_v1.xlsx,New rule: Press 'space' when you see 1-back (i.e. the same letter as the one that appeared 1 letter ago.),i,None,,,,,,,,,0,14,14,14,0,2,2,2,,,,,,,,,,,,,,,,,,,,,,,,,,,,,,,,,,,,,,,,,,,,,,,,,,,,,,,,,,,,,,,,,,,,,1.8656,925.9681087000063,None,None,1,925.9681087000063,None,,P038,FENCOG,2,Post,2022_May_03_1253,N-Back (New Version 2021),2021.1.4,120.09040412947378,
,,,,Conditions/Version_1/oneback(4)_v1.xlsx,New rule: Press 'space' when you see 1-back (i.e. the same letter as the one that appeared 1 letter ago.),t,None,,,,,,,,,0,14,14,14,0,3,3,3,,,,,,,,,,,,,,,,,,,,,,,,,,,,,,,,,,,,,,,,,,,,,,,,,,,,,,,,,,,,,,,,,,,,,1.1154,929.0915910000331,None,None,1,929.0915910000331,None,,P038,FENCOG,2,Post,2022_May_03_1253,N-Back (New Version 2021),2021.1.4,120.09040412947378,
,,,,Conditions/Version_1/oneback(4)_v1.xlsx,New rule: Press 'space' when you see 1-back (i.e. the same letter as the one that appeared 1 letter ago.),v,None,,,,,,,,,0,14,14,14,0,4,4,4,,,,,,,,,,,,,,,,,,,,,,,,,,,,,,,,,,,,,,,,,,,,,,,,,,,,,,,,,,,,,,,,,,,,,1.1216,932.2169958000304,None,None,1,932.2169958000304,None,,P038,FENCOG,2,Post,2022_May_03_1253,N-Back (New Version 2021),2021.1.4,120.09040412947378,
,,,,Conditions/Version_1/oneback(4)_v1.xlsx,New rule: Press 'space' when you see 1-back (i.e. the same letter as the one that appeared 1 letter ago.),V,space,,,,,,,,,0,14,14,14,0,5,5,5,,,,,,,,,,,,,,,,,,,,,,,,,,,,,,,,,,,,,,,,,,,,,,,,,,,,,,,,,,,,,,,,,,,,,1.3634,935.5911863000365,None,space,1,935.5911863000365,None,0.7575501999817789,P038,FENCOG,2,Post,2022_May_03_1253,N-Back (New Version 2021),2021.1.4,120.09040412947378,
,,,,Conditions/Version_1/oneback(4)_v1.xlsx,New rule: Press 'space' when you see 1-back (i.e. the same letter as the one that appeared 1 letter ago.),v,space,,,,,,,,,0,14,14,14,0,6,6,6,,,,,,,,,,,,,,,,,,,,,,,,,,,,,,,,,,,,,,,,,,,,,,,,,,,,,,,,,,,,,,,,,,,,,1.8098,939.4134685000172,None,space,1,939.4134685000172,None,0.695692700042855,P038,FENCOG,2,Post,2022_May_03_1253,N-Back (New Version 2021),2021.1.4,120.09040412947378,
,,,,Conditions/Version_1/oneback(4)_v1.xlsx,New rule: Press 'space' when you see 1-back (i.e. the same letter as the one that appeared 1 letter ago.),p,None,,,,,,,,,0,14,14,14,0,7,7,7,,,,,,,,,,,,,,,,,,,,,,,,,,,,,,,,,,,,,,,,,,,,,,,,,,,,,,,,,,,,,,,,,,,,,1.103,942.5228541000397,None,None,1,942.5228541000397,None,,P038,FENCOG,2,Post,2022_May_03_1253,N-Back (New Version 2021),2021.1.4,120.09040412947378,
,,,,Conditions/Version_1/oneback(4)_v1.xlsx,New rule: Press 'space' when you see 1-back (i.e. the same letter as the one that appeared 1 letter ago.),w,None,,,,,,,,,0,14,14,14,0,8,8,8,,,,,,,,,,,,,,,,,,,,,,,,,,,,,,,,,,,,,,,,,,,,,,,,,,,,,,,,,,,,,,,,,,,,,1.9524,946.4862447000341,None,None,1,946.4862447000341,None,,P038,FENCOG,2,Post,2022_May_03_1253,N-Back (New Version 2021),2021.1.4,120.09040412947378,
,,,,Conditions/Version_1/oneback(4)_v1.xlsx,New rule: Press 'space' when you see 1-back (i.e. the same letter as the one that appeared 1 letter ago.),W,space,,,,,,,,,0,14,14,14,0,9,9,9,,,,,,,,,,,,,,,,,,,,,,,,,,,,,,,,,,,,,,,,,,,,,,,,,,,,,,,,,,,,,,,,,,,,,1.6982,950.1851019000169,None,None,0,950.1851019000169,None,,P038,FENCOG,2,Post,2022_May_03_1253,N-Back (New Version 2021),2021.1.4,120.09040412947378,
,,,,Conditions/Version_1/oneback(4)_v1.xlsx,New rule: Press 'space' when you see 1-back (i.e. the same letter as the one that appeared 1 letter ago.),,,,,,,,,,,0,14,14,14,,,,,,,,,,,,,,,,,,,,,,,,,,,,,,,,,,,,,,,,,,,,,,,,,,,,,,,,,,,,,,,,,,,,,,,,,,,,,,,,,P038,FENCOG,2,Post,2022_May_03_1253,N-Back (New Version 2021),2021.1.4,120.09040412947378,
,,,,Conditions/Version_1/threeback(4)_v1.xlsx,New rule: Press 'space' when you see 3-back (i.e. the same letter as the one that appeared 3 letters ago.),A,None,,,,,,,,,0,15,15,15,0,0,0,0,,,,,,,,,,,,,,,,,,,,,,,,,,,,,,,,,,,,,,,,,,,,,,,,,,,,,,,,,,,952.2100691000232,None,955.1952654000488,None,space,0.9934158999822102,955.1952654000488,None,952.2100691000232,None,1.7106,957.934938200051,None,None,1,957.934938200051,None,,P038,FENCOG,2,Post,2022_May_03_1253,N-Back (New Version 2021),2021.1.4,120.09040412947378,
,,,,Conditions/Version_1/threeback(4)_v1.xlsx,New rule: Press 'space' when you see 3-back (i.e. the same letter as the one that appeared 3 letters ago.),n,None,,,,,,,,,0,15,15,15,0,1,1,1,,,,,,,,,,,,,,,,,,,,,,,,,,,,,,,,,,,,,,,,,,,,,,,,,,,,,,,,,,,,,,,,,,,,,1.0596,961.0069518000237,None,None,1,961.0069518000237,None,,P038,FENCOG,2,Post,2022_May_03_1253,N-Back (New Version 2021),2021.1.4,120.09040412947378,
,,,,Conditions/Version_1/threeback(4)_v1.xlsx,New rule: Press 'space' when you see 3-back (i.e. the same letter as the one that appeared 3 letters ago.),g,None,,,,,,,,,0,15,15,15,0,2,2,2,,,,,,,,,,,,,,,,,,,,,,,,,,,,,,,,,,,,,,,,,,,,,,,,,,,,,,,,,,,,,,,,,,,,,1.6424,964.6557972000446,None,None,1,964.6557972000446,None,,P038,FENCOG,2,Post,2022_May_03_1253,N-Back (New Version 2021),2021.1.4,120.09040412947378,
,,,,Conditions/Version_1/threeback(4)_v1.xlsx,New rule: Press 'space' when you see 3-back (i.e. the same letter as the one that appeared 3 letters ago.),A,space,,,,,,,,,0,15,15,15,0,3,3,3,,,,,,,,,,,,,,,,,,,,,,,,,,,,,,,,,,,,,,,,,,,,,,,,,,,,,,,,,,,,,,,,,,,,,1.3634,968.0214969000081,None,space,1,968.0214969000081,None,0.8949270999873988,P038,FENCOG,2,Post,2022_May_03_1253,N-Back (New Version 2021),2021.1.4,120.09040412947378,
,,,,Conditions/Version_1/threeback(4)_v1.xlsx,New rule: Press 'space' when you see 3-back (i.e. the same letter as the one that appeared 3 letters ago.),p,None,,,,,,,,,0,15,15,15,0,4,4,4,,,,,,,,,,,,,,,,,,,,,,,,,,,,,,,,,,,,,,,,,,,,,,,,,,,,,,,,,,,,,,,,,,,,,1.6486,971.6701813000254,None,None,1,971.6701813000254,None,,P038,FENCOG,2,Post,2022_May_03_1253,N-Back (New Version 2021),2021.1.4,120.09040412947378,
,,,,Conditions/Version_1/threeback(4)_v1.xlsx,New rule: Press 'space' when you see 3-back (i.e. the same letter as the one that appeared 3 letters ago.),O,None,,,,,,,,,0,15,15,15,0,5,5,5,,,,,,,,,,,,,,,,,,,,,,,,,,,,,,,,,,,,,,,,,,,,,,,,,,,,,,,,,,,,,,,,,,,,,1.506,975.1775022000074,None,None,1,975.1775022000074,None,,P038,FENCOG,2,Post,2022_May_03_1253,N-Back (New Version 2021),2021.1.4,120.09040412947378,
,,,,Conditions/Version_1/threeback(4)_v1.xlsx,New rule: Press 'space' when you see 3-back (i.e. the same letter as the one that appeared 3 letters ago.),a,space,,,,,,,,,0,15,15,15,0,6,6,6,,,,,,,,,,,,,,,,,,,,,,,,,,,,,,,,,,,,,,,,,,,,,,,,,,,,,,,,,,,,,,,,,,,,,1.9338,979.1180027000373,None,space,1,979.1180027000373,None,0.9104464999982156,P038,FENCOG,2,Post,2022_May_03_1253,N-Back (New Version 2021),2021.1.4,120.09040412947378,
,,,,Conditions/Version_1/threeback(4)_v1.xlsx,New rule: Press 'space' when you see 3-back (i.e. the same letter as the one that appeared 3 letters ago.),p,space,,,,,,,,,0,15,15,15,0,7,7,7,,,,,,,,,,,,,,,,,,,,,,,,,,,,,,,,,,,,,,,,,,,,,,,,,,,,,,,,,,,,,,,,,,,,,1.7292,982.8502177000046,None,None,0,982.8502177000046,None,,P038,FENCOG,2,Post,2022_May_03_1253,N-Back (New Version 2021),2021.1.4,120.09040412947378,
,,,,Conditions/Version_1/threeback(4)_v1.xlsx,New rule: Press 'space' when you see 3-back (i.e. the same letter as the one that appeared 3 letters ago.),x,None,,,,,,,,,0,15,15,15,0,8,8,8,,,,,,,,,,,,,,,,,,,,,,,,,,,,,,,,,,,,,,,,,,,,,,,,,,,,,,,,,,,,,,,,,,,,,1.909,986.765798300039,None,None,1,986.765798300039,None,,P038,FENCOG,2,Post,2022_May_03_1253,N-Back (New Version 2021),2021.1.4,120.09040412947378,
,,,,Conditions/Version_1/threeback(4)_v1.xlsx,New rule: Press 'space' when you see 3-back (i.e. the same letter as the one that appeared 3 letters ago.),X,None,,,,,,,,,0,15,15,15,0,9,9,9,,,,,,,,,,,,,,,,,,,,,,,,,,,,,,,,,,,,,,,,,,,,,,,,,,,,,,,,,,,,,,,,,,,,,1.3944,990.164816500037,None,None,1,990.164816500037,None,,P038,FENCOG,2,Post,2022_May_03_1253,N-Back (New Version 2021),2021.1.4,120.09040412947378,
,,,,Conditions/Version_1/threeback(4)_v1.xlsx,New rule: Press 'space' when you see 3-back (i.e. the same letter as the one that appeared 3 letters ago.),,,,,,,,,,,0,15,15,15,,,,,,,,,,,,,,,,,,,,,,,,,,,,,,,,,,,,,,,,,,,,,,,,,,,,,,,,,,,,,,,,,,,,,,,,,,,,,,,,,P038,FENCOG,2,Post,2022_May_03_1253,N-Back (New Version 2021),2021.1.4,120.09040412947378,
