CondFileP,InstructionsP,LettersDisplayedP,CorrectnessP,CondFile,Instructions,LettersDisplayed,Correctness,practicetrials.thisRepN,practicetrials.thisTrialN,practicetrials.thisN,practicetrials.thisIndex,InnerLoopPractice.thisRepN,InnerLoopPractice.thisTrialN,InnerLoopPractice.thisN,InnerLoopPractice.thisIndex,trials.thisRepN,trials.thisTrialN,trials.thisN,trials.thisIndex,InnerLoop.thisRepN,InnerLoop.thisTrialN,InnerLoop.thisN,InnerLoop.thisIndex,TaskVersionText.started,TaskVersionText.stopped,InstrKey1.keys,InstrKey1.rt,InstrKey1.started,InstrKey1.stopped,text.started,text.stopped,key_resp_4.keys,key_resp_4.rt,key_resp_4.started,key_resp_4.stopped,text_2.started,text_2.stopped,key_resp_3.keys,key_resp_3.rt,key_resp_3.started,key_resp_3.stopped,text_3.started,text_3.stopped,key_resp_2.keys,key_resp_2.rt,key_resp_2.started,key_resp_2.stopped,PractIn1.started,PractIn1.stopped,PractIn2.started,PractIn2.stopped,PractInstructionPass.keys,PractInstructionPass.rt,PractInstructionPass.started,PractInstructionPass.stopped,PractBlock1.started,PractBlock1.stopped,ISIjitterPractice,ISI_Pract_Fixation.started,ISI_Pract_Fixation.stopped,N_backP.started,N_backP.stopped,KeyPractice.keys,KeyPractice.corr,KeyPractice.rt,KeyPractice.started,KeyPractice.stopped,text_4.started,text_4.stopped,TransitionText.started,TransitionText.stopped,key_resp_6.keys,key_resp_6.rt,key_resp_6.started,key_resp_6.stopped,text_5.started,text_5.stopped,key_resp_5.keys,key_resp_5.rt,key_resp_5.started,key_resp_5.stopped,MainInt1.started,MainInt1.stopped,MainInt2.started,MainInt2.stopped,InstructionPass.keys,InstructionPass.rt,InstructionPass.started,InstructionPass.stopped,Blocks1.started,Blocks1.stopped,ISIjitter,N_backD.started,N_backD.stopped,key_resp.keys,key_resp.corr,key_resp.started,key_resp.stopped,key_resp.rt,participant,Study Name,Task Version (required to run),PRE/POST,date,expName,psychopyVersion,frameRate,
,,,,,,,,,,,,,,,,,,,,,,,,148.47697610000068,None,space,249.33101160000024,148.97025310000026,None,,,,,,,,,,,,,,,,,,,,,,,,,,,,,,,,,,,,,,,,,,,,,,,,,,,,,,,,,,,,,,,,,,,,,,,P039,FENCOG,2,Pre,2022_Apr_27_1125,N-Back (New Version 2021),2021.1.4,120.57315655725225,
,,,,,,,,,,,,,,,,,,,,,,,,,,,,,,398.3375668000008,None,space,10.205200200000036,398.8304670000007,None,,,,,,,,,,,,,,,,,,,,,,,,,,,,,,,,,,,,,,,,,,,,,,,,,,,,,,,,,,,,,,,,,P039,FENCOG,2,Pre,2022_Apr_27_1125,N-Back (New Version 2021),2021.1.4,120.57315655725225,
,,,,,,,,,,,,,,,,,,,,,,,,,,,,,,,,,,,,409.0660521,None,space,16.098603499999626,409.56126830000085,None,,,,,,,,,,,,,,,,,,,,,,,,,,,,,,,,,,,,,,,,,,,,,,,,,,,,,,,,,,,P039,FENCOG,2,Pre,2022_Apr_27_1125,N-Back (New Version 2021),2021.1.4,120.57315655725225,
,,,,,,,,,,,,,,,,,,,,,,,,,,,,,,,,,,,,,,,,,,425.6905346000003,None,space,6.3665158999992855,426.1811750000006,None,,,,,,,,,,,,,,,,,,,,,,,,,,,,,,,,,,,,,,,,,,,,,,,,,,,,,P039,FENCOG,2,Pre,2022_Apr_27_1125,N-Back (New Version 2021),2021.1.4,120.57315655725225,
Conditions/Version_2Pr/zeroback(1)_v2.xlsx,Rule: Press 'space' when you see the letter 'x' or 'X'.,x,space,,,,,0,0,0,0,0,0,0,0,,,,,,,,,,,,,,,,,,,,,,,,,,,,,,,,,433.93621770000027,None,436.92058930000076,None,space,1.4354874999999083,436.92058930000076,None,433.93621770000027,None,1.24,438.3956790000002,None,439.64174620000085,None,space,1,0.3219935999995869,439.64174620000085,None,439.98169490000055,None,,,,,,,,,,,,,,,,,,,,,,,,,,,,,,,P039,FENCOG,2,Pre,2022_Apr_27_1125,N-Back (New Version 2021),2021.1.4,120.57315655725225,
Conditions/Version_2Pr/zeroback(1)_v2.xlsx,Rule: Press 'space' when you see the letter 'x' or 'X'.,R,None,,,,,0,0,0,0,0,1,1,1,,,,,,,,,,,,,,,,,,,,,,,,,,,,,,,,,,,,,,,,,,,1.04,441.4840821000007,None,442.5292621000008,None,None,1,,442.5292621000008,None,444.5333518000007,None,,,,,,,,,,,,,,,,,,,,,,,,,,,,,,,P039,FENCOG,2,Pre,2022_Apr_27_1125,N-Back (New Version 2021),2021.1.4,120.57315655725225,
Conditions/Version_2Pr/zeroback(1)_v2.xlsx,Rule: Press 'space' when you see the letter 'x' or 'X'.,p,None,,,,,0,0,0,0,0,2,2,2,,,,,,,,,,,,,,,,,,,,,,,,,,,,,,,,,,,,,,,,,,,1.615,446.0329234000001,None,447.6496865000008,None,None,1,,447.6496865000008,None,449.6564233000008,None,,,,,,,,,,,,,,,,,,,,,,,,,,,,,,,P039,FENCOG,2,Pre,2022_Apr_27_1125,N-Back (New Version 2021),2021.1.4,120.57315655725225,
Conditions/Version_2Pr/zeroback(1)_v2.xlsx,Rule: Press 'space' when you see the letter 'x' or 'X'.,O,None,,,,,0,0,0,0,0,3,3,3,,,,,,,,,,,,,,,,,,,,,,,,,,,,,,,,,,,,,,,,,,,1.14,451.1563105000005,None,452.29786720000084,None,None,1,,452.29786720000084,None,454.29708310000024,None,,,,,,,,,,,,,,,,,,,,,,,,,,,,,,,P039,FENCOG,2,Pre,2022_Apr_27_1125,N-Back (New Version 2021),2021.1.4,120.57315655725225,
Conditions/Version_2Pr/zeroback(1)_v2.xlsx,Rule: Press 'space' when you see the letter 'x' or 'X'.,i,None,,,,,0,0,0,0,0,4,4,4,,,,,,,,,,,,,,,,,,,,,,,,,,,,,,,,,,,,,,,,,,,1.265,455.79663419999997,None,457.0645198000002,None,None,1,,457.0645198000002,None,459.07075840000016,None,,,,,,,,,,,,,,,,,,,,,,,,,,,,,,,P039,FENCOG,2,Pre,2022_Apr_27_1125,N-Back (New Version 2021),2021.1.4,120.57315655725225,
Conditions/Version_2Pr/zeroback(1)_v2.xlsx,Rule: Press 'space' when you see the letter 'x' or 'X'.,U,None,,,,,0,0,0,0,0,5,5,5,,,,,,,,,,,,,,,,,,,,,,,,,,,,,,,,,,,,,,,,,,,1.34,460.57019990000026,None,461.9134019000003,None,None,1,,461.9134019000003,None,463.91810820000046,None,,,,,,,,,,,,,,,,,,,,,,,,,,,,,,,P039,FENCOG,2,Pre,2022_Apr_27_1125,N-Back (New Version 2021),2021.1.4,120.57315655725225,
Conditions/Version_2Pr/zeroback(1)_v2.xlsx,Rule: Press 'space' when you see the letter 'x' or 'X'.,N,None,,,,,0,0,0,0,0,6,6,6,,,,,,,,,,,,,,,,,,,,,,,,,,,,,,,,,,,,,,,,,,,1.415,465.4188386000005,None,466.8382408000007,None,None,1,,466.8382408000007,None,468.8433386000006,None,,,,,,,,,,,,,,,,,,,,,,,,,,,,,,,P039,FENCOG,2,Pre,2022_Apr_27_1125,N-Back (New Version 2021),2021.1.4,120.57315655725225,
Conditions/Version_2Pr/zeroback(1)_v2.xlsx,Rule: Press 'space' when you see the letter 'x' or 'X'.,m,None,,,,,0,0,0,0,0,7,7,7,,,,,,,,,,,,,,,,,,,,,,,,,,,,,,,,,,,,,,,,,,,1.365,470.34238560000085,None,471.70922450000035,None,None,1,,471.70922450000035,None,473.71624560000055,None,,,,,,,,,,,,,,,,,,,,,,,,,,,,,,,P039,FENCOG,2,Pre,2022_Apr_27_1125,N-Back (New Version 2021),2021.1.4,120.57315655725225,
Conditions/Version_2Pr/zeroback(1)_v2.xlsx,Rule: Press 'space' when you see the letter 'x' or 'X'.,x,space,,,,,0,0,0,0,0,8,8,8,,,,,,,,,,,,,,,,,,,,,,,,,,,,,,,,,,,,,,,,,,,1.89,475.2159330000004,None,477.11075170000004,None,space,1,0.5256896000000779,477.11075170000004,None,477.6443246000008,None,,,,,,,,,,,,,,,,,,,,,,,,,,,,,,,P039,FENCOG,2,Pre,2022_Apr_27_1125,N-Back (New Version 2021),2021.1.4,120.57315655725225,
Conditions/Version_2Pr/zeroback(1)_v2.xlsx,Rule: Press 'space' when you see the letter 'x' or 'X'.,X,space,,,,,0,0,0,0,0,9,9,9,,,,,,,,,,,,,,,,,,,,,,,,,,,,,,,,,,,,,,,,,,,1.915,479.1481698000007,None,481.06489150000016,None,space,1,0.5229951000001165,481.06489150000016,None,481.59926280000036,None,,,,,,,,,,,,,,,,,,,,,,,,,,,,,,,P039,FENCOG,2,Pre,2022_Apr_27_1125,N-Back (New Version 2021),2021.1.4,120.57315655725225,
Conditions/Version_2Pr/zeroback(1)_v2.xlsx,Rule: Press 'space' when you see the letter 'x' or 'X'.,,,,,,,0,0,0,0,,,,,,,,,,,,,,,,,,,,,,,,,,,,,,,,,,,,,,,,,,,,,,,,,,,,,,,,,,,,,,,,,,,,,,,,,,,,,,,,,,,,,,,,,P039,FENCOG,2,Pre,2022_Apr_27_1125,N-Back (New Version 2021),2021.1.4,120.57315655725225,
Conditions/Version_2Pr/oneback(1)_v2.xlsx,New rule: Press 'space' when you see 1-back (i.e. the same letter as the one that appeared 1 letter ago.),r,None,,,,,0,1,1,1,0,0,0,0,,,,,,,,,,,,,,,,,,,,,,,,,,,,,,,,,483.12737600000037,None,486.1145238000008,None,space,3.0816843000002336,486.1145238000008,None,483.12737600000037,None,1.365,489.22889790000045,None,490.60510030000023,None,None,1,,490.60510030000023,None,492.5991726000002,None,,,,,,,,,,,,,,,,,,,,,,,,,,,,,,,P039,FENCOG,2,Pre,2022_Apr_27_1125,N-Back (New Version 2021),2021.1.4,120.57315655725225,
Conditions/Version_2Pr/oneback(1)_v2.xlsx,New rule: Press 'space' when you see 1-back (i.e. the same letter as the one that appeared 1 letter ago.),t,None,,,,,0,1,1,1,0,1,1,1,,,,,,,,,,,,,,,,,,,,,,,,,,,,,,,,,,,,,,,,,,,1.84,494.1019096,None,495.9433747000003,None,None,1,,495.9433747000003,None,497.94248810000045,None,,,,,,,,,,,,,,,,,,,,,,,,,,,,,,,P039,FENCOG,2,Pre,2022_Apr_27_1125,N-Back (New Version 2021),2021.1.4,120.57315655725225,
Conditions/Version_2Pr/oneback(1)_v2.xlsx,New rule: Press 'space' when you see 1-back (i.e. the same letter as the one that appeared 1 letter ago.),Y,None,,,,,0,1,1,1,0,2,2,2,,,,,,,,,,,,,,,,,,,,,,,,,,,,,,,,,,,,,,,,,,,1.965,499.4443301000001,None,501.41830740000023,None,None,1,,501.41830740000023,None,503.4243030000007,None,,,,,,,,,,,,,,,,,,,,,,,,,,,,,,,P039,FENCOG,2,Pre,2022_Apr_27_1125,N-Back (New Version 2021),2021.1.4,120.57315655725225,
Conditions/Version_2Pr/oneback(1)_v2.xlsx,New rule: Press 'space' when you see 1-back (i.e. the same letter as the one that appeared 1 letter ago.),y,space,,,,,0,1,1,1,0,3,3,3,,,,,,,,,,,,,,,,,,,,,,,,,,,,,,,,,,,,,,,,,,,1.065,504.9238729000008,None,505.99586760000057,None,space,1,0.3600138000001607,505.99586760000057,None,506.3667623000001,None,,,,,,,,,,,,,,,,,,,,,,,,,,,,,,,P039,FENCOG,2,Pre,2022_Apr_27_1125,N-Back (New Version 2021),2021.1.4,120.57315655725225,
Conditions/Version_2Pr/oneback(1)_v2.xlsx,New rule: Press 'space' when you see 1-back (i.e. the same letter as the one that appeared 1 letter ago.),p,None,,,,,0,1,1,1,0,4,4,4,,,,,,,,,,,,,,,,,,,,,,,,,,,,,,,,,,,,,,,,,,,1.74,507.87303430000065,None,509.6148535000002,None,None,1,,509.6148535000002,None,511.6219428000004,None,,,,,,,,,,,,,,,,,,,,,,,,,,,,,,,P039,FENCOG,2,Pre,2022_Apr_27_1125,N-Back (New Version 2021),2021.1.4,120.57315655725225,
Conditions/Version_2Pr/oneback(1)_v2.xlsx,New rule: Press 'space' when you see 1-back (i.e. the same letter as the one that appeared 1 letter ago.),P,space,,,,,0,1,1,1,0,5,5,5,,,,,,,,,,,,,,,,,,,,,,,,,,,,,,,,,,,,,,,,,,,1.165,513.1215311000005,None,514.2896989000001,None,space,1,0.36259010000048875,514.2896989000001,None,514.6687201000004,None,,,,,,,,,,,,,,,,,,,,,,,,,,,,,,,P039,FENCOG,2,Pre,2022_Apr_27_1125,N-Back (New Version 2021),2021.1.4,120.57315655725225,
Conditions/Version_2Pr/oneback(1)_v2.xlsx,New rule: Press 'space' when you see 1-back (i.e. the same letter as the one that appeared 1 letter ago.),e,None,,,,,0,1,1,1,0,6,6,6,,,,,,,,,,,,,,,,,,,,,,,,,,,,,,,,,,,,,,,,,,,1.09,516.1704916000008,None,517.2633456000003,None,None,1,,517.2633456000003,None,519.2697114000002,None,,,,,,,,,,,,,,,,,,,,,,,,,,,,,,,P039,FENCOG,2,Pre,2022_Apr_27_1125,N-Back (New Version 2021),2021.1.4,120.57315655725225,
Conditions/Version_2Pr/oneback(1)_v2.xlsx,New rule: Press 'space' when you see 1-back (i.e. the same letter as the one that appeared 1 letter ago.),r,None,,,,,0,1,1,1,0,7,7,7,,,,,,,,,,,,,,,,,,,,,,,,,,,,,,,,,,,,,,,,,,,1.415,520.7693064000005,None,522.1852666000004,None,None,1,,522.1852666000004,None,524.1849893000008,None,,,,,,,,,,,,,,,,,,,,,,,,,,,,,,,P039,FENCOG,2,Pre,2022_Apr_27_1125,N-Back (New Version 2021),2021.1.4,120.57315655725225,
Conditions/Version_2Pr/oneback(1)_v2.xlsx,New rule: Press 'space' when you see 1-back (i.e. the same letter as the one that appeared 1 letter ago.),R,space,,,,,0,1,1,1,0,8,8,8,,,,,,,,,,,,,,,,,,,,,,,,,,,,,,,,,,,,,,,,,,,2.015,525.6842690000003,None,527.7003176000007,None,space,1,0.36762829999952373,527.7003176000007,None,528.0766038000002,None,,,,,,,,,,,,,,,,,,,,,,,,,,,,,,,P039,FENCOG,2,Pre,2022_Apr_27_1125,N-Back (New Version 2021),2021.1.4,120.57315655725225,
Conditions/Version_2Pr/oneback(1)_v2.xlsx,New rule: Press 'space' when you see 1-back (i.e. the same letter as the one that appeared 1 letter ago.),p,None,,,,,0,1,1,1,0,9,9,9,,,,,,,,,,,,,,,,,,,,,,,,,,,,,,,,,,,,,,,,,,,1.265,529.5833272,None,530.8506928000006,None,None,1,,530.8506928000006,None,532.8574137000005,None,,,,,,,,,,,,,,,,,,,,,,,,,,,,,,,P039,FENCOG,2,Pre,2022_Apr_27_1125,N-Back (New Version 2021),2021.1.4,120.57315655725225,
Conditions/Version_2Pr/oneback(1)_v2.xlsx,New rule: Press 'space' when you see 1-back (i.e. the same letter as the one that appeared 1 letter ago.),,,,,,,0,1,1,1,,,,,,,,,,,,,,,,,,,,,,,,,,,,,,,,,,,,,,,,,,,,,,,,,,,,,,,,,,,,,,,,,,,,,,,,,,,,,,,,,,,,,,,,,P039,FENCOG,2,Pre,2022_Apr_27_1125,N-Back (New Version 2021),2021.1.4,120.57315655725225,
Conditions/Version_2Pr/twoback(1)_v2.xlsx,New rule: Press 'space' when you see 2-back (i.e. the same letter as the one that appeared 2 letters ago.),r,None,,,,,0,2,2,2,0,0,0,0,,,,,,,,,,,,,,,,,,,,,,,,,,,,,,,,,534.3968304,None,537.3833138,None,space,1.1408320000000458,537.3833138,None,534.3968304,None,1.765,538.5489237000002,None,540.3143366000004,None,None,1,,540.3143366000004,None,542.3213277000004,None,,,,,,,,,,,,,,,,,,,,,,,,,,,,,,,P039,FENCOG,2,Pre,2022_Apr_27_1125,N-Back (New Version 2021),2021.1.4,120.57315655725225,
Conditions/Version_2Pr/twoback(1)_v2.xlsx,New rule: Press 'space' when you see 2-back (i.e. the same letter as the one that appeared 2 letters ago.),P,None,,,,,0,2,2,2,0,1,1,1,,,,,,,,,,,,,,,,,,,,,,,,,,,,,,,,,,,,,,,,,,,1.04,543.8208550000008,None,544.8629084000004,None,None,1,,544.8629084000004,None,546.8622685,None,,,,,,,,,,,,,,,,,,,,,,,,,,,,,,,P039,FENCOG,2,Pre,2022_Apr_27_1125,N-Back (New Version 2021),2021.1.4,120.57315655725225,
Conditions/Version_2Pr/twoback(1)_v2.xlsx,New rule: Press 'space' when you see 2-back (i.e. the same letter as the one that appeared 2 letters ago.),o,None,,,,,0,2,2,2,0,2,2,2,,,,,,,,,,,,,,,,,,,,,,,,,,,,,,,,,,,,,,,,,,,1.69,548.3607863000007,None,550.0539512000005,None,None,1,,550.0539512000005,None,552.0601091000008,None,,,,,,,,,,,,,,,,,,,,,,,,,,,,,,,P039,FENCOG,2,Pre,2022_Apr_27_1125,N-Back (New Version 2021),2021.1.4,120.57315655725225,
Conditions/Version_2Pr/twoback(1)_v2.xlsx,New rule: Press 'space' when you see 2-back (i.e. the same letter as the one that appeared 2 letters ago.),p,space,,,,,0,2,2,2,0,3,3,3,,,,,,,,,,,,,,,,,,,,,,,,,,,,,,,,,,,,,,,,,,,1.365,553.5596381000005,None,554.9294894000004,None,space,1,0.3466396000003442,554.9294894000004,None,555.2957104000006,None,,,,,,,,,,,,,,,,,,,,,,,,,,,,,,,P039,FENCOG,2,Pre,2022_Apr_27_1125,N-Back (New Version 2021),2021.1.4,120.57315655725225,
Conditions/Version_2Pr/twoback(1)_v2.xlsx,New rule: Press 'space' when you see 2-back (i.e. the same letter as the one that appeared 2 letters ago.),Y,None,,,,,0,2,2,2,0,4,4,4,,,,,,,,,,,,,,,,,,,,,,,,,,,,,,,,,,,,,,,,,,,1.565,556.8022334000007,None,558.3699065000001,None,None,1,,558.3699065000001,None,560.3743784000008,None,,,,,,,,,,,,,,,,,,,,,,,,,,,,,,,P039,FENCOG,2,Pre,2022_Apr_27_1125,N-Back (New Version 2021),2021.1.4,120.57315655725225,
Conditions/Version_2Pr/twoback(1)_v2.xlsx,New rule: Press 'space' when you see 2-back (i.e. the same letter as the one that appeared 2 letters ago.),q,None,,,,,0,2,2,2,0,5,5,5,,,,,,,,,,,,,,,,,,,,,,,,,,,,,,,,,,,,,,,,,,,1.89,561.8739170000008,None,563.7649607000003,None,space,0,0.3588573999995788,563.7649607000003,None,564.1373419000001,None,,,,,,,,,,,,,,,,,,,,,,,,,,,,,,,P039,FENCOG,2,Pre,2022_Apr_27_1125,N-Back (New Version 2021),2021.1.4,120.57315655725225,
Conditions/Version_2Pr/twoback(1)_v2.xlsx,New rule: Press 'space' when you see 2-back (i.e. the same letter as the one that appeared 2 letters ago.),m,None,,,,,0,2,2,2,0,6,6,6,,,,,,,,,,,,,,,,,,,,,,,,,,,,,,,,,,,,,,,,,,,1.34,565.6394127000003,None,566.9818597000003,None,None,1,,566.9818597000003,None,568.9896585000006,None,,,,,,,,,,,,,,,,,,,,,,,,,,,,,,,P039,FENCOG,2,Pre,2022_Apr_27_1125,N-Back (New Version 2021),2021.1.4,120.57315655725225,
Conditions/Version_2Pr/twoback(1)_v2.xlsx,New rule: Press 'space' when you see 2-back (i.e. the same letter as the one that appeared 2 letters ago.),Q,space,,,,,0,2,2,2,0,7,7,7,,,,,,,,,,,,,,,,,,,,,,,,,,,,,,,,,,,,,,,,,,,1.465,570.4880417000004,None,571.9566934000004,None,space,1,0.4071631000006164,571.9566934000004,None,572.3723796000004,None,,,,,,,,,,,,,,,,,,,,,,,,,,,,,,,P039,FENCOG,2,Pre,2022_Apr_27_1125,N-Back (New Version 2021),2021.1.4,120.57315655725225,
Conditions/Version_2Pr/twoback(1)_v2.xlsx,New rule: Press 'space' when you see 2-back (i.e. the same letter as the one that appeared 2 letters ago.),L,None,,,,,0,2,2,2,0,8,8,8,,,,,,,,,,,,,,,,,,,,,,,,,,,,,,,,,,,,,,,,,,,1.39,573.8786737,None,575.2696293000008,None,None,1,,575.2696293000008,None,577.2691746,None,,,,,,,,,,,,,,,,,,,,,,,,,,,,,,,P039,FENCOG,2,Pre,2022_Apr_27_1125,N-Back (New Version 2021),2021.1.4,120.57315655725225,
Conditions/Version_2Pr/twoback(1)_v2.xlsx,New rule: Press 'space' when you see 2-back (i.e. the same letter as the one that appeared 2 letters ago.),q,space,,,,,0,2,2,2,0,9,9,9,,,,,,,,,,,,,,,,,,,,,,,,,,,,,,,,,,,,,,,,,,,1.24,578.7705119000002,None,580.0135903,None,space,1,0.3983112000005349,580.0135903,None,580.4281390000006,None,,,,,,,,,,,,,,,,,,,,,,,,,,,,,,,P039,FENCOG,2,Pre,2022_Apr_27_1125,N-Back (New Version 2021),2021.1.4,120.57315655725225,
Conditions/Version_2Pr/twoback(1)_v2.xlsx,New rule: Press 'space' when you see 2-back (i.e. the same letter as the one that appeared 2 letters ago.),,,,,,,0,2,2,2,,,,,,,,,,,,,,,,,,,,,,,,,,,,,,,,,,,,,,,,,,,,,,,,,,,,,,,,,,,,,,,,,,,,,,,,,,,,,,,,,,,,,,,,,P039,FENCOG,2,Pre,2022_Apr_27_1125,N-Back (New Version 2021),2021.1.4,120.57315655725225,
Conditions/Version_2Pr/threeback(1)_v2.xlsx,New rule: Press 'space' when you see 3-back (i.e. the same letter as the one that appeared 3 letters ago.),u,None,,,,,0,3,3,3,0,0,0,0,,,,,,,,,,,,,,,,,,,,,,,,,,,,,,,,,581.9553079000007,None,584.9449458000008,None,space,0.6349448999999368,584.9449458000008,None,581.9553079000007,None,1.065,585.6160774,None,586.6853295000001,None,None,1,,586.6853295000001,None,588.6909829000006,None,,,,,,,,,,,,,,,,,,,,,,,,,,,,,,,P039,FENCOG,2,Pre,2022_Apr_27_1125,N-Back (New Version 2021),2021.1.4,120.57315655725225,
Conditions/Version_2Pr/threeback(1)_v2.xlsx,New rule: Press 'space' when you see 3-back (i.e. the same letter as the one that appeared 3 letters ago.),U,None,,,,,0,3,3,3,0,1,1,1,,,,,,,,,,,,,,,,,,,,,,,,,,,,,,,,,,,,,,,,,,,1.415,590.1905210000004,None,591.6066504,None,None,1,,591.6066504,None,593.6063841000005,None,,,,,,,,,,,,,,,,,,,,,,,,,,,,,,,P039,FENCOG,2,Pre,2022_Apr_27_1125,N-Back (New Version 2021),2021.1.4,120.57315655725225,
Conditions/Version_2Pr/threeback(1)_v2.xlsx,New rule: Press 'space' when you see 3-back (i.e. the same letter as the one that appeared 3 letters ago.),p,None,,,,,0,3,3,3,0,2,2,2,,,,,,,,,,,,,,,,,,,,,,,,,,,,,,,,,,,,,,,,,,,1.965,595.1056549000004,None,597.0756666000007,None,None,1,,597.0756666000007,None,599.0796432000006,None,,,,,,,,,,,,,,,,,,,,,,,,,,,,,,,P039,FENCOG,2,Pre,2022_Apr_27_1125,N-Back (New Version 2021),2021.1.4,120.57315655725225,
Conditions/Version_2Pr/threeback(1)_v2.xlsx,New rule: Press 'space' when you see 3-back (i.e. the same letter as the one that appeared 3 letters ago.),U,space,,,,,0,3,3,3,0,3,3,3,,,,,,,,,,,,,,,,,,,,,,,,,,,,,,,,,,,,,,,,,,,1.69,600.5792270000002,None,602.2710593000002,None,space,1,0.5247530000006009,602.2710593000002,None,602.8042857,None,,,,,,,,,,,,,,,,,,,,,,,,,,,,,,,P039,FENCOG,2,Pre,2022_Apr_27_1125,N-Back (New Version 2021),2021.1.4,120.57315655725225,
Conditions/Version_2Pr/threeback(1)_v2.xlsx,New rule: Press 'space' when you see 3-back (i.e. the same letter as the one that appeared 3 letters ago.),e,None,,,,,0,3,3,3,0,4,4,4,,,,,,,,,,,,,,,,,,,,,,,,,,,,,,,,,,,,,,,,,,,1.94,604.3114407000003,None,606.2539142000005,None,None,1,,606.2539142000005,None,608.2601266000001,None,,,,,,,,,,,,,,,,,,,,,,,,,,,,,,,P039,FENCOG,2,Pre,2022_Apr_27_1125,N-Back (New Version 2021),2021.1.4,120.57315655725225,
Conditions/Version_2Pr/threeback(1)_v2.xlsx,New rule: Press 'space' when you see 3-back (i.e. the same letter as the one that appeared 3 letters ago.),R,None,,,,,0,3,3,3,0,5,5,5,,,,,,,,,,,,,,,,,,,,,,,,,,,,,,,,,,,,,,,,,,,1.64,609.7597739000003,None,611.4007369000001,None,None,1,,611.4007369000001,None,613.4012339000001,None,,,,,,,,,,,,,,,,,,,,,,,,,,,,,,,P039,FENCOG,2,Pre,2022_Apr_27_1125,N-Back (New Version 2021),2021.1.4,120.57315655725225,
Conditions/Version_2Pr/threeback(1)_v2.xlsx,New rule: Press 'space' when you see 3-back (i.e. the same letter as the one that appeared 3 letters ago.),p,None,,,,,0,3,3,3,0,6,6,6,,,,,,,,,,,,,,,,,,,,,,,,,,,,,,,,,,,,,,,,,,,1.99,614.9082172000008,None,616.9001436000008,None,None,1,,616.9001436000008,None,618.9090051000003,None,,,,,,,,,,,,,,,,,,,,,,,,,,,,,,,P039,FENCOG,2,Pre,2022_Apr_27_1125,N-Back (New Version 2021),2021.1.4,120.57315655725225,
Conditions/Version_2Pr/threeback(1)_v2.xlsx,New rule: Press 'space' when you see 3-back (i.e. the same letter as the one that appeared 3 letters ago.),E,space,,,,,0,3,3,3,0,7,7,7,,,,,,,,,,,,,,,,,,,,,,,,,,,,,,,,,,,,,,,,,,,1.29,620.4066348000006,None,621.7070659000001,None,space,1,0.85692729999937,621.7070659000001,None,622.5732862000004,None,,,,,,,,,,,,,,,,,,,,,,,,,,,,,,,P039,FENCOG,2,Pre,2022_Apr_27_1125,N-Back (New Version 2021),2021.1.4,120.57315655725225,
Conditions/Version_2Pr/threeback(1)_v2.xlsx,New rule: Press 'space' when you see 3-back (i.e. the same letter as the one that appeared 3 letters ago.),k,None,,,,,0,3,3,3,0,8,8,8,,,,,,,,,,,,,,,,,,,,,,,,,,,,,,,,,,,,,,,,,,,1.165,624.0805966000007,None,625.2488217,None,None,1,,625.2488217,None,627.2548773000008,None,,,,,,,,,,,,,,,,,,,,,,,,,,,,,,,P039,FENCOG,2,Pre,2022_Apr_27_1125,N-Back (New Version 2021),2021.1.4,120.57315655725225,
Conditions/Version_2Pr/threeback(1)_v2.xlsx,New rule: Press 'space' when you see 3-back (i.e. the same letter as the one that appeared 3 letters ago.),m,None,,,,,0,3,3,3,0,9,9,9,,,,,,,,,,,,,,,,,,,,,,,,,,,,,,,,,,,,,,,,,,,1.465,628.7542566000002,None,630.2203656000002,None,None,1,,630.2203656000002,None,632.2195711000004,None,,,,,,,,,,,,,,,,,,,,,,,,,,,,,,,P039,FENCOG,2,Pre,2022_Apr_27_1125,N-Back (New Version 2021),2021.1.4,120.57315655725225,
Conditions/Version_2Pr/threeback(1)_v2.xlsx,New rule: Press 'space' when you see 3-back (i.e. the same letter as the one that appeared 3 letters ago.),,,,,,,0,3,3,3,,,,,,,,,,,,,,,,,,,,,,,,,,,,,,,,,,,,,,,,,,,,,,,,,,,,,,,,,,,,,,,,,,,,,,,,,,,,,,,,,,,,,,,,,P039,FENCOG,2,Pre,2022_Apr_27_1125,N-Back (New Version 2021),2021.1.4,120.57315655725225,
,,,,,,,,,,,,,,,,,,,,,,,,,,,,,,,,,,,,,,,,,,,,,,,,,,,,,,,,,,,,,,,,,,,,,,633.7324501000003,None,space,9.751948899999661,634.2279125000005,None,,,,,,,,,,,,,,,,,,,,,,,,,P039,FENCOG,2,Pre,2022_Apr_27_1125,N-Back (New Version 2021),2021.1.4,120.57315655725225,
,,,,,,,,,,,,,,,,,,,,,,,,,,,,,,,,,,,,,,,,,,,,,,,,,,,,,,,,,,,,,,,,,,,,,,,,,,,,644.0058144000004,None,space,5.591972400000486,644.5001937000006,None,,,,,,,,,,,,,,,,,,,P039,FENCOG,2,Pre,2022_Apr_27_1125,N-Back (New Version 2021),2021.1.4,120.57315655725225,
,,,,Conditions/Version_1/zeroback(1)_v1.xlsx,Rule: Press 'space' when you see the letter 'x' or 'X'.,b,None,,,,,,,,,0,0,0,0,0,0,0,0,,,,,,,,,,,,,,,,,,,,,,,,,,,,,,,,,,,,,,,,,,,,,,,,,,,,,,,,,,,650.2122839000003,None,653.1983635000006,None,space,5.197618899999725,653.1983635000006,None,650.2122839000003,None,1.5432,659.9813404000006,None,None,1,659.9813404000006,None,,P039,FENCOG,2,Pre,2022_Apr_27_1125,N-Back (New Version 2021),2021.1.4,120.57315655725225,
,,,,Conditions/Version_1/zeroback(1)_v1.xlsx,Rule: Press 'space' when you see the letter 'x' or 'X'.,T,None,,,,,,,,,0,0,0,0,0,1,1,1,,,,,,,,,,,,,,,,,,,,,,,,,,,,,,,,,,,,,,,,,,,,,,,,,,,,,,,,,,,,,,,,,,,,,1.1526,663.1458487,None,None,1,663.1458487,None,,P039,FENCOG,2,Pre,2022_Apr_27_1125,N-Back (New Version 2021),2021.1.4,120.57315655725225,
,,,,Conditions/Version_1/zeroback(1)_v1.xlsx,Rule: Press 'space' when you see the letter 'x' or 'X'.,L,None,,,,,,,,,0,0,0,0,0,2,2,2,,,,,,,,,,,,,,,,,,,,,,,,,,,,,,,,,,,,,,,,,,,,,,,,,,,,,,,,,,,,,,,,,,,,,1.909,667.0678513000003,None,None,1,667.0678513000003,None,,P039,FENCOG,2,Pre,2022_Apr_27_1125,N-Back (New Version 2021),2021.1.4,120.57315655725225,
,,,,Conditions/Version_1/zeroback(1)_v1.xlsx,Rule: Press 'space' when you see the letter 'x' or 'X'.,x,space,,,,,,,,,0,0,0,0,0,3,3,3,,,,,,,,,,,,,,,,,,,,,,,,,,,,,,,,,,,,,,,,,,,,,,,,,,,,,,,,,,,,,,,,,,,,,1.5804,670.6503593000007,None,space,1,670.6503593000007,None,0.4016284999997879,P039,FENCOG,2,Pre,2022_Apr_27_1125,N-Back (New Version 2021),2021.1.4,120.57315655725225,
,,,,Conditions/Version_1/zeroback(1)_v1.xlsx,Rule: Press 'space' when you see the letter 'x' or 'X'.,o,None,,,,,,,,,0,0,0,0,0,4,4,4,,,,,,,,,,,,,,,,,,,,,,,,,,,,,,,,,,,,,,,,,,,,,,,,,,,,,,,,,,,,,,,,,,,,,1.94,674.5995166000002,None,None,1,674.5995166000002,None,,P039,FENCOG,2,Pre,2022_Apr_27_1125,N-Back (New Version 2021),2021.1.4,120.57315655725225,
,,,,Conditions/Version_1/zeroback(1)_v1.xlsx,Rule: Press 'space' when you see the letter 'x' or 'X'.,P,None,,,,,,,,,0,0,0,0,0,5,5,5,,,,,,,,,,,,,,,,,,,,,,,,,,,,,,,,,,,,,,,,,,,,,,,,,,,,,,,,,,,,,,,,,,,,,1.4502,678.0478826000008,None,None,1,678.0478826000008,None,,P039,FENCOG,2,Pre,2022_Apr_27_1125,N-Back (New Version 2021),2021.1.4,120.57315655725225,
,,,,Conditions/Version_1/zeroback(1)_v1.xlsx,Rule: Press 'space' when you see the letter 'x' or 'X'.,X,space,,,,,,,,,0,0,0,0,0,6,6,6,,,,,,,,,,,,,,,,,,,,,,,,,,,,,,,,,,,,,,,,,,,,,,,,,,,,,,,,,,,,,,,,,,,,,1.6796,681.7301614000007,None,space,1,681.7301614000007,None,0.40186000000085187,P039,FENCOG,2,Pre,2022_Apr_27_1125,N-Back (New Version 2021),2021.1.4,120.57315655725225,
,,,,Conditions/Version_1/zeroback(1)_v1.xlsx,Rule: Press 'space' when you see the letter 'x' or 'X'.,n,None,,,,,,,,,0,0,0,0,0,7,7,7,,,,,,,,,,,,,,,,,,,,,,,,,,,,,,,,,,,,,,,,,,,,,,,,,,,,,,,,,,,,,,,,,,,,,1.444,685.1797032000004,None,None,1,685.1797032000004,None,,P039,FENCOG,2,Pre,2022_Apr_27_1125,N-Back (New Version 2021),2021.1.4,120.57315655725225,
,,,,Conditions/Version_1/zeroback(1)_v1.xlsx,Rule: Press 'space' when you see the letter 'x' or 'X'.,M,None,,,,,,,,,0,0,0,0,0,8,8,8,,,,,,,,,,,,,,,,,,,,,,,,,,,,,,,,,,,,,,,,,,,,,,,,,,,,,,,,,,,,,,,,,,,,,1.4936,688.6882077,None,None,1,688.6882077,None,,P039,FENCOG,2,Pre,2022_Apr_27_1125,N-Back (New Version 2021),2021.1.4,120.57315655725225,
,,,,Conditions/Version_1/zeroback(1)_v1.xlsx,Rule: Press 'space' when you see the letter 'x' or 'X'.,a,None,,,,,,,,,0,0,0,0,0,9,9,9,,,,,,,,,,,,,,,,,,,,,,,,,,,,,,,,,,,,,,,,,,,,,,,,,,,,,,,,,,,,,,,,,,,,,1.4626,692.1686133000003,None,None,1,692.1686133000003,None,,P039,FENCOG,2,Pre,2022_Apr_27_1125,N-Back (New Version 2021),2021.1.4,120.57315655725225,
,,,,Conditions/Version_1/zeroback(1)_v1.xlsx,Rule: Press 'space' when you see the letter 'x' or 'X'.,,,,,,,,,,,0,0,0,0,,,,,,,,,,,,,,,,,,,,,,,,,,,,,,,,,,,,,,,,,,,,,,,,,,,,,,,,,,,,,,,,,,,,,,,,,,,,,,,,,P039,FENCOG,2,Pre,2022_Apr_27_1125,N-Back (New Version 2021),2021.1.4,120.57315655725225,
,,,,Conditions/Version_1/oneback(1)_v1.xlsx,New rule: Press 'space' when you see 1-back (i.e. the same letter as the one that appeared 1 letter ago.),b,None,,,,,,,,,0,1,1,1,0,0,0,0,,,,,,,,,,,,,,,,,,,,,,,,,,,,,,,,,,,,,,,,,,,,,,,,,,,,,,,,,,,694.1897179000007,None,697.1772723000004,None,space,0.506725400000505,697.1772723000004,None,694.1897179000007,None,1.5618,699.2833410000003,None,None,1,699.2833410000003,None,,P039,FENCOG,2,Pre,2022_Apr_27_1125,N-Back (New Version 2021),2021.1.4,120.57315655725225,
,,,,Conditions/Version_1/oneback(1)_v1.xlsx,New rule: Press 'space' when you see 1-back (i.e. the same letter as the one that appeared 1 letter ago.),p,None,,,,,,,,,0,1,1,1,0,1,1,1,,,,,,,,,,,,,,,,,,,,,,,,,,,,,,,,,,,,,,,,,,,,,,,,,,,,,,,,,,,,,,,,,,,,,1.7974,703.0823819000007,None,None,1,703.0823819000007,None,,P039,FENCOG,2,Pre,2022_Apr_27_1125,N-Back (New Version 2021),2021.1.4,120.57315655725225,
,,,,Conditions/Version_1/oneback(1)_v1.xlsx,New rule: Press 'space' when you see 1-back (i.e. the same letter as the one that appeared 1 letter ago.),M,None,,,,,,,,,0,1,1,1,0,2,2,2,,,,,,,,,,,,,,,,,,,,,,,,,,,,,,,,,,,,,,,,,,,,,,,,,,,,,,,,,,,,,,,,,,,,,1.0906,706.1826389000007,None,None,1,706.1826389000007,None,,P039,FENCOG,2,Pre,2022_Apr_27_1125,N-Back (New Version 2021),2021.1.4,120.57315655725225,
,,,,Conditions/Version_1/oneback(1)_v1.xlsx,New rule: Press 'space' when you see 1-back (i.e. the same letter as the one that appeared 1 letter ago.),M,space,,,,,,,,,0,1,1,1,0,3,3,3,,,,,,,,,,,,,,,,,,,,,,,,,,,,,,,,,,,,,,,,,,,,,,,,,,,,,,,,,,,,,,,,,,,,,1.9896,710.1800569000006,None,space,1,710.1800569000006,None,0.512183200000436,P039,FENCOG,2,Pre,2022_Apr_27_1125,N-Back (New Version 2021),2021.1.4,120.57315655725225,
,,,,Conditions/Version_1/oneback(1)_v1.xlsx,New rule: Press 'space' when you see 1-back (i.e. the same letter as the one that appeared 1 letter ago.),n,None,,,,,,,,,0,1,1,1,0,4,4,4,,,,,,,,,,,,,,,,,,,,,,,,,,,,,,,,,,,,,,,,,,,,,,,,,,,,,,,,,,,,,,,,,,,,,1.4316,713.6128409000003,None,None,1,713.6128409000003,None,,P039,FENCOG,2,Pre,2022_Apr_27_1125,N-Back (New Version 2021),2021.1.4,120.57315655725225,
,,,,Conditions/Version_1/oneback(1)_v1.xlsx,New rule: Press 'space' when you see 1-back (i.e. the same letter as the one that appeared 1 letter ago.),g,None,,,,,,,,,0,1,1,1,0,5,5,5,,,,,,,,,,,,,,,,,,,,,,,,,,,,,,,,,,,,,,,,,,,,,,,,,,,,,,,,,,,,,,,,,,,,,1.2828,716.8959048000006,None,None,1,716.8959048000006,None,,P039,FENCOG,2,Pre,2022_Apr_27_1125,N-Back (New Version 2021),2021.1.4,120.57315655725225,
,,,,Conditions/Version_1/oneback(1)_v1.xlsx,New rule: Press 'space' when you see 1-back (i.e. the same letter as the one that appeared 1 letter ago.),P,None,,,,,,,,,0,1,1,1,0,6,6,6,,,,,,,,,,,,,,,,,,,,,,,,,,,,,,,,,,,,,,,,,,,,,,,,,,,,,,,,,,,,,,,,,,,,,1.7354,720.6437696000003,None,None,1,720.6437696000003,None,,P039,FENCOG,2,Pre,2022_Apr_27_1125,N-Back (New Version 2021),2021.1.4,120.57315655725225,
,,,,Conditions/Version_1/oneback(1)_v1.xlsx,New rule: Press 'space' when you see 1-back (i.e. the same letter as the one that appeared 1 letter ago.),o,None,,,,,,,,,0,1,1,1,0,7,7,7,,,,,,,,,,,,,,,,,,,,,,,,,,,,,,,,,,,,,,,,,,,,,,,,,,,,,,,,,,,,,,,,,,,,,1.7788,724.4309022000007,None,None,1,724.4309022000007,None,,P039,FENCOG,2,Pre,2022_Apr_27_1125,N-Back (New Version 2021),2021.1.4,120.57315655725225,
,,,,Conditions/Version_1/oneback(1)_v1.xlsx,New rule: Press 'space' when you see 1-back (i.e. the same letter as the one that appeared 1 letter ago.),f,None,,,,,,,,,0,1,1,1,0,8,8,8,,,,,,,,,,,,,,,,,,,,,,,,,,,,,,,,,,,,,,,,,,,,,,,,,,,,,,,,,,,,,,,,,,,,,1.413,727.8532779000006,None,None,1,727.8532779000006,None,,P039,FENCOG,2,Pre,2022_Apr_27_1125,N-Back (New Version 2021),2021.1.4,120.57315655725225,
,,,,Conditions/Version_1/oneback(1)_v1.xlsx,New rule: Press 'space' when you see 1-back (i.e. the same letter as the one that appeared 1 letter ago.),F,space,,,,,,,,,0,1,1,1,0,9,9,9,,,,,,,,,,,,,,,,,,,,,,,,,,,,,,,,,,,,,,,,,,,,,,,,,,,,,,,,,,,,,,,,,,,,,1.1154,730.9749660000007,None,space,1,730.9749660000007,None,0.3330267000001186,P039,FENCOG,2,Pre,2022_Apr_27_1125,N-Back (New Version 2021),2021.1.4,120.57315655725225,
,,,,Conditions/Version_1/oneback(1)_v1.xlsx,New rule: Press 'space' when you see 1-back (i.e. the same letter as the one that appeared 1 letter ago.),,,,,,,,,,,0,1,1,1,,,,,,,,,,,,,,,,,,,,,,,,,,,,,,,,,,,,,,,,,,,,,,,,,,,,,,,,,,,,,,,,,,,,,,,,,,,,,,,,,P039,FENCOG,2,Pre,2022_Apr_27_1125,N-Back (New Version 2021),2021.1.4,120.57315655725225,
,,,,Conditions/Version_1/twoback(1)_v1.xlsx,New rule: Press 'space' when you see 2-back (i.e. the same letter as the one that appeared 2 letters ago.),b,None,,,,,,,,,0,2,2,2,0,0,0,0,,,,,,,,,,,,,,,,,,,,,,,,,,,,,,,,,,,,,,,,,,,,,,,,,,,,,,,,,,,733.0081268000004,None,735.9917514000008,None,space,2.7644522999999026,735.9917514000008,None,733.0081268000004,None,1.5618,740.3586048000006,None,None,1,740.3586048000006,None,,P039,FENCOG,2,Pre,2022_Apr_27_1125,N-Back (New Version 2021),2021.1.4,120.57315655725225,
,,,,Conditions/Version_1/twoback(1)_v1.xlsx,New rule: Press 'space' when you see 2-back (i.e. the same letter as the one that appeared 2 letters ago.),h,None,,,,,,,,,0,2,2,2,0,1,1,1,,,,,,,,,,,,,,,,,,,,,,,,,,,,,,,,,,,,,,,,,,,,,,,,,,,,,,,,,,,,,,,,,,,,,1.3138,743.6803902000001,None,None,1,743.6803902000001,None,,P039,FENCOG,2,Pre,2022_Apr_27_1125,N-Back (New Version 2021),2021.1.4,120.57315655725225,
,,,,Conditions/Version_1/twoback(1)_v1.xlsx,New rule: Press 'space' when you see 2-back (i.e. the same letter as the one that appeared 2 letters ago.),j,None,,,,,,,,,0,2,2,2,0,2,2,2,,,,,,,,,,,,,,,,,,,,,,,,,,,,,,,,,,,,,,,,,,,,,,,,,,,,,,,,,,,,,,,,,,,,,1.2332,746.9210707000002,None,None,1,746.9210707000002,None,,P039,FENCOG,2,Pre,2022_Apr_27_1125,N-Back (New Version 2021),2021.1.4,120.57315655725225,
,,,,Conditions/Version_1/twoback(1)_v1.xlsx,New rule: Press 'space' when you see 2-back (i.e. the same letter as the one that appeared 2 letters ago.),H,space,,,,,,,,,0,2,2,2,0,3,3,3,,,,,,,,,,,,,,,,,,,,,,,,,,,,,,,,,,,,,,,,,,,,,,,,,,,,,,,,,,,,,,,,,,,,,1.2828,750.2167844000005,None,space,1,750.2167844000005,None,0.6593491000003269,P039,FENCOG,2,Pre,2022_Apr_27_1125,N-Back (New Version 2021),2021.1.4,120.57315655725225,
,,,,Conditions/Version_1/twoback(1)_v1.xlsx,New rule: Press 'space' when you see 2-back (i.e. the same letter as the one that appeared 2 letters ago.),p,None,,,,,,,,,0,2,2,2,0,4,4,4,,,,,,,,,,,,,,,,,,,,,,,,,,,,,,,,,,,,,,,,,,,,,,,,,,,,,,,,,,,,,,,,,,,,,1.7788,754.0006002,None,None,1,754.0006002,None,,P039,FENCOG,2,Pre,2022_Apr_27_1125,N-Back (New Version 2021),2021.1.4,120.57315655725225,
,,,,Conditions/Version_1/twoback(1)_v1.xlsx,New rule: Press 'space' when you see 2-back (i.e. the same letter as the one that appeared 2 letters ago.),p,None,,,,,,,,,0,2,2,2,0,5,5,5,,,,,,,,,,,,,,,,,,,,,,,,,,,,,,,,,,,,,,,,,,,,,,,,,,,,,,,,,,,,,,,,,,,,,1.3758,757.3831803000003,None,None,1,757.3831803000003,None,,P039,FENCOG,2,Pre,2022_Apr_27_1125,N-Back (New Version 2021),2021.1.4,120.57315655725225,
,,,,Conditions/Version_1/twoback(1)_v1.xlsx,New rule: Press 'space' when you see 2-back (i.e. the same letter as the one that appeared 2 letters ago.),w,None,,,,,,,,,0,2,2,2,0,6,6,6,,,,,,,,,,,,,,,,,,,,,,,,,,,,,,,,,,,,,,,,,,,,,,,,,,,,,,,,,,,,,,,,,,,,,1.6548,761.0539038000006,None,None,1,761.0539038000006,None,,P039,FENCOG,2,Pre,2022_Apr_27_1125,N-Back (New Version 2021),2021.1.4,120.57315655725225,
,,,,Conditions/Version_1/twoback(1)_v1.xlsx,New rule: Press 'space' when you see 2-back (i.e. the same letter as the one that appeared 2 letters ago.),R,None,,,,,,,,,0,2,2,2,0,7,7,7,,,,,,,,,,,,,,,,,,,,,,,,,,,,,,,,,,,,,,,,,,,,,,,,,,,,,,,,,,,,,,,,,,,,,1.785,764.8477498000002,None,None,1,764.8477498000002,None,,P039,FENCOG,2,Pre,2022_Apr_27_1125,N-Back (New Version 2021),2021.1.4,120.57315655725225,
,,,,Conditions/Version_1/twoback(1)_v1.xlsx,New rule: Press 'space' when you see 2-back (i.e. the same letter as the one that appeared 2 letters ago.),a,None,,,,,,,,,0,2,2,2,0,8,8,8,,,,,,,,,,,,,,,,,,,,,,,,,,,,,,,,,,,,,,,,,,,,,,,,,,,,,,,,,,,,,,,,,,,,,1.2084,768.0548791000001,None,None,1,768.0548791000001,None,,P039,FENCOG,2,Pre,2022_Apr_27_1125,N-Back (New Version 2021),2021.1.4,120.57315655725225,
,,,,Conditions/Version_1/twoback(1)_v1.xlsx,New rule: Press 'space' when you see 2-back (i.e. the same letter as the one that appeared 2 letters ago.),r,space,,,,,,,,,0,2,2,2,0,9,9,9,,,,,,,,,,,,,,,,,,,,,,,,,,,,,,,,,,,,,,,,,,,,,,,,,,,,,,,,,,,,,,,,,,,,,1.475,771.5288850000006,None,space,1,771.5288850000006,None,0.5631626000003962,P039,FENCOG,2,Pre,2022_Apr_27_1125,N-Back (New Version 2021),2021.1.4,120.57315655725225,
,,,,Conditions/Version_1/twoback(1)_v1.xlsx,New rule: Press 'space' when you see 2-back (i.e. the same letter as the one that appeared 2 letters ago.),,,,,,,,,,,0,2,2,2,,,,,,,,,,,,,,,,,,,,,,,,,,,,,,,,,,,,,,,,,,,,,,,,,,,,,,,,,,,,,,,,,,,,,,,,,,,,,,,,,P039,FENCOG,2,Pre,2022_Apr_27_1125,N-Back (New Version 2021),2021.1.4,120.57315655725225,
,,,,Conditions/Version_1/threeback(1)_v1.xlsx,New rule: Press 'space' when you see 3-back (i.e. the same letter as the one that appeared 3 letters ago.),r,None,,,,,,,,,0,3,3,3,0,0,0,0,,,,,,,,,,,,,,,,,,,,,,,,,,,,,,,,,,,,,,,,,,,,,,,,,,,,,,,,,,,773.5629675,None,776.5463313,None,space,12.137690300000031,776.5463313,None,773.5629675,None,1.3076,790.0233069000005,None,None,1,790.0233069000005,None,,P039,FENCOG,2,Pre,2022_Apr_27_1125,N-Back (New Version 2021),2021.1.4,120.57315655725225,
,,,,Conditions/Version_1/threeback(1)_v1.xlsx,New rule: Press 'space' when you see 3-back (i.e. the same letter as the one that appeared 3 letters ago.),o,None,,,,,,,,,0,3,3,3,0,1,1,1,,,,,,,,,,,,,,,,,,,,,,,,,,,,,,,,,,,,,,,,,,,,,,,,,,,,,,,,,,,,,,,,,,,,,1.754,793.7807659,None,None,1,793.7807659,None,,P039,FENCOG,2,Pre,2022_Apr_27_1125,N-Back (New Version 2021),2021.1.4,120.57315655725225,
,,,,Conditions/Version_1/threeback(1)_v1.xlsx,New rule: Press 'space' when you see 3-back (i.e. the same letter as the one that appeared 3 letters ago.),P,None,,,,,,,,,0,3,3,3,0,2,2,2,,,,,,,,,,,,,,,,,,,,,,,,,,,,,,,,,,,,,,,,,,,,,,,,,,,,,,,,,,,,,,,,,,,,,1.909,797.6967730000006,None,None,1,797.6967730000006,None,,P039,FENCOG,2,Pre,2022_Apr_27_1125,N-Back (New Version 2021),2021.1.4,120.57315655725225,
,,,,Conditions/Version_1/threeback(1)_v1.xlsx,New rule: Press 'space' when you see 3-back (i.e. the same letter as the one that appeared 3 letters ago.),R,space,,,,,,,,,0,3,3,3,0,3,3,3,,,,,,,,,,,,,,,,,,,,,,,,,,,,,,,,,,,,,,,,,,,,,,,,,,,,,,,,,,,,,,,,,,,,,1.4378,801.1388799000006,None,space,1,801.1388799000006,None,0.5932379999994737,P039,FENCOG,2,Pre,2022_Apr_27_1125,N-Back (New Version 2021),2021.1.4,120.57315655725225,
,,,,Conditions/Version_1/threeback(1)_v1.xlsx,New rule: Press 'space' when you see 3-back (i.e. the same letter as the one that appeared 3 letters ago.),p,None,,,,,,,,,0,3,3,3,0,4,4,4,,,,,,,,,,,,,,,,,,,,,,,,,,,,,,,,,,,,,,,,,,,,,,,,,,,,,,,,,,,,,,,,,,,,,1.3634,804.5109560000001,None,None,1,804.5109560000001,None,,P039,FENCOG,2,Pre,2022_Apr_27_1125,N-Back (New Version 2021),2021.1.4,120.57315655725225,
,,,,Conditions/Version_1/threeback(1)_v1.xlsx,New rule: Press 'space' when you see 3-back (i.e. the same letter as the one that appeared 3 letters ago.),E,None,,,,,,,,,0,3,3,3,0,5,5,5,,,,,,,,,,,,,,,,,,,,,,,,,,,,,,,,,,,,,,,,,,,,,,,,,,,,,,,,,,,,,,,,,,,,,1.7354,808.2514181000006,None,None,1,808.2514181000006,None,,P039,FENCOG,2,Pre,2022_Apr_27_1125,N-Back (New Version 2021),2021.1.4,120.57315655725225,
,,,,Conditions/Version_1/threeback(1)_v1.xlsx,New rule: Press 'space' when you see 3-back (i.e. the same letter as the one that appeared 3 letters ago.),e,None,,,,,,,,,0,3,3,3,0,6,6,6,,,,,,,,,,,,,,,,,,,,,,,,,,,,,,,,,,,,,,,,,,,,,,,,,,,,,,,,,,,,,,,,,,,,,1.4192,811.6753832000004,None,None,1,811.6753832000004,None,,P039,FENCOG,2,Pre,2022_Apr_27_1125,N-Back (New Version 2021),2021.1.4,120.57315655725225,
,,,,Conditions/Version_1/threeback(1)_v1.xlsx,New rule: Press 'space' when you see 3-back (i.e. the same letter as the one that appeared 3 letters ago.),m,None,,,,,,,,,0,3,3,3,0,7,7,7,,,,,,,,,,,,,,,,,,,,,,,,,,,,,,,,,,,,,,,,,,,,,,,,,,,,,,,,,,,,,,,,,,,,,1.2208,814.9007040000006,None,None,1,814.9007040000006,None,,P039,FENCOG,2,Pre,2022_Apr_27_1125,N-Back (New Version 2021),2021.1.4,120.57315655725225,
,,,,Conditions/Version_1/threeback(1)_v1.xlsx,New rule: Press 'space' when you see 3-back (i.e. the same letter as the one that appeared 3 letters ago.),n,None,,,,,,,,,0,3,3,3,0,8,8,8,,,,,,,,,,,,,,,,,,,,,,,,,,,,,,,,,,,,,,,,,,,,,,,,,,,,,,,,,,,,,,,,,,,,,1.2456,818.1605981000002,None,None,1,818.1605981000002,None,,P039,FENCOG,2,Pre,2022_Apr_27_1125,N-Back (New Version 2021),2021.1.4,120.57315655725225,
,,,,Conditions/Version_1/threeback(1)_v1.xlsx,New rule: Press 'space' when you see 3-back (i.e. the same letter as the one that appeared 3 letters ago.),e,space,,,,,,,,,0,3,3,3,0,9,9,9,,,,,,,,,,,,,,,,,,,,,,,,,,,,,,,,,,,,,,,,,,,,,,,,,,,,,,,,,,,,,,,,,,,,,1.258,821.4243564000008,None,space,1,821.4243564000008,None,0.6121606000006068,P039,FENCOG,2,Pre,2022_Apr_27_1125,N-Back (New Version 2021),2021.1.4,120.57315655725225,
,,,,Conditions/Version_1/threeback(1)_v1.xlsx,New rule: Press 'space' when you see 3-back (i.e. the same letter as the one that appeared 3 letters ago.),,,,,,,,,,,0,3,3,3,,,,,,,,,,,,,,,,,,,,,,,,,,,,,,,,,,,,,,,,,,,,,,,,,,,,,,,,,,,,,,,,,,,,,,,,,,,,,,,,,P039,FENCOG,2,Pre,2022_Apr_27_1125,N-Back (New Version 2021),2021.1.4,120.57315655725225,
,,,,Conditions/Version_1/oneback(2)_v1.xlsx,New rule: Press 'space' when you see 1-back (i.e. the same letter as the one that appeared 1 letter ago.),q,None,,,,,,,,,0,4,4,4,0,0,0,0,,,,,,,,,,,,,,,,,,,,,,,,,,,,,,,,,,,,,,,,,,,,,,,,,,,,,,,,,,,823.4543761000004,None,826.4405225,None,space,1.0356072999993557,826.4405225,None,823.4543761000004,None,1.6114,829.1240363000006,None,None,1,829.1240363000006,None,,P039,FENCOG,2,Pre,2022_Apr_27_1125,N-Back (New Version 2021),2021.1.4,120.57315655725225,
,,,,Conditions/Version_1/oneback(2)_v1.xlsx,New rule: Press 'space' when you see 1-back (i.e. the same letter as the one that appeared 1 letter ago.),Q,space,,,,,,,,,0,4,4,4,0,1,1,1,,,,,,,,,,,,,,,,,,,,,,,,,,,,,,,,,,,,,,,,,,,,,,,,,,,,,,,,,,,,,,,,,,,,,1.1092,832.2443218000008,None,space,1,832.2443218000008,None,0.44792250000045897,P039,FENCOG,2,Pre,2022_Apr_27_1125,N-Back (New Version 2021),2021.1.4,120.57315655725225,
,,,,Conditions/Version_1/oneback(2)_v1.xlsx,New rule: Press 'space' when you see 1-back (i.e. the same letter as the one that appeared 1 letter ago.),P,None,,,,,,,,,0,4,4,4,0,2,2,2,,,,,,,,,,,,,,,,,,,,,,,,,,,,,,,,,,,,,,,,,,,,,,,,,,,,,,,,,,,,,,,,,,,,,1.8408,836.0858110000008,None,None,1,836.0858110000008,None,,P039,FENCOG,2,Pre,2022_Apr_27_1125,N-Back (New Version 2021),2021.1.4,120.57315655725225,
,,,,Conditions/Version_1/oneback(2)_v1.xlsx,New rule: Press 'space' when you see 1-back (i.e. the same letter as the one that appeared 1 letter ago.),o,None,,,,,,,,,0,4,4,4,0,3,3,3,,,,,,,,,,,,,,,,,,,,,,,,,,,,,,,,,,,,,,,,,,,,,,,,,,,,,,,,,,,,,,,,,,,,,1.7044,839.8015654000001,None,None,1,839.8015654000001,None,,P039,FENCOG,2,Pre,2022_Apr_27_1125,N-Back (New Version 2021),2021.1.4,120.57315655725225,
,,,,Conditions/Version_1/oneback(2)_v1.xlsx,New rule: Press 'space' when you see 1-back (i.e. the same letter as the one that appeared 1 letter ago.),m,None,,,,,,,,,0,4,4,4,0,4,4,4,,,,,,,,,,,,,,,,,,,,,,,,,,,,,,,,,,,,,,,,,,,,,,,,,,,,,,,,,,,,,,,,,,,,,1.0782,842.8922462,None,None,1,842.8922462,None,,P039,FENCOG,2,Pre,2022_Apr_27_1125,N-Back (New Version 2021),2021.1.4,120.57315655725225,
,,,,Conditions/Version_1/oneback(2)_v1.xlsx,New rule: Press 'space' when you see 1-back (i.e. the same letter as the one that appeared 1 letter ago.),Z,None,,,,,,,,,0,4,4,4,0,5,5,5,,,,,,,,,,,,,,,,,,,,,,,,,,,,,,,,,,,,,,,,,,,,,,,,,,,,,,,,,,,,,,,,,,,,,1.2022,846.1112817000003,None,None,1,846.1112817000003,None,,P039,FENCOG,2,Pre,2022_Apr_27_1125,N-Back (New Version 2021),2021.1.4,120.57315655725225,
,,,,Conditions/Version_1/oneback(2)_v1.xlsx,New rule: Press 'space' when you see 1-back (i.e. the same letter as the one that appeared 1 letter ago.),c,None,,,,,,,,,0,4,4,4,0,6,6,6,,,,,,,,,,,,,,,,,,,,,,,,,,,,,,,,,,,,,,,,,,,,,,,,,,,,,,,,,,,,,,,,,,,,,1.0162,849.132775,None,None,1,849.132775,None,,P039,FENCOG,2,Pre,2022_Apr_27_1125,N-Back (New Version 2021),2021.1.4,120.57315655725225,
,,,,Conditions/Version_1/oneback(2)_v1.xlsx,New rule: Press 'space' when you see 1-back (i.e. the same letter as the one that appeared 1 letter ago.),c,space,,,,,,,,,0,4,4,4,0,7,7,7,,,,,,,,,,,,,,,,,,,,,,,,,,,,,,,,,,,,,,,,,,,,,,,,,,,,,,,,,,,,,,,,,,,,,1.1154,852.2553484,None,space,1,852.2553484,None,0.5727891999995336,P039,FENCOG,2,Pre,2022_Apr_27_1125,N-Back (New Version 2021),2021.1.4,120.57315655725225,
,,,,Conditions/Version_1/oneback(2)_v1.xlsx,New rule: Press 'space' when you see 1-back (i.e. the same letter as the one that appeared 1 letter ago.),P,None,,,,,,,,,0,4,4,4,0,8,8,8,,,,,,,,,,,,,,,,,,,,,,,,,,,,,,,,,,,,,,,,,,,,,,,,,,,,,,,,,,,,,,,,,,,,,1.5122,855.7731292000008,None,None,1,855.7731292000008,None,,P039,FENCOG,2,Pre,2022_Apr_27_1125,N-Back (New Version 2021),2021.1.4,120.57315655725225,
,,,,Conditions/Version_1/oneback(2)_v1.xlsx,New rule: Press 'space' when you see 1-back (i.e. the same letter as the one that appeared 1 letter ago.),p,space,,,,,,,,,0,4,4,4,0,9,9,9,,,,,,,,,,,,,,,,,,,,,,,,,,,,,,,,,,,,,,,,,,,,,,,,,,,,,,,,,,,,,,,,,,,,,1.8346,859.6197713000001,None,space,1,859.6197713000001,None,0.4245192999997016,P039,FENCOG,2,Pre,2022_Apr_27_1125,N-Back (New Version 2021),2021.1.4,120.57315655725225,
,,,,Conditions/Version_1/oneback(2)_v1.xlsx,New rule: Press 'space' when you see 1-back (i.e. the same letter as the one that appeared 1 letter ago.),,,,,,,,,,,0,4,4,4,,,,,,,,,,,,,,,,,,,,,,,,,,,,,,,,,,,,,,,,,,,,,,,,,,,,,,,,,,,,,,,,,,,,,,,,,,,,,,,,,P039,FENCOG,2,Pre,2022_Apr_27_1125,N-Back (New Version 2021),2021.1.4,120.57315655725225,
,,,,Conditions/Version_1/zeroback(2)_v1.xlsx,New rule: Press 'space' when you see the letter 'x' or 'X'.,p,None,,,,,,,,,0,5,5,5,0,0,0,0,,,,,,,,,,,,,,,,,,,,,,,,,,,,,,,,,,,,,,,,,,,,,,,,,,,,,,,,,,,861.6395030000003,None,864.6285134,None,space,0.9518503999997847,864.6285134,None,861.6395030000003,None,1.6548,867.2684526000003,None,None,1,867.2684526000003,None,,P039,FENCOG,2,Pre,2022_Apr_27_1125,N-Back (New Version 2021),2021.1.4,120.57315655725225,
,,,,Conditions/Version_1/zeroback(2)_v1.xlsx,New rule: Press 'space' when you see the letter 'x' or 'X'.,L,None,,,,,,,,,0,5,5,5,0,1,1,1,,,,,,,,,,,,,,,,,,,,,,,,,,,,,,,,,,,,,,,,,,,,,,,,,,,,,,,,,,,,,,,,,,,,,1.1898,870.4670193000002,None,None,1,870.4670193000002,None,,P039,FENCOG,2,Pre,2022_Apr_27_1125,N-Back (New Version 2021),2021.1.4,120.57315655725225,
,,,,Conditions/Version_1/zeroback(2)_v1.xlsx,New rule: Press 'space' when you see the letter 'x' or 'X'.,G,None,,,,,,,,,0,5,5,5,0,2,2,2,,,,,,,,,,,,,,,,,,,,,,,,,,,,,,,,,,,,,,,,,,,,,,,,,,,,,,,,,,,,,,,,,,,,,1.0844,873.5598108000004,None,None,1,873.5598108000004,None,,P039,FENCOG,2,Pre,2022_Apr_27_1125,N-Back (New Version 2021),2021.1.4,120.57315655725225,
,,,,Conditions/Version_1/zeroback(2)_v1.xlsx,New rule: Press 'space' when you see the letter 'x' or 'X'.,y,None,,,,,,,,,0,5,5,5,0,3,3,3,,,,,,,,,,,,,,,,,,,,,,,,,,,,,,,,,,,,,,,,,,,,,,,,,,,,,,,,,,,,,,,,,,,,,1.6424,877.2145164000003,None,None,1,877.2145164000003,None,,P039,FENCOG,2,Pre,2022_Apr_27_1125,N-Back (New Version 2021),2021.1.4,120.57315655725225,
,,,,Conditions/Version_1/zeroback(2)_v1.xlsx,New rule: Press 'space' when you see the letter 'x' or 'X'.,Y,None,,,,,,,,,0,5,5,5,0,4,4,4,,,,,,,,,,,,,,,,,,,,,,,,,,,,,,,,,,,,,,,,,,,,,,,,,,,,,,,,,,,,,,,,,,,,,1.5494,880.7717711000005,None,None,1,880.7717711000005,None,,P039,FENCOG,2,Pre,2022_Apr_27_1125,N-Back (New Version 2021),2021.1.4,120.57315655725225,
,,,,Conditions/Version_1/zeroback(2)_v1.xlsx,New rule: Press 'space' when you see the letter 'x' or 'X'.,W,None,,,,,,,,,0,5,5,5,0,5,5,5,,,,,,,,,,,,,,,,,,,,,,,,,,,,,,,,,,,,,,,,,,,,,,,,,,,,,,,,,,,,,,,,,,,,,1.5928,884.3786531000005,None,None,1,884.3786531000005,None,,P039,FENCOG,2,Pre,2022_Apr_27_1125,N-Back (New Version 2021),2021.1.4,120.57315655725225,
,,,,Conditions/Version_1/zeroback(2)_v1.xlsx,New rule: Press 'space' when you see the letter 'x' or 'X'.,x,space,,,,,,,,,0,5,5,5,0,6,6,6,,,,,,,,,,,,,,,,,,,,,,,,,,,,,,,,,,,,,,,,,,,,,,,,,,,,,,,,,,,,,,,,,,,,,1.7478,888.1280327000004,None,space,1,888.1280327000004,None,0.4043608000001768,P039,FENCOG,2,Pre,2022_Apr_27_1125,N-Back (New Version 2021),2021.1.4,120.57315655725225,
,,,,Conditions/Version_1/zeroback(2)_v1.xlsx,New rule: Press 'space' when you see the letter 'x' or 'X'.,X,space,,,,,,,,,0,5,5,5,0,7,7,7,,,,,,,,,,,,,,,,,,,,,,,,,,,,,,,,,,,,,,,,,,,,,,,,,,,,,,,,,,,,,,,,,,,,,1.0906,891.2262645000001,None,space,1,891.2262645000001,None,0.5942485000005036,P039,FENCOG,2,Pre,2022_Apr_27_1125,N-Back (New Version 2021),2021.1.4,120.57315655725225,
,,,,Conditions/Version_1/zeroback(2)_v1.xlsx,New rule: Press 'space' when you see the letter 'x' or 'X'.,p,None,,,,,,,,,0,5,5,5,0,8,8,8,,,,,,,,,,,,,,,,,,,,,,,,,,,,,,,,,,,,,,,,,,,,,,,,,,,,,,,,,,,,,,,,,,,,,1.0286,894.2621385000002,None,None,1,894.2621385000002,None,,P039,FENCOG,2,Pre,2022_Apr_27_1125,N-Back (New Version 2021),2021.1.4,120.57315655725225,
,,,,Conditions/Version_1/zeroback(2)_v1.xlsx,New rule: Press 'space' when you see the letter 'x' or 'X'.,h,None,,,,,,,,,0,5,5,5,0,9,9,9,,,,,,,,,,,,,,,,,,,,,,,,,,,,,,,,,,,,,,,,,,,,,,,,,,,,,,,,,,,,,,,,,,,,,1.2332,897.5028824000001,None,None,1,897.5028824000001,None,,P039,FENCOG,2,Pre,2022_Apr_27_1125,N-Back (New Version 2021),2021.1.4,120.57315655725225,
,,,,Conditions/Version_1/zeroback(2)_v1.xlsx,New rule: Press 'space' when you see the letter 'x' or 'X'.,,,,,,,,,,,0,5,5,5,,,,,,,,,,,,,,,,,,,,,,,,,,,,,,,,,,,,,,,,,,,,,,,,,,,,,,,,,,,,,,,,,,,,,,,,,,,,,,,,,P039,FENCOG,2,Pre,2022_Apr_27_1125,N-Back (New Version 2021),2021.1.4,120.57315655725225,
,,,,Conditions/Version_1/threeback(2)_v1.xlsx,New rule: Press 'space' when you see 3-back (i.e. the same letter as the one that appeared 3 letters ago.),q,None,,,,,,,,,0,6,6,6,0,0,0,0,,,,,,,,,,,,,,,,,,,,,,,,,,,,,,,,,,,,,,,,,,,,,,,,,,,,,,,,,,,899.5275114000005,None,902.5171819000007,None,space,1.7430531999998493,902.5171819000007,None,899.5275114000005,None,1.4316,905.7228837000002,None,None,1,905.7228837000002,None,,P039,FENCOG,2,Pre,2022_Apr_27_1125,N-Back (New Version 2021),2021.1.4,120.57315655725225,
,,,,Conditions/Version_1/threeback(2)_v1.xlsx,New rule: Press 'space' when you see 3-back (i.e. the same letter as the one that appeared 3 letters ago.),Y,None,,,,,,,,,0,6,6,6,0,1,1,1,,,,,,,,,,,,,,,,,,,,,,,,,,,,,,,,,,,,,,,,,,,,,,,,,,,,,,,,,,,,,,,,,,,,,1.6362,909.3633963000002,None,None,1,909.3633963000002,None,,P039,FENCOG,2,Pre,2022_Apr_27_1125,N-Back (New Version 2021),2021.1.4,120.57315655725225,
,,,,Conditions/Version_1/threeback(2)_v1.xlsx,New rule: Press 'space' when you see 3-back (i.e. the same letter as the one that appeared 3 letters ago.),p,None,,,,,,,,,0,6,6,6,0,2,2,2,,,,,,,,,,,,,,,,,,,,,,,,,,,,,,,,,,,,,,,,,,,,,,,,,,,,,,,,,,,,,,,,,,,,,1.6052,912.9706581,None,None,1,912.9706581,None,,P039,FENCOG,2,Pre,2022_Apr_27_1125,N-Back (New Version 2021),2021.1.4,120.57315655725225,
,,,,Conditions/Version_1/threeback(2)_v1.xlsx,New rule: Press 'space' when you see 3-back (i.e. the same letter as the one that appeared 3 letters ago.),p,None,,,,,,,,,0,6,6,6,0,3,3,3,,,,,,,,,,,,,,,,,,,,,,,,,,,,,,,,,,,,,,,,,,,,,,,,,,,,,,,,,,,,,,,,,,,,,1.7912,916.7629490000008,None,None,1,916.7629490000008,None,,P039,FENCOG,2,Pre,2022_Apr_27_1125,N-Back (New Version 2021),2021.1.4,120.57315655725225,
,,,,Conditions/Version_1/threeback(2)_v1.xlsx,New rule: Press 'space' when you see 3-back (i.e. the same letter as the one that appeared 3 letters ago.),y,space,,,,,,,,,0,6,6,6,0,4,4,4,,,,,,,,,,,,,,,,,,,,,,,,,,,,,,,,,,,,,,,,,,,,,,,,,,,,,,,,,,,,,,,,,,,,,1.4998,920.2710388000005,None,space,1,920.2710388000005,None,0.5813207999999577,P039,FENCOG,2,Pre,2022_Apr_27_1125,N-Back (New Version 2021),2021.1.4,120.57315655725225,
,,,,Conditions/Version_1/threeback(2)_v1.xlsx,New rule: Press 'space' when you see 3-back (i.e. the same letter as the one that appeared 3 letters ago.),u,None,,,,,,,,,0,6,6,6,0,5,5,5,,,,,,,,,,,,,,,,,,,,,,,,,,,,,,,,,,,,,,,,,,,,,,,,,,,,,,,,,,,,,,,,,,,,,1.4192,923.7049671000004,None,None,1,923.7049671000004,None,,P039,FENCOG,2,Pre,2022_Apr_27_1125,N-Back (New Version 2021),2021.1.4,120.57315655725225,
,,,,Conditions/Version_1/threeback(2)_v1.xlsx,New rule: Press 'space' when you see 3-back (i.e. the same letter as the one that appeared 3 letters ago.),P,space,,,,,,,,,0,6,6,6,0,6,6,6,,,,,,,,,,,,,,,,,,,,,,,,,,,,,,,,,,,,,,,,,,,,,,,,,,,,,,,,,,,,,,,,,,,,,1.723,927.4330606000003,None,space,1,927.4330606000003,None,0.5077116000002206,P039,FENCOG,2,Pre,2022_Apr_27_1125,N-Back (New Version 2021),2021.1.4,120.57315655725225,
,,,,Conditions/Version_1/threeback(2)_v1.xlsx,New rule: Press 'space' when you see 3-back (i.e. the same letter as the one that appeared 3 letters ago.),a,None,,,,,,,,,0,6,6,6,0,7,7,7,,,,,,,,,,,,,,,,,,,,,,,,,,,,,,,,,,,,,,,,,,,,,,,,,,,,,,,,,,,,,,,,,,,,,1.5184,930.9572783000003,None,None,1,930.9572783000003,None,,P039,FENCOG,2,Pre,2022_Apr_27_1125,N-Back (New Version 2021),2021.1.4,120.57315655725225,
,,,,Conditions/Version_1/threeback(2)_v1.xlsx,New rule: Press 'space' when you see 3-back (i.e. the same letter as the one that appeared 3 letters ago.),U,space,,,,,,,,,0,6,6,6,0,8,8,8,,,,,,,,,,,,,,,,,,,,,,,,,,,,,,,,,,,,,,,,,,,,,,,,,,,,,,,,,,,,,,,,,,,,,1.1154,934.0733791000002,None,space,1,934.0733791000002,None,0.3391213999993852,P039,FENCOG,2,Pre,2022_Apr_27_1125,N-Back (New Version 2021),2021.1.4,120.57315655725225,
,,,,Conditions/Version_1/threeback(2)_v1.xlsx,New rule: Press 'space' when you see 3-back (i.e. the same letter as the one that appeared 3 letters ago.),q,None,,,,,,,,,0,6,6,6,0,9,9,9,,,,,,,,,,,,,,,,,,,,,,,,,,,,,,,,,,,,,,,,,,,,,,,,,,,,,,,,,,,,,,,,,,,,,1.3448,937.4314352000001,None,None,1,937.4314352000001,None,,P039,FENCOG,2,Pre,2022_Apr_27_1125,N-Back (New Version 2021),2021.1.4,120.57315655725225,
,,,,Conditions/Version_1/threeback(2)_v1.xlsx,New rule: Press 'space' when you see 3-back (i.e. the same letter as the one that appeared 3 letters ago.),,,,,,,,,,,0,6,6,6,,,,,,,,,,,,,,,,,,,,,,,,,,,,,,,,,,,,,,,,,,,,,,,,,,,,,,,,,,,,,,,,,,,,,,,,,,,,,,,,,P039,FENCOG,2,Pre,2022_Apr_27_1125,N-Back (New Version 2021),2021.1.4,120.57315655725225,
,,,,Conditions/Version_1/twoback(2)_v1.xlsx,New rule: Press 'space' when you see 2-back (i.e. the same letter as the one that appeared 2 letters ago.),q,None,,,,,,,,,0,7,7,7,0,0,0,0,,,,,,,,,,,,,,,,,,,,,,,,,,,,,,,,,,,,,,,,,,,,,,,,,,,,,,,,,,,939.4660468000002,None,942.4559359000004,None,space,0.516342199999599,942.4559359000004,None,939.4660468000002,None,1.4874,944.4866324000004,None,None,1,944.4866324000004,None,,P039,FENCOG,2,Pre,2022_Apr_27_1125,N-Back (New Version 2021),2021.1.4,120.57315655725225,
,,,,Conditions/Version_1/twoback(2)_v1.xlsx,New rule: Press 'space' when you see 2-back (i.e. the same letter as the one that appeared 2 letters ago.),r,None,,,,,,,,,0,7,7,7,0,1,1,1,,,,,,,,,,,,,,,,,,,,,,,,,,,,,,,,,,,,,,,,,,,,,,,,,,,,,,,,,,,,,,,,,,,,,1.7292,948.2214637000006,None,None,1,948.2214637000006,None,,P039,FENCOG,2,Pre,2022_Apr_27_1125,N-Back (New Version 2021),2021.1.4,120.57315655725225,
,,,,Conditions/Version_1/twoback(2)_v1.xlsx,New rule: Press 'space' when you see 2-back (i.e. the same letter as the one that appeared 2 letters ago.),q,space,,,,,,,,,0,7,7,7,0,2,2,2,,,,,,,,,,,,,,,,,,,,,,,,,,,,,,,,,,,,,,,,,,,,,,,,,,,,,,,,,,,,,,,,,,,,,1.754,951.9856097000002,None,space,1,951.9856097000002,None,0.5388160000002244,P039,FENCOG,2,Pre,2022_Apr_27_1125,N-Back (New Version 2021),2021.1.4,120.57315655725225,
,,,,Conditions/Version_1/twoback(2)_v1.xlsx,New rule: Press 'space' when you see 2-back (i.e. the same letter as the one that appeared 2 letters ago.),P,None,,,,,,,,,0,7,7,7,0,3,3,3,,,,,,,,,,,,,,,,,,,,,,,,,,,,,,,,,,,,,,,,,,,,,,,,,,,,,,,,,,,,,,,,,,,,,1.816,955.8090344000002,None,None,1,955.8090344000002,None,,P039,FENCOG,2,Pre,2022_Apr_27_1125,N-Back (New Version 2021),2021.1.4,120.57315655725225,
,,,,Conditions/Version_1/twoback(2)_v1.xlsx,New rule: Press 'space' when you see 2-back (i.e. the same letter as the one that appeared 2 letters ago.),p,None,,,,,,,,,0,7,7,7,0,4,4,4,,,,,,,,,,,,,,,,,,,,,,,,,,,,,,,,,,,,,,,,,,,,,,,,,,,,,,,,,,,,,,,,,,,,,1.3324,959.151519,None,None,1,959.151519,None,,P039,FENCOG,2,Pre,2022_Apr_27_1125,N-Back (New Version 2021),2021.1.4,120.57315655725225,
,,,,Conditions/Version_1/twoback(2)_v1.xlsx,New rule: Press 'space' when you see 2-back (i.e. the same letter as the one that appeared 2 letters ago.),H,None,,,,,,,,,0,7,7,7,0,5,5,5,,,,,,,,,,,,,,,,,,,,,,,,,,,,,,,,,,,,,,,,,,,,,,,,,,,,,,,,,,,,,,,,,,,,,1.8284,962.9900372000002,None,None,1,962.9900372000002,None,,P039,FENCOG,2,Pre,2022_Apr_27_1125,N-Back (New Version 2021),2021.1.4,120.57315655725225,
,,,,Conditions/Version_1/twoback(2)_v1.xlsx,New rule: Press 'space' when you see 2-back (i.e. the same letter as the one that appeared 2 letters ago.),g,None,,,,,,,,,0,7,7,7,0,6,6,6,,,,,,,,,,,,,,,,,,,,,,,,,,,,,,,,,,,,,,,,,,,,,,,,,,,,,,,,,,,,,,,,,,,,,1.134,966.1300346000007,None,None,1,966.1300346000007,None,,P039,FENCOG,2,Pre,2022_Apr_27_1125,N-Back (New Version 2021),2021.1.4,120.57315655725225,
,,,,Conditions/Version_1/twoback(2)_v1.xlsx,New rule: Press 'space' when you see 2-back (i.e. the same letter as the one that appeared 2 letters ago.),j,None,,,,,,,,,0,7,7,7,0,7,7,7,,,,,,,,,,,,,,,,,,,,,,,,,,,,,,,,,,,,,,,,,,,,,,,,,,,,,,,,,,,,,,,,,,,,,1.506,969.6384364000005,None,None,1,969.6384364000005,None,,P039,FENCOG,2,Pre,2022_Apr_27_1125,N-Back (New Version 2021),2021.1.4,120.57315655725225,
,,,,Conditions/Version_1/twoback(2)_v1.xlsx,New rule: Press 'space' when you see 2-back (i.e. the same letter as the one that appeared 2 letters ago.),g,space,,,,,,,,,0,7,7,7,0,8,8,8,,,,,,,,,,,,,,,,,,,,,,,,,,,,,,,,,,,,,,,,,,,,,,,,,,,,,,,,,,,,,,,,,,,,,1.6672,973.3114161000003,None,space,1,973.3114161000003,None,0.5249779000005219,P039,FENCOG,2,Pre,2022_Apr_27_1125,N-Back (New Version 2021),2021.1.4,120.57315655725225,
,,,,Conditions/Version_1/twoback(2)_v1.xlsx,New rule: Press 'space' when you see 2-back (i.e. the same letter as the one that appeared 2 letters ago.),G,None,,,,,,,,,0,7,7,7,0,9,9,9,,,,,,,,,,,,,,,,,,,,,,,,,,,,,,,,,,,,,,,,,,,,,,,,,,,,,,,,,,,,,,,,,,,,,1.7478,977.0602726000006,None,None,1,977.0602726000006,None,,P039,FENCOG,2,Pre,2022_Apr_27_1125,N-Back (New Version 2021),2021.1.4,120.57315655725225,
,,,,Conditions/Version_1/twoback(2)_v1.xlsx,New rule: Press 'space' when you see 2-back (i.e. the same letter as the one that appeared 2 letters ago.),,,,,,,,,,,0,7,7,7,,,,,,,,,,,,,,,,,,,,,,,,,,,,,,,,,,,,,,,,,,,,,,,,,,,,,,,,,,,,,,,,,,,,,,,,,,,,,,,,,P039,FENCOG,2,Pre,2022_Apr_27_1125,N-Back (New Version 2021),2021.1.4,120.57315655725225,
,,,,Conditions/Version_1/threeback(3)_v1.xlsx,New rule: Press 'space' when you see 3-back (i.e. the same letter as the one that appeared 3 letters ago.),w,None,,,,,,,,,0,8,8,8,0,0,0,0,,,,,,,,,,,,,,,,,,,,,,,,,,,,,,,,,,,,,,,,,,,,,,,,,,,,,,,,,,,979.0810603,None,982.0703995000003,None,space,8.902125900000101,982.0703995000003,None,979.0810603,None,1.3944,992.3975783000005,None,None,1,992.3975783000005,None,,P039,FENCOG,2,Pre,2022_Apr_27_1125,N-Back (New Version 2021),2021.1.4,120.57315655725225,
,,,,Conditions/Version_1/threeback(3)_v1.xlsx,New rule: Press 'space' when you see 3-back (i.e. the same letter as the one that appeared 3 letters ago.),p,None,,,,,,,,,0,8,8,8,0,1,1,1,,,,,,,,,,,,,,,,,,,,,,,,,,,,,,,,,,,,,,,,,,,,,,,,,,,,,,,,,,,,,,,,,,,,,1.1278,995.5298462000001,None,None,1,995.5298462000001,None,,P039,FENCOG,2,Pre,2022_Apr_27_1125,N-Back (New Version 2021),2021.1.4,120.57315655725225,
,,,,Conditions/Version_1/threeback(3)_v1.xlsx,New rule: Press 'space' when you see 3-back (i.e. the same letter as the one that appeared 3 letters ago.),P,None,,,,,,,,,0,8,8,8,0,2,2,2,,,,,,,,,,,,,,,,,,,,,,,,,,,,,,,,,,,,,,,,,,,,,,,,,,,,,,,,,,,,,,,,,,,,,1.2456,998.7798699000004,None,None,1,998.7798699000004,None,,P039,FENCOG,2,Pre,2022_Apr_27_1125,N-Back (New Version 2021),2021.1.4,120.57315655725225,
,,,,Conditions/Version_1/threeback(3)_v1.xlsx,New rule: Press 'space' when you see 3-back (i.e. the same letter as the one that appeared 3 letters ago.),i,None,,,,,,,,,0,8,8,8,0,3,3,3,,,,,,,,,,,,,,,,,,,,,,,,,,,,,,,,,,,,,,,,,,,,,,,,,,,,,,,,,,,,,,,,,,,,,1.3014,1002.0862320000006,None,None,1,1002.0862320000006,None,,P039,FENCOG,2,Pre,2022_Apr_27_1125,N-Back (New Version 2021),2021.1.4,120.57315655725225,
,,,,Conditions/Version_1/threeback(3)_v1.xlsx,New rule: Press 'space' when you see 3-back (i.e. the same letter as the one that appeared 3 letters ago.),f,None,,,,,,,,,0,8,8,8,0,4,4,4,,,,,,,,,,,,,,,,,,,,,,,,,,,,,,,,,,,,,,,,,,,,,,,,,,,,,,,,,,,,,,,,,,,,,1.661,1005.7518805,None,None,1,1005.7518805,None,,P039,FENCOG,2,Pre,2022_Apr_27_1125,N-Back (New Version 2021),2021.1.4,120.57315655725225,
,,,,Conditions/Version_1/threeback(3)_v1.xlsx,New rule: Press 'space' when you see 3-back (i.e. the same letter as the one that appeared 3 letters ago.),o,None,,,,,,,,,0,8,8,8,0,5,5,5,,,,,,,,,,,,,,,,,,,,,,,,,,,,,,,,,,,,,,,,,,,,,,,,,,,,,,,,,,,,,,,,,,,,,1.2022,1008.9614794000008,None,None,1,1008.9614794000008,None,,P039,FENCOG,2,Pre,2022_Apr_27_1125,N-Back (New Version 2021),2021.1.4,120.57315655725225,
,,,,Conditions/Version_1/threeback(3)_v1.xlsx,New rule: Press 'space' when you see 3-back (i.e. the same letter as the one that appeared 3 letters ago.),w,None,,,,,,,,,0,8,8,8,0,6,6,6,,,,,,,,,,,,,,,,,,,,,,,,,,,,,,,,,,,,,,,,,,,,,,,,,,,,,,,,,,,,,,,,,,,,,1.289,1012.2592638000006,None,None,1,1012.2592638000006,None,,P039,FENCOG,2,Pre,2022_Apr_27_1125,N-Back (New Version 2021),2021.1.4,120.57315655725225,
,,,,Conditions/Version_1/threeback(3)_v1.xlsx,New rule: Press 'space' when you see 3-back (i.e. the same letter as the one that appeared 3 letters ago.),F,space,,,,,,,,,0,8,8,8,0,7,7,7,,,,,,,,,,,,,,,,,,,,,,,,,,,,,,,,,,,,,,,,,,,,,,,,,,,,,,,,,,,,,,,,,,,,,1.3076,1015.5750558,None,space,1,1015.5750558,None,0.33349410000028,P039,FENCOG,2,Pre,2022_Apr_27_1125,N-Back (New Version 2021),2021.1.4,120.57315655725225,
,,,,Conditions/Version_1/threeback(3)_v1.xlsx,New rule: Press 'space' when you see 3-back (i.e. the same letter as the one that appeared 3 letters ago.),p,None,,,,,,,,,0,8,8,8,0,8,8,8,,,,,,,,,,,,,,,,,,,,,,,,,,,,,,,,,,,,,,,,,,,,,,,,,,,,,,,,,,,,,,,,,,,,,1.2208,1018.8082068000003,None,None,1,1018.8082068000003,None,,P039,FENCOG,2,Pre,2022_Apr_27_1125,N-Back (New Version 2021),2021.1.4,120.57315655725225,
,,,,Conditions/Version_1/threeback(3)_v1.xlsx,New rule: Press 'space' when you see 3-back (i.e. the same letter as the one that appeared 3 letters ago.),W,space,,,,,,,,,0,8,8,8,0,9,9,9,,,,,,,,,,,,,,,,,,,,,,,,,,,,,,,,,,,,,,,,,,,,,,,,,,,,,,,,,,,,,,,,,,,,,1.165,1021.9819061000007,None,space,1,1021.9819061000007,None,0.39063790000000154,P039,FENCOG,2,Pre,2022_Apr_27_1125,N-Back (New Version 2021),2021.1.4,120.57315655725225,
,,,,Conditions/Version_1/threeback(3)_v1.xlsx,New rule: Press 'space' when you see 3-back (i.e. the same letter as the one that appeared 3 letters ago.),,,,,,,,,,,0,8,8,8,,,,,,,,,,,,,,,,,,,,,,,,,,,,,,,,,,,,,,,,,,,,,,,,,,,,,,,,,,,,,,,,,,,,,,,,,,,,,,,,,P039,FENCOG,2,Pre,2022_Apr_27_1125,N-Back (New Version 2021),2021.1.4,120.57315655725225,
,,,,Conditions/Version_1/zeroback(3)_v1.xlsx,New rule: Press 'space' when you see the letter 'x' or 'X'.,X,space,,,,,,,,,0,9,9,9,0,0,0,0,,,,,,,,,,,,,,,,,,,,,,,,,,,,,,,,,,,,,,,,,,,,,,,,,,,,,,,,,,,1024.0066805000006,None,1026.9958123000006,None,space,0.26437890000033804,1026.9958123000006,None,1024.0066805000006,None,1.537,1028.8281644000008,None,space,1,1028.8281644000008,None,0.464489500000127,P039,FENCOG,2,Pre,2022_Apr_27_1125,N-Back (New Version 2021),2021.1.4,120.57315655725225,
,,,,Conditions/Version_1/zeroback(3)_v1.xlsx,New rule: Press 'space' when you see the letter 'x' or 'X'.,B,None,,,,,,,,,0,9,9,9,0,1,1,1,,,,,,,,,,,,,,,,,,,,,,,,,,,,,,,,,,,,,,,,,,,,,,,,,,,,,,,,,,,,,,,,,,,,,1.103,1031.9376662000004,None,None,1,1031.9376662000004,None,,P039,FENCOG,2,Pre,2022_Apr_27_1125,N-Back (New Version 2021),2021.1.4,120.57315655725225,
,,,,Conditions/Version_1/zeroback(3)_v1.xlsx,New rule: Press 'space' when you see the letter 'x' or 'X'.,m,None,,,,,,,,,0,9,9,9,0,2,2,2,,,,,,,,,,,,,,,,,,,,,,,,,,,,,,,,,,,,,,,,,,,,,,,,,,,,,,,,,,,,,,,,,,,,,1.0596,1035.0100273000007,None,None,1,1035.0100273000007,None,,P039,FENCOG,2,Pre,2022_Apr_27_1125,N-Back (New Version 2021),2021.1.4,120.57315655725225,
,,,,Conditions/Version_1/zeroback(3)_v1.xlsx,New rule: Press 'space' when you see the letter 'x' or 'X'.,m,None,,,,,,,,,0,9,9,9,0,3,3,3,,,,,,,,,,,,,,,,,,,,,,,,,,,,,,,,,,,,,,,,,,,,,,,,,,,,,,,,,,,,,,,,,,,,,1.4068,1038.4174478000004,None,None,1,1038.4174478000004,None,,P039,FENCOG,2,Pre,2022_Apr_27_1125,N-Back (New Version 2021),2021.1.4,120.57315655725225,
,,,,Conditions/Version_1/zeroback(3)_v1.xlsx,New rule: Press 'space' when you see the letter 'x' or 'X'.,o,None,,,,,,,,,0,9,9,9,0,4,4,4,,,,,,,,,,,,,,,,,,,,,,,,,,,,,,,,,,,,,,,,,,,,,,,,,,,,,,,,,,,,,,,,,,,,,1.3262,1041.7495539000001,None,None,1,1041.7495539000001,None,,P039,FENCOG,2,Pre,2022_Apr_27_1125,N-Back (New Version 2021),2021.1.4,120.57315655725225,
,,,,Conditions/Version_1/zeroback(3)_v1.xlsx,New rule: Press 'space' when you see the letter 'x' or 'X'.,p,None,,,,,,,,,0,9,9,9,0,5,5,5,,,,,,,,,,,,,,,,,,,,,,,,,,,,,,,,,,,,,,,,,,,,,,,,,,,,,,,,,,,,,,,,,,,,,1.1464,1044.8986435000006,None,None,1,1044.8986435000006,None,,P039,FENCOG,2,Pre,2022_Apr_27_1125,N-Back (New Version 2021),2021.1.4,120.57315655725225,
,,,,Conditions/Version_1/zeroback(3)_v1.xlsx,New rule: Press 'space' when you see the letter 'x' or 'X'.,G,None,,,,,,,,,0,9,9,9,0,6,6,6,,,,,,,,,,,,,,,,,,,,,,,,,,,,,,,,,,,,,,,,,,,,,,,,,,,,,,,,,,,,,,,,,,,,,1.8718,1048.7737201,None,None,1,1048.7737201,None,,P039,FENCOG,2,Pre,2022_Apr_27_1125,N-Back (New Version 2021),2021.1.4,120.57315655725225,
,,,,Conditions/Version_1/zeroback(3)_v1.xlsx,New rule: Press 'space' when you see the letter 'x' or 'X'.,X,space,,,,,,,,,0,9,9,9,0,7,7,7,,,,,,,,,,,,,,,,,,,,,,,,,,,,,,,,,,,,,,,,,,,,,,,,,,,,,,,,,,,,,,,,,,,,,1.5618,1052.3382600000004,None,space,1,1052.3382600000004,None,0.3303151000000071,P039,FENCOG,2,Pre,2022_Apr_27_1125,N-Back (New Version 2021),2021.1.4,120.57315655725225,
,,,,Conditions/Version_1/zeroback(3)_v1.xlsx,New rule: Press 'space' when you see the letter 'x' or 'X'.,p,None,,,,,,,,,0,9,9,9,0,8,8,8,,,,,,,,,,,,,,,,,,,,,,,,,,,,,,,,,,,,,,,,,,,,,,,,,,,,,,,,,,,,,,,,,,,,,1.6424,1055.9869944000002,None,None,1,1055.9869944000002,None,,P039,FENCOG,2,Pre,2022_Apr_27_1125,N-Back (New Version 2021),2021.1.4,120.57315655725225,
,,,,Conditions/Version_1/zeroback(3)_v1.xlsx,New rule: Press 'space' when you see the letter 'x' or 'X'.,x,space,,,,,,,,,0,9,9,9,0,9,9,9,,,,,,,,,,,,,,,,,,,,,,,,,,,,,,,,,,,,,,,,,,,,,,,,,,,,,,,,,,,,,,,,,,,,,1.0534,1059.0454405,None,space,1,1059.0454405,None,0.35933720000048197,P039,FENCOG,2,Pre,2022_Apr_27_1125,N-Back (New Version 2021),2021.1.4,120.57315655725225,
,,,,Conditions/Version_1/zeroback(3)_v1.xlsx,New rule: Press 'space' when you see the letter 'x' or 'X'.,,,,,,,,,,,0,9,9,9,,,,,,,,,,,,,,,,,,,,,,,,,,,,,,,,,,,,,,,,,,,,,,,,,,,,,,,,,,,,,,,,,,,,,,,,,,,,,,,,,P039,FENCOG,2,Pre,2022_Apr_27_1125,N-Back (New Version 2021),2021.1.4,120.57315655725225,
,,,,Conditions/Version_1/twoback(3)_v1.xlsx,New rule: Press 'space' when you see 2-back (i.e. the same letter as the one that appeared 2 letters ago.),e,None,,,,,,,,,0,10,10,10,0,0,0,0,,,,,,,,,,,,,,,,,,,,,,,,,,,,,,,,,,,,,,,,,,,,,,,,,,,,,,,,,,,1061.0722300000007,None,1064.0756627,None,space,0.9126741999998558,1064.0756627,None,1061.0722300000007,None,1.63,1066.6505905000004,None,None,1,1066.6505905000004,None,,P039,FENCOG,2,Pre,2022_Apr_27_1125,N-Back (New Version 2021),2021.1.4,120.57315655725225,
,,,,Conditions/Version_1/twoback(3)_v1.xlsx,New rule: Press 'space' when you see 2-back (i.e. the same letter as the one that appeared 2 letters ago.),o,None,,,,,,,,,0,10,10,10,0,1,1,1,,,,,,,,,,,,,,,,,,,,,,,,,,,,,,,,,,,,,,,,,,,,,,,,,,,,,,,,,,,,,,,,,,,,,1.506,1070.166932,None,None,1,1070.166932,None,,P039,FENCOG,2,Pre,2022_Apr_27_1125,N-Back (New Version 2021),2021.1.4,120.57315655725225,
,,,,Conditions/Version_1/twoback(3)_v1.xlsx,New rule: Press 'space' when you see 2-back (i.e. the same letter as the one that appeared 2 letters ago.),P,None,,,,,,,,,0,10,10,10,0,2,2,2,,,,,,,,,,,,,,,,,,,,,,,,,,,,,,,,,,,,,,,,,,,,,,,,,,,,,,,,,,,,,,,,,,,,,1.2146,1073.3913748000004,None,None,1,1073.3913748000004,None,,P039,FENCOG,2,Pre,2022_Apr_27_1125,N-Back (New Version 2021),2021.1.4,120.57315655725225,
,,,,Conditions/Version_1/twoback(3)_v1.xlsx,New rule: Press 'space' when you see 2-back (i.e. the same letter as the one that appeared 2 letters ago.),z,None,,,,,,,,,0,10,10,10,0,3,3,3,,,,,,,,,,,,,,,,,,,,,,,,,,,,,,,,,,,,,,,,,,,,,,,,,,,,,,,,,,,,,,,,,,,,,1.2704,1076.6673557000004,None,None,1,1076.6673557000004,None,,P039,FENCOG,2,Pre,2022_Apr_27_1125,N-Back (New Version 2021),2021.1.4,120.57315655725225,
,,,,Conditions/Version_1/twoback(3)_v1.xlsx,New rule: Press 'space' when you see 2-back (i.e. the same letter as the one that appeared 2 letters ago.),X,None,,,,,,,,,0,10,10,10,0,4,4,4,,,,,,,,,,,,,,,,,,,,,,,,,,,,,,,,,,,,,,,,,,,,,,,,,,,,,,,,,,,,,,,,,,,,,1.878,1080.5550650000005,None,None,1,1080.5550650000005,None,,P039,FENCOG,2,Pre,2022_Apr_27_1125,N-Back (New Version 2021),2021.1.4,120.57315655725225,
,,,,Conditions/Version_1/twoback(3)_v1.xlsx,New rule: Press 'space' when you see 2-back (i.e. the same letter as the one that appeared 2 letters ago.),z,space,,,,,,,,,0,10,10,10,0,5,5,5,,,,,,,,,,,,,,,,,,,,,,,,,,,,,,,,,,,,,,,,,,,,,,,,,,,,,,,,,,,,,,,,,,,,,1.2022,1083.762213,None,space,1,1083.762213,None,0.3622797999996692,P039,FENCOG,2,Pre,2022_Apr_27_1125,N-Back (New Version 2021),2021.1.4,120.57315655725225,
,,,,Conditions/Version_1/twoback(3)_v1.xlsx,New rule: Press 'space' when you see 2-back (i.e. the same letter as the one that appeared 2 letters ago.),x,space,,,,,,,,,0,10,10,10,0,6,6,6,,,,,,,,,,,,,,,,,,,,,,,,,,,,,,,,,,,,,,,,,,,,,,,,,,,,,,,,,,,,,,,,,,,,,1.072,1086.8458646000008,None,space,1,1086.8458646000008,None,1.0307065000006332,P039,FENCOG,2,Pre,2022_Apr_27_1125,N-Back (New Version 2021),2021.1.4,120.57315655725225,
,,,,Conditions/Version_1/twoback(3)_v1.xlsx,New rule: Press 'space' when you see 2-back (i.e. the same letter as the one that appeared 2 letters ago.),c,None,,,,,,,,,0,10,10,10,0,7,7,7,,,,,,,,,,,,,,,,,,,,,,,,,,,,,,,,,,,,,,,,,,,,,,,,,,,,,,,,,,,,,,,,,,,,,1.5432,1090.4030218000007,None,None,1,1090.4030218000007,None,,P039,FENCOG,2,Pre,2022_Apr_27_1125,N-Back (New Version 2021),2021.1.4,120.57315655725225,
,,,,Conditions/Version_1/twoback(3)_v1.xlsx,New rule: Press 'space' when you see 2-back (i.e. the same letter as the one that appeared 2 letters ago.),i,None,,,,,,,,,0,10,10,10,0,8,8,8,,,,,,,,,,,,,,,,,,,,,,,,,,,,,,,,,,,,,,,,,,,,,,,,,,,,,,,,,,,,,,,,,,,,,1.8284,1094.2424407000008,None,None,1,1094.2424407000008,None,,P039,FENCOG,2,Pre,2022_Apr_27_1125,N-Back (New Version 2021),2021.1.4,120.57315655725225,
,,,,Conditions/Version_1/twoback(3)_v1.xlsx,New rule: Press 'space' when you see 2-back (i.e. the same letter as the one that appeared 2 letters ago.),C,space,,,,,,,,,0,10,10,10,0,9,9,9,,,,,,,,,,,,,,,,,,,,,,,,,,,,,,,,,,,,,,,,,,,,,,,,,,,,,,,,,,,,,,,,,,,,,1.2828,1097.5349614000006,None,space,1,1097.5349614000006,None,0.3576653999998598,P039,FENCOG,2,Pre,2022_Apr_27_1125,N-Back (New Version 2021),2021.1.4,120.57315655725225,
,,,,Conditions/Version_1/twoback(3)_v1.xlsx,New rule: Press 'space' when you see 2-back (i.e. the same letter as the one that appeared 2 letters ago.),,,,,,,,,,,0,10,10,10,,,,,,,,,,,,,,,,,,,,,,,,,,,,,,,,,,,,,,,,,,,,,,,,,,,,,,,,,,,,,,,,,,,,,,,,,,,,,,,,,P039,FENCOG,2,Pre,2022_Apr_27_1125,N-Back (New Version 2021),2021.1.4,120.57315655725225,
,,,,Conditions/Version_1/oneback(3)_v1.xlsx,New rule: Press 'space' when you see 1-back (i.e. the same letter as the one that appeared 1 letter ago.),o,None,,,,,,,,,0,11,11,11,0,0,0,0,,,,,,,,,,,,,,,,,,,,,,,,,,,,,,,,,,,,,,,,,,,,,,,,,,,,,,,,,,,1099.5635619000004,None,1102.5506601000006,None,space,0.48588550000022224,1102.5506601000006,None,1099.5635619000004,None,1.9896,1105.0665949000004,None,None,1,1105.0665949000004,None,,P039,FENCOG,2,Pre,2022_Apr_27_1125,N-Back (New Version 2021),2021.1.4,120.57315655725225,
,,,,Conditions/Version_1/oneback(3)_v1.xlsx,New rule: Press 'space' when you see 1-back (i.e. the same letter as the one that appeared 1 letter ago.),O,space,,,,,,,,,0,11,11,11,0,1,1,1,,,,,,,,,,,,,,,,,,,,,,,,,,,,,,,,,,,,,,,,,,,,,,,,,,,,,,,,,,,,,,,,,,,,,1.537,1108.6148401,None,space,1,1108.6148401,None,0.37385580000045593,P039,FENCOG,2,Pre,2022_Apr_27_1125,N-Back (New Version 2021),2021.1.4,120.57315655725225,
,,,,Conditions/Version_1/oneback(3)_v1.xlsx,New rule: Press 'space' when you see 1-back (i.e. the same letter as the one that appeared 1 letter ago.),h,None,,,,,,,,,0,11,11,11,0,2,2,2,,,,,,,,,,,,,,,,,,,,,,,,,,,,,,,,,,,,,,,,,,,,,,,,,,,,,,,,,,,,,,,,,,,,,1.9028,1112.5288782000007,None,None,1,1112.5288782000007,None,,P039,FENCOG,2,Pre,2022_Apr_27_1125,N-Back (New Version 2021),2021.1.4,120.57315655725225,
,,,,Conditions/Version_1/oneback(3)_v1.xlsx,New rule: Press 'space' when you see 1-back (i.e. the same letter as the one that appeared 1 letter ago.),g,None,,,,,,,,,0,11,11,11,0,3,3,3,,,,,,,,,,,,,,,,,,,,,,,,,,,,,,,,,,,,,,,,,,,,,,,,,,,,,,,,,,,,,,,,,,,,,1.8842,1116.4221778,None,None,1,1116.4221778,None,,P039,FENCOG,2,Pre,2022_Apr_27_1125,N-Back (New Version 2021),2021.1.4,120.57315655725225,
,,,,Conditions/Version_1/oneback(3)_v1.xlsx,New rule: Press 'space' when you see 1-back (i.e. the same letter as the one that appeared 1 letter ago.),n,None,,,,,,,,,0,11,11,11,0,4,4,4,,,,,,,,,,,,,,,,,,,,,,,,,,,,,,,,,,,,,,,,,,,,,,,,,,,,,,,,,,,,,,,,,,,,,1.6238,1120.0516815,None,None,1,1120.0516815,None,,P039,FENCOG,2,Pre,2022_Apr_27_1125,N-Back (New Version 2021),2021.1.4,120.57315655725225,
,,,,Conditions/Version_1/oneback(3)_v1.xlsx,New rule: Press 'space' when you see 1-back (i.e. the same letter as the one that appeared 1 letter ago.),z,None,,,,,,,,,0,11,11,11,0,5,5,5,,,,,,,,,,,,,,,,,,,,,,,,,,,,,,,,,,,,,,,,,,,,,,,,,,,,,,,,,,,,,,,,,,,,,1.5556,1123.6115065000004,None,None,1,1123.6115065000004,None,,P039,FENCOG,2,Pre,2022_Apr_27_1125,N-Back (New Version 2021),2021.1.4,120.57315655725225,
,,,,Conditions/Version_1/oneback(3)_v1.xlsx,New rule: Press 'space' when you see 1-back (i.e. the same letter as the one that appeared 1 letter ago.),X,None,,,,,,,,,0,11,11,11,0,6,6,6,,,,,,,,,,,,,,,,,,,,,,,,,,,,,,,,,,,,,,,,,,,,,,,,,,,,,,,,,,,,,,,,,,,,,1.6858,1127.3131309,None,None,1,1127.3131309,None,,P039,FENCOG,2,Pre,2022_Apr_27_1125,N-Back (New Version 2021),2021.1.4,120.57315655725225,
,,,,Conditions/Version_1/oneback(3)_v1.xlsx,New rule: Press 'space' when you see 1-back (i.e. the same letter as the one that appeared 1 letter ago.),r,None,,,,,,,,,0,11,11,11,0,7,7,7,,,,,,,,,,,,,,,,,,,,,,,,,,,,,,,,,,,,,,,,,,,,,,,,,,,,,,,,,,,,,,,,,,,,,1.8718,1131.1906025000008,None,None,1,1131.1906025000008,None,,P039,FENCOG,2,Pre,2022_Apr_27_1125,N-Back (New Version 2021),2021.1.4,120.57315655725225,
,,,,Conditions/Version_1/oneback(3)_v1.xlsx,New rule: Press 'space' when you see 1-back (i.e. the same letter as the one that appeared 1 letter ago.),r,space,,,,,,,,,0,11,11,11,0,8,8,8,,,,,,,,,,,,,,,,,,,,,,,,,,,,,,,,,,,,,,,,,,,,,,,,,,,,,,,,,,,,,,,,,,,,,1.3572,1134.5475166000006,None,space,1,1134.5475166000006,None,0.5370894999996381,P039,FENCOG,2,Pre,2022_Apr_27_1125,N-Back (New Version 2021),2021.1.4,120.57315655725225,
,,,,Conditions/Version_1/oneback(3)_v1.xlsx,New rule: Press 'space' when you see 1-back (i.e. the same letter as the one that appeared 1 letter ago.),P,None,,,,,,,,,0,11,11,11,0,9,9,9,,,,,,,,,,,,,,,,,,,,,,,,,,,,,,,,,,,,,,,,,,,,,,,,,,,,,,,,,,,,,,,,,,,,,1.9772,1138.5444108000002,None,None,1,1138.5444108000002,None,,P039,FENCOG,2,Pre,2022_Apr_27_1125,N-Back (New Version 2021),2021.1.4,120.57315655725225,
,,,,Conditions/Version_1/oneback(3)_v1.xlsx,New rule: Press 'space' when you see 1-back (i.e. the same letter as the one that appeared 1 letter ago.),,,,,,,,,,,0,11,11,11,,,,,,,,,,,,,,,,,,,,,,,,,,,,,,,,,,,,,,,,,,,,,,,,,,,,,,,,,,,,,,,,,,,,,,,,,,,,,,,,,P039,FENCOG,2,Pre,2022_Apr_27_1125,N-Back (New Version 2021),2021.1.4,120.57315655725225,
,,,,Conditions/Version_1/twoback(4)_v1.xlsx,New rule: Press 'space' when you see 2-back (i.e. the same letter as the one that appeared 2 letters ago.),r,None,,,,,,,,,0,12,12,12,0,0,0,0,,,,,,,,,,,,,,,,,,,,,,,,,,,,,,,,,,,,,,,,,,,,,,,,,,,,,,,,,,,1140.5651342,None,1143.5472919000003,None,space,1.2733668000000762,1143.5472919000003,None,1140.5651342,None,1.9896,1146.8774403000007,None,None,1,1146.8774403000007,None,,P039,FENCOG,2,Pre,2022_Apr_27_1125,N-Back (New Version 2021),2021.1.4,120.57315655725225,
,,,,Conditions/Version_1/twoback(4)_v1.xlsx,New rule: Press 'space' when you see 2-back (i.e. the same letter as the one that appeared 2 letters ago.),T,None,,,,,,,,,0,12,12,12,0,1,1,1,,,,,,,,,,,,,,,,,,,,,,,,,,,,,,,,,,,,,,,,,,,,,,,,,,,,,,,,,,,,,,,,,,,,,1.7664,1150.6519668,None,None,1,1150.6519668,None,,P039,FENCOG,2,Pre,2022_Apr_27_1125,N-Back (New Version 2021),2021.1.4,120.57315655725225,
,,,,Conditions/Version_1/twoback(4)_v1.xlsx,New rule: Press 'space' when you see 2-back (i.e. the same letter as the one that appeared 2 letters ago.),o,None,,,,,,,,,0,12,12,12,0,2,2,2,,,,,,,,,,,,,,,,,,,,,,,,,,,,,,,,,,,,,,,,,,,,,,,,,,,,,,,,,,,,,,,,,,,,,1.661,1154.3306982000004,None,None,1,1154.3306982000004,None,,P039,FENCOG,2,Pre,2022_Apr_27_1125,N-Back (New Version 2021),2021.1.4,120.57315655725225,
,,,,Conditions/Version_1/twoback(4)_v1.xlsx,New rule: Press 'space' when you see 2-back (i.e. the same letter as the one that appeared 2 letters ago.),p,None,,,,,,,,,0,12,12,12,0,3,3,3,,,,,,,,,,,,,,,,,,,,,,,,,,,,,,,,,,,,,,,,,,,,,,,,,,,,,,,,,,,,,,,,,,,,,1.3324,1157.6659362,None,None,1,1157.6659362,None,,P039,FENCOG,2,Pre,2022_Apr_27_1125,N-Back (New Version 2021),2021.1.4,120.57315655725225,
,,,,Conditions/Version_1/twoback(4)_v1.xlsx,New rule: Press 'space' when you see 2-back (i.e. the same letter as the one that appeared 2 letters ago.),p,None,,,,,,,,,0,12,12,12,0,4,4,4,,,,,,,,,,,,,,,,,,,,,,,,,,,,,,,,,,,,,,,,,,,,,,,,,,,,,,,,,,,,,,,,,,,,,1.3076,1160.9815018000008,None,None,1,1160.9815018000008,None,,P039,FENCOG,2,Pre,2022_Apr_27_1125,N-Back (New Version 2021),2021.1.4,120.57315655725225,
,,,,Conditions/Version_1/twoback(4)_v1.xlsx,New rule: Press 'space' when you see 2-back (i.e. the same letter as the one that appeared 2 letters ago.),y,None,,,,,,,,,0,12,12,12,0,5,5,5,,,,,,,,,,,,,,,,,,,,,,,,,,,,,,,,,,,,,,,,,,,,,,,,,,,,,,,,,,,,,,,,,,,,,1.3696,1164.3595739000002,None,None,1,1164.3595739000002,None,,P039,FENCOG,2,Pre,2022_Apr_27_1125,N-Back (New Version 2021),2021.1.4,120.57315655725225,
,,,,Conditions/Version_1/twoback(4)_v1.xlsx,New rule: Press 'space' when you see 2-back (i.e. the same letter as the one that appeared 2 letters ago.),P,space,,,,,,,,,0,12,12,12,0,6,6,6,,,,,,,,,,,,,,,,,,,,,,,,,,,,,,,,,,,,,,,,,,,,,,,,,,,,,,,,,,,,,,,,,,,,,1.289,1167.6545730000007,None,space,1,1167.6545730000007,None,0.39791999999943073,P039,FENCOG,2,Pre,2022_Apr_27_1125,N-Back (New Version 2021),2021.1.4,120.57315655725225,
,,,,Conditions/Version_1/twoback(4)_v1.xlsx,New rule: Press 'space' when you see 2-back (i.e. the same letter as the one that appeared 2 letters ago.),y,None,,,,,,,,,0,12,12,12,0,7,7,7,,,,,,,,,,,,,,,,,,,,,,,,,,,,,,,,,,,,,,,,,,,,,,,,,,,,,,,,,,,,,,,,,,,,,1.0658,1170.7211962000001,None,space,0,1170.7211962000001,None,0.7795663000006243,P039,FENCOG,2,Pre,2022_Apr_27_1125,N-Back (New Version 2021),2021.1.4,120.57315655725225,
,,,,Conditions/Version_1/twoback(4)_v1.xlsx,New rule: Press 'space' when you see 2-back (i.e. the same letter as the one that appeared 2 letters ago.),y,space,,,,,,,,,0,12,12,12,0,8,8,8,,,,,,,,,,,,,,,,,,,,,,,,,,,,,,,,,,,,,,,,,,,,,,,,,,,,,,,,,,,,,,,,,,,,,1.0782,1173.8110459000009,None,None,0,1173.8110459000009,None,,P039,FENCOG,2,Pre,2022_Apr_27_1125,N-Back (New Version 2021),2021.1.4,120.57315655725225,
,,,,Conditions/Version_1/twoback(4)_v1.xlsx,New rule: Press 'space' when you see 2-back (i.e. the same letter as the one that appeared 2 letters ago.),,,,,,,,,,,0,12,12,12,,,,,,,,,,,,,,,,,,,,,,,,,,,,,,,,,,,,,,,,,,,,,,,,,,,,,,,,,,,,,,,,,,,,,,,,,,,,,,,,,P039,FENCOG,2,Pre,2022_Apr_27_1125,N-Back (New Version 2021),2021.1.4,120.57315655725225,
,,,,Conditions/Version_1/zeroback(4)_v1.xlsx,New rule: Press 'space' when you see the letter 'x' or 'X'.,o,None,,,,,,,,,0,13,13,13,0,0,0,0,,,,,,,,,,,,,,,,,,,,,,,,,,,,,,,,,,,,,,,,,,,,,,,,,,,,,,,,,,,1175.8317456000004,None,1178.8205319000008,None,space,0.3281872999996267,1178.8205319000008,None,1175.8317456000004,None,1.8284,1181.0086703000006,None,None,1,1181.0086703000006,None,,P039,FENCOG,2,Pre,2022_Apr_27_1125,N-Back (New Version 2021),2021.1.4,120.57315655725225,
,,,,Conditions/Version_1/zeroback(4)_v1.xlsx,New rule: Press 'space' when you see the letter 'x' or 'X'.,X,space,,,,,,,,,0,13,13,13,0,1,1,1,,,,,,,,,,,,,,,,,,,,,,,,,,,,,,,,,,,,,,,,,,,,,,,,,,,,,,,,,,,,,,,,,,,,,1.3448,1184.3577002000002,None,space,1,1184.3577002000002,None,0.4631011999999828,P039,FENCOG,2,Pre,2022_Apr_27_1125,N-Back (New Version 2021),2021.1.4,120.57315655725225,
,,,,Conditions/Version_1/zeroback(4)_v1.xlsx,New rule: Press 'space' when you see the letter 'x' or 'X'.,p,None,,,,,,,,,0,13,13,13,0,2,2,2,,,,,,,,,,,,,,,,,,,,,,,,,,,,,,,,,,,,,,,,,,,,,,,,,,,,,,,,,,,,,,,,,,,,,1.0658,1187.4318348000006,None,None,1,1187.4318348000006,None,,P039,FENCOG,2,Pre,2022_Apr_27_1125,N-Back (New Version 2021),2021.1.4,120.57315655725225,
,,,,Conditions/Version_1/zeroback(4)_v1.xlsx,New rule: Press 'space' when you see the letter 'x' or 'X'.,m,None,,,,,,,,,0,13,13,13,0,3,3,3,,,,,,,,,,,,,,,,,,,,,,,,,,,,,,,,,,,,,,,,,,,,,,,,,,,,,,,,,,,,,,,,,,,,,1.5556,1190.9902022000006,None,None,1,1190.9902022000006,None,,P039,FENCOG,2,Pre,2022_Apr_27_1125,N-Back (New Version 2021),2021.1.4,120.57315655725225,
,,,,Conditions/Version_1/zeroback(4)_v1.xlsx,New rule: Press 'space' when you see the letter 'x' or 'X'.,n,None,,,,,,,,,0,13,13,13,0,4,4,4,,,,,,,,,,,,,,,,,,,,,,,,,,,,,,,,,,,,,,,,,,,,,,,,,,,,,,,,,,,,,,,,,,,,,1.816,1194.8130362000002,None,None,1,1194.8130362000002,None,,P039,FENCOG,2,Pre,2022_Apr_27_1125,N-Back (New Version 2021),2021.1.4,120.57315655725225,
,,,,Conditions/Version_1/zeroback(4)_v1.xlsx,New rule: Press 'space' when you see the letter 'x' or 'X'.,m,None,,,,,,,,,0,13,13,13,0,5,5,5,,,,,,,,,,,,,,,,,,,,,,,,,,,,,,,,,,,,,,,,,,,,,,,,,,,,,,,,,,,,,,,,,,,,,1.3014,1198.1203604000002,None,None,1,1198.1203604000002,None,,P039,FENCOG,2,Pre,2022_Apr_27_1125,N-Back (New Version 2021),2021.1.4,120.57315655725225,
,,,,Conditions/Version_1/zeroback(4)_v1.xlsx,New rule: Press 'space' when you see the letter 'x' or 'X'.,C,None,,,,,,,,,0,13,13,13,0,6,6,6,,,,,,,,,,,,,,,,,,,,,,,,,,,,,,,,,,,,,,,,,,,,,,,,,,,,,,,,,,,,,,,,,,,,,1.537,1201.6652261000008,None,None,1,1201.6652261000008,None,,P039,FENCOG,2,Pre,2022_Apr_27_1125,N-Back (New Version 2021),2021.1.4,120.57315655725225,
,,,,Conditions/Version_1/zeroback(4)_v1.xlsx,New rule: Press 'space' when you see the letter 'x' or 'X'.,m,None,,,,,,,,,0,13,13,13,0,7,7,7,,,,,,,,,,,,,,,,,,,,,,,,,,,,,,,,,,,,,,,,,,,,,,,,,,,,,,,,,,,,,,,,,,,,,1.0224,1204.6982535000006,None,None,1,1204.6982535000006,None,,P039,FENCOG,2,Pre,2022_Apr_27_1125,N-Back (New Version 2021),2021.1.4,120.57315655725225,
,,,,Conditions/Version_1/zeroback(4)_v1.xlsx,New rule: Press 'space' when you see the letter 'x' or 'X'.,p,None,,,,,,,,,0,13,13,13,0,8,8,8,,,,,,,,,,,,,,,,,,,,,,,,,,,,,,,,,,,,,,,,,,,,,,,,,,,,,,,,,,,,,,,,,,,,,1.6982,1208.40074,None,None,1,1208.40074,None,,P039,FENCOG,2,Pre,2022_Apr_27_1125,N-Back (New Version 2021),2021.1.4,120.57315655725225,
,,,,Conditions/Version_1/zeroback(4)_v1.xlsx,New rule: Press 'space' when you see the letter 'x' or 'X'.,X,space,,,,,,,,,0,13,13,13,0,9,9,9,,,,,,,,,,,,,,,,,,,,,,,,,,,,,,,,,,,,,,,,,,,,,,,,,,,,,,,,,,,,,,,,,,,,,1.4874,1211.8913127000005,None,space,1,1211.8913127000005,None,0.6655658999998195,P039,FENCOG,2,Pre,2022_Apr_27_1125,N-Back (New Version 2021),2021.1.4,120.57315655725225,
,,,,Conditions/Version_1/zeroback(4)_v1.xlsx,New rule: Press 'space' when you see the letter 'x' or 'X'.,,,,,,,,,,,0,13,13,13,,,,,,,,,,,,,,,,,,,,,,,,,,,,,,,,,,,,,,,,,,,,,,,,,,,,,,,,,,,,,,,,,,,,,,,,,,,,,,,,,P039,FENCOG,2,Pre,2022_Apr_27_1125,N-Back (New Version 2021),2021.1.4,120.57315655725225,
,,,,Conditions/Version_1/oneback(4)_v1.xlsx,New rule: Press 'space' when you see 1-back (i.e. the same letter as the one that appeared 1 letter ago.),w,None,,,,,,,,,0,14,14,14,0,0,0,0,,,,,,,,,,,,,,,,,,,,,,,,,,,,,,,,,,,,,,,,,,,,,,,,,,,,,,,,,,,1213.9127731000008,None,1216.9008685000008,None,space,0.6719511000001148,1216.9008685000008,None,1213.9127731000008,None,1.7602,1219.3642698000003,None,None,1,1219.3642698000003,None,,P039,FENCOG,2,Pre,2022_Apr_27_1125,N-Back (New Version 2021),2021.1.4,120.57315655725225,
,,,,Conditions/Version_1/oneback(4)_v1.xlsx,New rule: Press 'space' when you see 1-back (i.e. the same letter as the one that appeared 1 letter ago.),q,None,,,,,,,,,0,14,14,14,0,1,1,1,,,,,,,,,,,,,,,,,,,,,,,,,,,,,,,,,,,,,,,,,,,,,,,,,,,,,,,,,,,,,,,,,,,,,1.0534,1222.4215523000003,None,None,1,1222.4215523000003,None,,P039,FENCOG,2,Pre,2022_Apr_27_1125,N-Back (New Version 2021),2021.1.4,120.57315655725225,
,,,,Conditions/Version_1/oneback(4)_v1.xlsx,New rule: Press 'space' when you see 1-back (i.e. the same letter as the one that appeared 1 letter ago.),i,None,,,,,,,,,0,14,14,14,0,2,2,2,,,,,,,,,,,,,,,,,,,,,,,,,,,,,,,,,,,,,,,,,,,,,,,,,,,,,,,,,,,,,,,,,,,,,1.1154,1225.5394618,None,None,1,1225.5394618,None,,P039,FENCOG,2,Pre,2022_Apr_27_1125,N-Back (New Version 2021),2021.1.4,120.57315655725225,
,,,,Conditions/Version_1/oneback(4)_v1.xlsx,New rule: Press 'space' when you see 1-back (i.e. the same letter as the one that appeared 1 letter ago.),t,None,,,,,,,,,0,14,14,14,0,3,3,3,,,,,,,,,,,,,,,,,,,,,,,,,,,,,,,,,,,,,,,,,,,,,,,,,,,,,,,,,,,,,,,,,,,,,1.9524,1229.4954983000007,None,None,1,1229.4954983000007,None,,P039,FENCOG,2,Pre,2022_Apr_27_1125,N-Back (New Version 2021),2021.1.4,120.57315655725225,
,,,,Conditions/Version_1/oneback(4)_v1.xlsx,New rule: Press 'space' when you see 1-back (i.e. the same letter as the one that appeared 1 letter ago.),v,None,,,,,,,,,0,14,14,14,0,4,4,4,,,,,,,,,,,,,,,,,,,,,,,,,,,,,,,,,,,,,,,,,,,,,,,,,,,,,,,,,,,,,,,,,,,,,1.7168,1233.2241490000006,None,None,1,1233.2241490000006,None,,P039,FENCOG,2,Pre,2022_Apr_27_1125,N-Back (New Version 2021),2021.1.4,120.57315655725225,
,,,,Conditions/Version_1/oneback(4)_v1.xlsx,New rule: Press 'space' when you see 1-back (i.e. the same letter as the one that appeared 1 letter ago.),V,space,,,,,,,,,0,14,14,14,0,5,5,5,,,,,,,,,,,,,,,,,,,,,,,,,,,,,,,,,,,,,,,,,,,,,,,,,,,,,,,,,,,,,,,,,,,,,1.3944,1236.6284409,None,space,1,1236.6284409,None,0.38432920000013837,P039,FENCOG,2,Pre,2022_Apr_27_1125,N-Back (New Version 2021),2021.1.4,120.57315655725225,
,,,,Conditions/Version_1/oneback(4)_v1.xlsx,New rule: Press 'space' when you see 1-back (i.e. the same letter as the one that appeared 1 letter ago.),v,space,,,,,,,,,0,14,14,14,0,6,6,6,,,,,,,,,,,,,,,,,,,,,,,,,,,,,,,,,,,,,,,,,,,,,,,,,,,,,,,,,,,,,,,,,,,,,1.1588,1239.7942517000001,None,space,1,1239.7942517000001,None,0.5546988999994937,P039,FENCOG,2,Pre,2022_Apr_27_1125,N-Back (New Version 2021),2021.1.4,120.57315655725225,
,,,,Conditions/Version_1/oneback(4)_v1.xlsx,New rule: Press 'space' when you see 1-back (i.e. the same letter as the one that appeared 1 letter ago.),p,None,,,,,,,,,0,14,14,14,0,7,7,7,,,,,,,,,,,,,,,,,,,,,,,,,,,,,,,,,,,,,,,,,,,,,,,,,,,,,,,,,,,,,,,,,,,,,1.4936,1243.2917320000006,None,None,1,1243.2917320000006,None,,P039,FENCOG,2,Pre,2022_Apr_27_1125,N-Back (New Version 2021),2021.1.4,120.57315655725225,
,,,,Conditions/Version_1/oneback(4)_v1.xlsx,New rule: Press 'space' when you see 1-back (i.e. the same letter as the one that appeared 1 letter ago.),w,None,,,,,,,,,0,14,14,14,0,8,8,8,,,,,,,,,,,,,,,,,,,,,,,,,,,,,,,,,,,,,,,,,,,,,,,,,,,,,,,,,,,,,,,,,,,,,1.8904,1247.1894329000006,None,None,1,1247.1894329000006,None,,P039,FENCOG,2,Pre,2022_Apr_27_1125,N-Back (New Version 2021),2021.1.4,120.57315655725225,
,,,,Conditions/Version_1/oneback(4)_v1.xlsx,New rule: Press 'space' when you see 1-back (i.e. the same letter as the one that appeared 1 letter ago.),W,space,,,,,,,,,0,14,14,14,0,9,9,9,,,,,,,,,,,,,,,,,,,,,,,,,,,,,,,,,,,,,,,,,,,,,,,,,,,,,,,,,,,,,,,,,,,,,1.816,1251.0102505000004,None,space,1,1251.0102505000004,None,0.4265099999993254,P039,FENCOG,2,Pre,2022_Apr_27_1125,N-Back (New Version 2021),2021.1.4,120.57315655725225,
,,,,Conditions/Version_1/oneback(4)_v1.xlsx,New rule: Press 'space' when you see 1-back (i.e. the same letter as the one that appeared 1 letter ago.),,,,,,,,,,,0,14,14,14,,,,,,,,,,,,,,,,,,,,,,,,,,,,,,,,,,,,,,,,,,,,,,,,,,,,,,,,,,,,,,,,,,,,,,,,,,,,,,,,,P039,FENCOG,2,Pre,2022_Apr_27_1125,N-Back (New Version 2021),2021.1.4,120.57315655725225,
,,,,Conditions/Version_1/threeback(4)_v1.xlsx,New rule: Press 'space' when you see 3-back (i.e. the same letter as the one that appeared 3 letters ago.),A,None,,,,,,,,,0,15,15,15,0,0,0,0,,,,,,,,,,,,,,,,,,,,,,,,,,,,,,,,,,,,,,,,,,,,,,,,,,,,,,,,,,,1253.0351987000004,None,1256.0239717000004,None,space,0.49274239999977,1256.0239717000004,None,1253.0351987000004,None,1.444,1257.9986125000005,None,None,1,1257.9986125000005,None,,P039,FENCOG,2,Pre,2022_Apr_27_1125,N-Back (New Version 2021),2021.1.4,120.57315655725225,
,,,,Conditions/Version_1/threeback(4)_v1.xlsx,New rule: Press 'space' when you see 3-back (i.e. the same letter as the one that appeared 3 letters ago.),n,None,,,,,,,,,0,15,15,15,0,1,1,1,,,,,,,,,,,,,,,,,,,,,,,,,,,,,,,,,,,,,,,,,,,,,,,,,,,,,,,,,,,,,,,,,,,,,1.5246,1261.5290640000003,None,None,1,1261.5290640000003,None,,P039,FENCOG,2,Pre,2022_Apr_27_1125,N-Back (New Version 2021),2021.1.4,120.57315655725225,
,,,,Conditions/Version_1/threeback(4)_v1.xlsx,New rule: Press 'space' when you see 3-back (i.e. the same letter as the one that appeared 3 letters ago.),g,None,,,,,,,,,0,15,15,15,0,2,2,2,,,,,,,,,,,,,,,,,,,,,,,,,,,,,,,,,,,,,,,,,,,,,,,,,,,,,,,,,,,,,,,,,,,,,1.475,1265.0092076,None,None,1,1265.0092076,None,,P039,FENCOG,2,Pre,2022_Apr_27_1125,N-Back (New Version 2021),2021.1.4,120.57315655725225,
,,,,Conditions/Version_1/threeback(4)_v1.xlsx,New rule: Press 'space' when you see 3-back (i.e. the same letter as the one that appeared 3 letters ago.),A,space,,,,,,,,,0,15,15,15,0,3,3,3,,,,,,,,,,,,,,,,,,,,,,,,,,,,,,,,,,,,,,,,,,,,,,,,,,,,,,,,,,,,,,,,,,,,,1.6858,1268.7017688000005,None,space,1,1268.7017688000005,None,0.7191120999996201,P039,FENCOG,2,Pre,2022_Apr_27_1125,N-Back (New Version 2021),2021.1.4,120.57315655725225,
,,,,Conditions/Version_1/threeback(4)_v1.xlsx,New rule: Press 'space' when you see 3-back (i.e. the same letter as the one that appeared 3 letters ago.),p,None,,,,,,,,,0,15,15,15,0,4,4,4,,,,,,,,,,,,,,,,,,,,,,,,,,,,,,,,,,,,,,,,,,,,,,,,,,,,,,,,,,,,,,,,,,,,,1.6672,1272.3788647000001,None,None,1,1272.3788647000001,None,,P039,FENCOG,2,Pre,2022_Apr_27_1125,N-Back (New Version 2021),2021.1.4,120.57315655725225,
,,,,Conditions/Version_1/threeback(4)_v1.xlsx,New rule: Press 'space' when you see 3-back (i.e. the same letter as the one that appeared 3 letters ago.),O,None,,,,,,,,,0,15,15,15,0,5,5,5,,,,,,,,,,,,,,,,,,,,,,,,,,,,,,,,,,,,,,,,,,,,,,,,,,,,,,,,,,,,,,,,,,,,,1.754,1276.1391648000008,None,None,1,1276.1391648000008,None,,P039,FENCOG,2,Pre,2022_Apr_27_1125,N-Back (New Version 2021),2021.1.4,120.57315655725225,
,,,,Conditions/Version_1/threeback(4)_v1.xlsx,New rule: Press 'space' when you see 3-back (i.e. the same letter as the one that appeared 3 letters ago.),a,space,,,,,,,,,0,15,15,15,0,6,6,6,,,,,,,,,,,,,,,,,,,,,,,,,,,,,,,,,,,,,,,,,,,,,,,,,,,,,,,,,,,,,,,,,,,,,1.7912,1279.9342771000001,None,space,1,1279.9342771000001,None,0.3744446999999127,P039,FENCOG,2,Pre,2022_Apr_27_1125,N-Back (New Version 2021),2021.1.4,120.57315655725225,
,,,,Conditions/Version_1/threeback(4)_v1.xlsx,New rule: Press 'space' when you see 3-back (i.e. the same letter as the one that appeared 3 letters ago.),p,space,,,,,,,,,0,15,15,15,0,7,7,7,,,,,,,,,,,,,,,,,,,,,,,,,,,,,,,,,,,,,,,,,,,,,,,,,,,,,,,,,,,,,,,,,,,,,1.196,1283.1394245000001,None,space,1,1283.1394245000001,None,0.4416719999999259,P039,FENCOG,2,Pre,2022_Apr_27_1125,N-Back (New Version 2021),2021.1.4,120.57315655725225,
,,,,Conditions/Version_1/threeback(4)_v1.xlsx,New rule: Press 'space' when you see 3-back (i.e. the same letter as the one that appeared 3 letters ago.),x,None,,,,,,,,,0,15,15,15,0,8,8,8,,,,,,,,,,,,,,,,,,,,,,,,,,,,,,,,,,,,,,,,,,,,,,,,,,,,,,,,,,,,,,,,,,,,,1.909,1287.0544253000007,None,None,1,1287.0544253000007,None,,P039,FENCOG,2,Pre,2022_Apr_27_1125,N-Back (New Version 2021),2021.1.4,120.57315655725225,
,,,,Conditions/Version_1/threeback(4)_v1.xlsx,New rule: Press 'space' when you see 3-back (i.e. the same letter as the one that appeared 3 letters ago.),X,None,,,,,,,,,0,15,15,15,0,9,9,9,,,,,,,,,,,,,,,,,,,,,,,,,,,,,,,,,,,,,,,,,,,,,,,,,,,,,,,,,,,,,,,,,,,,,1.4006,1290.4684377000003,None,None,1,1290.4684377000003,None,,P039,FENCOG,2,Pre,2022_Apr_27_1125,N-Back (New Version 2021),2021.1.4,120.57315655725225,
,,,,Conditions/Version_1/threeback(4)_v1.xlsx,New rule: Press 'space' when you see 3-back (i.e. the same letter as the one that appeared 3 letters ago.),,,,,,,,,,,0,15,15,15,,,,,,,,,,,,,,,,,,,,,,,,,,,,,,,,,,,,,,,,,,,,,,,,,,,,,,,,,,,,,,,,,,,,,,,,,,,,,,,,,P039,FENCOG,2,Pre,2022_Apr_27_1125,N-Back (New Version 2021),2021.1.4,120.57315655725225,
