CondFileP,InstructionsP,LettersDisplayedP,CorrectnessP,CondFile,Instructions,LettersDisplayed,Correctness,practicetrials.thisRepN,practicetrials.thisTrialN,practicetrials.thisN,practicetrials.thisIndex,InnerLoopPractice.thisRepN,InnerLoopPractice.thisTrialN,InnerLoopPractice.thisN,InnerLoopPractice.thisIndex,trials.thisRepN,trials.thisTrialN,trials.thisN,trials.thisIndex,InnerLoop.thisRepN,InnerLoop.thisTrialN,InnerLoop.thisN,InnerLoop.thisIndex,TaskVersionText.started,TaskVersionText.stopped,InstrKey1.keys,InstrKey1.rt,InstrKey1.started,InstrKey1.stopped,text.started,text.stopped,key_resp_4.keys,key_resp_4.rt,key_resp_4.started,key_resp_4.stopped,text_2.started,text_2.stopped,key_resp_3.keys,key_resp_3.rt,key_resp_3.started,key_resp_3.stopped,text_3.started,text_3.stopped,key_resp_2.keys,key_resp_2.rt,key_resp_2.started,key_resp_2.stopped,PractIn1.started,PractIn1.stopped,PractIn2.started,PractIn2.stopped,PractInstructionPass.keys,PractInstructionPass.rt,PractInstructionPass.started,PractInstructionPass.stopped,PractBlock1.started,PractBlock1.stopped,ISIjitterPractice,ISI_Pract_Fixation.started,ISI_Pract_Fixation.stopped,N_backP.started,N_backP.stopped,KeyPractice.keys,KeyPractice.corr,KeyPractice.started,KeyPractice.stopped,text_4.started,text_4.stopped,KeyPractice.rt,TransitionText.started,TransitionText.stopped,key_resp_6.keys,key_resp_6.rt,key_resp_6.started,key_resp_6.stopped,text_5.started,text_5.stopped,key_resp_5.keys,key_resp_5.rt,key_resp_5.started,key_resp_5.stopped,MainInt1.started,MainInt1.stopped,MainInt2.started,MainInt2.stopped,InstructionPass.keys,InstructionPass.rt,InstructionPass.started,InstructionPass.stopped,Blocks1.started,Blocks1.stopped,ISIjitter,N_backD.started,N_backD.stopped,key_resp.keys,key_resp.corr,key_resp.started,key_resp.stopped,key_resp.rt,participant,Study Name,Task Version (required to run),PRE/POST,date,expName,psychopyVersion,frameRate
,,,,,,,,,,,,,,,,,,,,,,,,86.1866409,None,space,24.1708839,86.680041,None,,,,,,,,,,,,,,,,,,,,,,,,,,,,,,,,,,,,,,,,,,,,,,,,,,,,,,,,,,,,,,,,,,,,,,,P039,FENCOG,1,Post,2022_May_04_1101,N-Back (New Version 2021),2021.1.4,119.6220899
,,,,,,,,,,,,,,,,,,,,,,,,,,,,,,110.9045422,None,space,1.8835011,111.3914613,None,,,,,,,,,,,,,,,,,,,,,,,,,,,,,,,,,,,,,,,,,,,,,,,,,,,,,,,,,,,,,,,,,P039,FENCOG,1,Post,2022_May_04_1101,N-Back (New Version 2021),2021.1.4,119.6220899
,,,,,,,,,,,,,,,,,,,,,,,,,,,,,,,,,,,,113.3234098,None,space,0.3246767,113.8144261,None,,,,,,,,,,,,,,,,,,,,,,,,,,,,,,,,,,,,,,,,,,,,,,,,,,,,,,,,,,,P039,FENCOG,1,Post,2022_May_04_1101,N-Back (New Version 2021),2021.1.4,119.6220899
,,,,,,,,,,,,,,,,,,,,,,,,,,,,,,,,,,,,,,,,,,114.1845434,None,space,0.2610337,114.6779579,None,,,,,,,,,,,,,,,,,,,,,,,,,,,,,,,,,,,,,,,,,,,,,,,,,,,,,P039,FENCOG,1,Post,2022_May_04_1101,N-Back (New Version 2021),2021.1.4,119.6220899
Conditions/Version_1Pr/zeroback(1)_v1.xlsx,Rule: Press 'space' when you see the letter 'x' or 'X'.,Z,None,,,,,0,0,0,0,0,0,0,0,,,,,,,,,,,,,,,,,,,,,,,,,,,,,,,,,116.549731,None,119.551594,None,space,4.9872785,119.551594,None,116.549731,None,1.09,124.5723855,None,125.67617,None,None,1,125.67617,None,127.685263,None,,,,,,,,,,,,,,,,,,,,,,,,,,,,,,,,P039,FENCOG,1,Post,2022_May_04_1101,N-Back (New Version 2021),2021.1.4,119.6220899
Conditions/Version_1Pr/zeroback(1)_v1.xlsx,Rule: Press 'space' when you see the letter 'x' or 'X'.,r,None,,,,,0,0,0,0,0,1,1,1,,,,,,,,,,,,,,,,,,,,,,,,,,,,,,,,,,,,,,,,,,,1.965,129.1755713,None,131.1476161,None,None,1,131.1476161,None,133.1521303,None,,,,,,,,,,,,,,,,,,,,,,,,,,,,,,,,P039,FENCOG,1,Post,2022_May_04_1101,N-Back (New Version 2021),2021.1.4,119.6220899
Conditions/Version_1Pr/zeroback(1)_v1.xlsx,Rule: Press 'space' when you see the letter 'x' or 'X'.,X,space,,,,,0,0,0,0,0,2,2,2,,,,,,,,,,,,,,,,,,,,,,,,,,,,,,,,,,,,,,,,,,,1.74,134.6488704,None,136.3995852,None,space,1,136.3995852,None,136.7163906,None,0.2993358,,,,,,,,,,,,,,,,,,,,,,,,,,,,,,,P039,FENCOG,1,Post,2022_May_04_1101,N-Back (New Version 2021),2021.1.4,119.6220899
Conditions/Version_1Pr/zeroback(1)_v1.xlsx,Rule: Press 'space' when you see the letter 'x' or 'X'.,p,None,,,,,0,0,0,0,0,3,3,3,,,,,,,,,,,,,,,,,,,,,,,,,,,,,,,,,,,,,,,,,,,1.165,138.2244854,None,139.3951771,None,None,1,139.3951771,None,141.3917306,None,,,,,,,,,,,,,,,,,,,,,,,,,,,,,,,,P039,FENCOG,1,Post,2022_May_04_1101,N-Back (New Version 2021),2021.1.4,119.6220899
Conditions/Version_1Pr/zeroback(1)_v1.xlsx,Rule: Press 'space' when you see the letter 'x' or 'X'.,w,None,,,,,0,0,0,0,0,4,4,4,,,,,,,,,,,,,,,,,,,,,,,,,,,,,,,,,,,,,,,,,,,1.115,142.8964838,None,144.0189783,None,None,1,144.0189783,None,146.0195488,None,,,,,,,,,,,,,,,,,,,,,,,,,,,,,,,,P039,FENCOG,1,Post,2022_May_04_1101,N-Back (New Version 2021),2021.1.4,119.6220899
Conditions/Version_1Pr/zeroback(1)_v1.xlsx,Rule: Press 'space' when you see the letter 'x' or 'X'.,e,None,,,,,0,0,0,0,0,5,5,5,,,,,,,,,,,,,,,,,,,,,,,,,,,,,,,,,,,,,,,,,,,1.415,147.5220471,None,148.9432442,None,None,1,148.9432442,None,150.9476575,None,,,,,,,,,,,,,,,,,,,,,,,,,,,,,,,,P039,FENCOG,1,Post,2022_May_04_1101,N-Back (New Version 2021),2021.1.4,119.6220899
Conditions/Version_1Pr/zeroback(1)_v1.xlsx,Rule: Press 'space' when you see the letter 'x' or 'X'.,X,space,,,,,0,0,0,0,0,6,6,6,,,,,,,,,,,,,,,,,,,,,,,,,,,,,,,,,,,,,,,,,,,1.39,152.443954,None,153.8429014,None,space,1,153.8429014,None,154.1223691,None,0.2644302,,,,,,,,,,,,,,,,,,,,,,,,,,,,,,,P039,FENCOG,1,Post,2022_May_04_1101,N-Back (New Version 2021),2021.1.4,119.6220899
Conditions/Version_1Pr/zeroback(1)_v1.xlsx,Rule: Press 'space' when you see the letter 'x' or 'X'.,x,space,,,,,0,0,0,0,0,7,7,7,,,,,,,,,,,,,,,,,,,,,,,,,,,,,,,,,,,,,,,,,,,1.915,155.627852,None,157.5492504,None,space,1,157.5492504,None,158.3190362,None,0.749741,,,,,,,,,,,,,,,,,,,,,,,,,,,,,,,P039,FENCOG,1,Post,2022_May_04_1101,N-Back (New Version 2021),2021.1.4,119.6220899
Conditions/Version_1Pr/zeroback(1)_v1.xlsx,Rule: Press 'space' when you see the letter 'x' or 'X'.,p,None,,,,,0,0,0,0,0,8,8,8,,,,,,,,,,,,,,,,,,,,,,,,,,,,,,,,,,,,,,,,,,,1.665,159.8263366,None,161.496833,None,None,1,161.496833,None,163.5048436,None,,,,,,,,,,,,,,,,,,,,,,,,,,,,,,,,P039,FENCOG,1,Post,2022_May_04_1101,N-Back (New Version 2021),2021.1.4,119.6220899
Conditions/Version_1Pr/zeroback(1)_v1.xlsx,Rule: Press 'space' when you see the letter 'x' or 'X'.,r,None,,,,,0,0,0,0,0,9,9,9,,,,,,,,,,,,,,,,,,,,,,,,,,,,,,,,,,,,,,,,,,,1.44,164.9983097,None,166.4449582,None,None,1,166.4449582,None,168.4417986,None,,,,,,,,,,,,,,,,,,,,,,,,,,,,,,,,P039,FENCOG,1,Post,2022_May_04_1101,N-Back (New Version 2021),2021.1.4,119.6220899
Conditions/Version_1Pr/zeroback(1)_v1.xlsx,Rule: Press 'space' when you see the letter 'x' or 'X'.,,,,,,,0,0,0,0,,,,,,,,,,,,,,,,,,,,,,,,,,,,,,,,,,,,,,,,,,,,,,,,,,,,,,,,,,,,,,,,,,,,,,,,,,,,,,,,,,,,,,,,,P039,FENCOG,1,Post,2022_May_04_1101,N-Back (New Version 2021),2021.1.4,119.6220899
Conditions/Version_1Pr/oneback(1)_v1.xlsx,New rule: Press 'space' when you see 1-back (i.e. the same letter as the one that appeared 1 letter ago.),a,None,,,,,0,1,1,1,0,0,0,0,,,,,,,,,,,,,,,,,,,,,,,,,,,,,,,,,169.981732,None,172.9672376,None,space,0.3877468,172.9672376,None,169.981732,None,1.965,173.3927037,None,175.3731413,None,None,1,175.3731413,None,177.3695187,None,,,,,,,,,,,,,,,,,,,,,,,,,,,,,,,,P039,FENCOG,1,Post,2022_May_04_1101,N-Back (New Version 2021),2021.1.4,119.6220899
Conditions/Version_1Pr/oneback(1)_v1.xlsx,New rule: Press 'space' when you see 1-back (i.e. the same letter as the one that appeared 1 letter ago.),x,None,,,,,0,1,1,1,0,1,1,1,,,,,,,,,,,,,,,,,,,,,,,,,,,,,,,,,,,,,,,,,,,1.565,178.8693991,None,180.4382125,None,None,1,180.4382125,None,182.4408911,None,,,,,,,,,,,,,,,,,,,,,,,,,,,,,,,,P039,FENCOG,1,Post,2022_May_04_1101,N-Back (New Version 2021),2021.1.4,119.6220899
Conditions/Version_1Pr/oneback(1)_v1.xlsx,New rule: Press 'space' when you see 1-back (i.e. the same letter as the one that appeared 1 letter ago.),g,None,,,,,0,1,1,1,0,2,2,2,,,,,,,,,,,,,,,,,,,,,,,,,,,,,,,,,,,,,,,,,,,1.74,183.9427179,None,185.6909998,None,None,1,185.6909998,None,187.6944574,None,,,,,,,,,,,,,,,,,,,,,,,,,,,,,,,,P039,FENCOG,1,Post,2022_May_04_1101,N-Back (New Version 2021),2021.1.4,119.6220899
Conditions/Version_1Pr/oneback(1)_v1.xlsx,New rule: Press 'space' when you see 1-back (i.e. the same letter as the one that appeared 1 letter ago.),G,space,,,,,0,1,1,1,0,3,3,3,,,,,,,,,,,,,,,,,,,,,,,,,,,,,,,,,,,,,,,,,,,1.365,189.1910924,None,190.5668422,None,space,1,190.5668422,None,190.9101616,None,0.3321217,,,,,,,,,,,,,,,,,,,,,,,,,,,,,,,P039,FENCOG,1,Post,2022_May_04_1101,N-Back (New Version 2021),2021.1.4,119.6220899
Conditions/Version_1Pr/oneback(1)_v1.xlsx,New rule: Press 'space' when you see 1-back (i.e. the same letter as the one that appeared 1 letter ago.),u,None,,,,,0,1,1,1,0,4,4,4,,,,,,,,,,,,,,,,,,,,,,,,,,,,,,,,,,,,,,,,,,,1.44,192.4170134,None,193.863965,None,None,1,193.863965,None,195.8630123,None,,,,,,,,,,,,,,,,,,,,,,,,,,,,,,,,P039,FENCOG,1,Post,2022_May_04_1101,N-Back (New Version 2021),2021.1.4,119.6220899
Conditions/Version_1Pr/oneback(1)_v1.xlsx,New rule: Press 'space' when you see 1-back (i.e. the same letter as the one that appeared 1 letter ago.),y,None,,,,,0,1,1,1,0,5,5,5,,,,,,,,,,,,,,,,,,,,,,,,,,,,,,,,,,,,,,,,,,,1.99,197.363894,None,199.3621152,None,None,1,199.3621152,None,201.3675228,None,,,,,,,,,,,,,,,,,,,,,,,,,,,,,,,,P039,FENCOG,1,Post,2022_May_04_1101,N-Back (New Version 2021),2021.1.4,119.6220899
Conditions/Version_1Pr/oneback(1)_v1.xlsx,New rule: Press 'space' when you see 1-back (i.e. the same letter as the one that appeared 1 letter ago.),y,space,,,,,0,1,1,1,0,6,6,6,,,,,,,,,,,,,,,,,,,,,,,,,,,,,,,,,,,,,,,,,,,1.94,202.8621552,None,204.8044283,None,space,1,204.8044283,None,205.1396154,None,0.3184923,,,,,,,,,,,,,,,,,,,,,,,,,,,,,,,P039,FENCOG,1,Post,2022_May_04_1101,N-Back (New Version 2021),2021.1.4,119.6220899
Conditions/Version_1Pr/oneback(1)_v1.xlsx,New rule: Press 'space' when you see 1-back (i.e. the same letter as the one that appeared 1 letter ago.),k,None,,,,,0,1,1,1,0,7,7,7,,,,,,,,,,,,,,,,,,,,,,,,,,,,,,,,,,,,,,,,,,,1.64,206.6442405,None,208.2917439,None,None,1,208.2917439,None,210.3002694,None,,,,,,,,,,,,,,,,,,,,,,,,,,,,,,,,P039,FENCOG,1,Post,2022_May_04_1101,N-Back (New Version 2021),2021.1.4,119.6220899
Conditions/Version_1Pr/oneback(1)_v1.xlsx,New rule: Press 'space' when you see 1-back (i.e. the same letter as the one that appeared 1 letter ago.),c,None,,,,,0,1,1,1,0,8,8,8,,,,,,,,,,,,,,,,,,,,,,,,,,,,,,,,,,,,,,,,,,,1.265,211.7928357,None,213.0663812,None,None,1,213.0663812,None,215.0686392,None,,,,,,,,,,,,,,,,,,,,,,,,,,,,,,,,P039,FENCOG,1,Post,2022_May_04_1101,N-Back (New Version 2021),2021.1.4,119.6220899
Conditions/Version_1Pr/oneback(1)_v1.xlsx,New rule: Press 'space' when you see 1-back (i.e. the same letter as the one that appeared 1 letter ago.),r,None,,,,,0,1,1,1,0,9,9,9,,,,,,,,,,,,,,,,,,,,,,,,,,,,,,,,,,,,,,,,,,,1.615,216.5664496,None,218.1904491,None,None,1,218.1904491,None,220.1888736,None,,,,,,,,,,,,,,,,,,,,,,,,,,,,,,,,P039,FENCOG,1,Post,2022_May_04_1101,N-Back (New Version 2021),2021.1.4,119.6220899
Conditions/Version_1Pr/oneback(1)_v1.xlsx,New rule: Press 'space' when you see 1-back (i.e. the same letter as the one that appeared 1 letter ago.),,,,,,,0,1,1,1,,,,,,,,,,,,,,,,,,,,,,,,,,,,,,,,,,,,,,,,,,,,,,,,,,,,,,,,,,,,,,,,,,,,,,,,,,,,,,,,,,,,,,,,,P039,FENCOG,1,Post,2022_May_04_1101,N-Back (New Version 2021),2021.1.4,119.6220899
Conditions/Version_1Pr/twoback(1)_v1.xlsx,New rule: Press 'space' when you see 2-back (i.e. the same letter as the one that appeared 2 letters ago.),E,None,,,,,0,2,2,2,0,0,0,0,,,,,,,,,,,,,,,,,,,,,,,,,,,,,,,,,221.7343623,None,224.7119733,None,space,0.4271653,224.7119733,None,221.7343623,None,1.84,225.1748983,None,227.0289933,None,None,1,227.0289933,None,229.0369599,None,,,,,,,,,,,,,,,,,,,,,,,,,,,,,,,,P039,FENCOG,1,Post,2022_May_04_1101,N-Back (New Version 2021),2021.1.4,119.6220899
Conditions/Version_1Pr/twoback(1)_v1.xlsx,New rule: Press 'space' when you see 2-back (i.e. the same letter as the one that appeared 2 letters ago.),p,None,,,,,0,2,2,2,0,1,1,1,,,,,,,,,,,,,,,,,,,,,,,,,,,,,,,,,,,,,,,,,,,1.165,230.5292227,None,231.698563,None,None,1,231.698563,None,233.701776,None,,,,,,,,,,,,,,,,,,,,,,,,,,,,,,,,P039,FENCOG,1,Post,2022_May_04_1101,N-Back (New Version 2021),2021.1.4,119.6220899
Conditions/Version_1Pr/twoback(1)_v1.xlsx,New rule: Press 'space' when you see 2-back (i.e. the same letter as the one that appeared 2 letters ago.),e,space,,,,,0,2,2,2,0,2,2,2,,,,,,,,,,,,,,,,,,,,,,,,,,,,,,,,,,,,,,,,,,,1.94,235.2030841,None,237.1490819,None,space,1,237.1490819,None,237.5366745,None,0.3737723,,,,,,,,,,,,,,,,,,,,,,,,,,,,,,,P039,FENCOG,1,Post,2022_May_04_1101,N-Back (New Version 2021),2021.1.4,119.6220899
Conditions/Version_1Pr/twoback(1)_v1.xlsx,New rule: Press 'space' when you see 2-back (i.e. the same letter as the one that appeared 2 letters ago.),s,None,,,,,0,2,2,2,0,3,3,3,,,,,,,,,,,,,,,,,,,,,,,,,,,,,,,,,,,,,,,,,,,1.19,239.0440081,None,240.2407924,None,None,1,240.2407924,None,242.2431792,None,,,,,,,,,,,,,,,,,,,,,,,,,,,,,,,,P039,FENCOG,1,Post,2022_May_04_1101,N-Back (New Version 2021),2021.1.4,119.6220899
Conditions/Version_1Pr/twoback(1)_v1.xlsx,New rule: Press 'space' when you see 2-back (i.e. the same letter as the one that appeared 2 letters ago.),S,None,,,,,0,2,2,2,0,4,4,4,,,,,,,,,,,,,,,,,,,,,,,,,,,,,,,,,,,,,,,,,,,1.44,243.7413697,None,245.1863015,None,space,0,245.1863015,None,245.6973186,None,0.4964641,,,,,,,,,,,,,,,,,,,,,,,,,,,,,,,P039,FENCOG,1,Post,2022_May_04_1101,N-Back (New Version 2021),2021.1.4,119.6220899
Conditions/Version_1Pr/twoback(1)_v1.xlsx,New rule: Press 'space' when you see 2-back (i.e. the same letter as the one that appeared 2 letters ago.),s,space,,,,,0,2,2,2,0,5,5,5,,,,,,,,,,,,,,,,,,,,,,,,,,,,,,,,,,,,,,,,,,,1.34,247.1987184,None,248.5401302,None,space,1,248.5401302,None,249.917921,None,1.3665473,,,,,,,,,,,,,,,,,,,,,,,,,,,,,,,P039,FENCOG,1,Post,2022_May_04_1101,N-Back (New Version 2021),2021.1.4,119.6220899
Conditions/Version_1Pr/twoback(1)_v1.xlsx,New rule: Press 'space' when you see 2-back (i.e. the same letter as the one that appeared 2 letters ago.),P,None,,,,,0,2,2,2,0,6,6,6,,,,,,,,,,,,,,,,,,,,,,,,,,,,,,,,,,,,,,,,,,,1.915,251.4224671,None,253.3394044,None,None,1,253.3394044,None,255.3462734,None,,,,,,,,,,,,,,,,,,,,,,,,,,,,,,,,P039,FENCOG,1,Post,2022_May_04_1101,N-Back (New Version 2021),2021.1.4,119.6220899
Conditions/Version_1Pr/twoback(1)_v1.xlsx,New rule: Press 'space' when you see 2-back (i.e. the same letter as the one that appeared 2 letters ago.),C,None,,,,,0,2,2,2,0,7,7,7,,,,,,,,,,,,,,,,,,,,,,,,,,,,,,,,,,,,,,,,,,,1.365,256.8457911,None,258.2129568,None,None,1,258.2129568,None,260.2200178,None,,,,,,,,,,,,,,,,,,,,,,,,,,,,,,,,P039,FENCOG,1,Post,2022_May_04_1101,N-Back (New Version 2021),2021.1.4,119.6220899
Conditions/Version_1Pr/twoback(1)_v1.xlsx,New rule: Press 'space' when you see 2-back (i.e. the same letter as the one that appeared 2 letters ago.),x,None,,,,,0,2,2,2,0,8,8,8,,,,,,,,,,,,,,,,,,,,,,,,,,,,,,,,,,,,,,,,,,,1.115,261.7193453,None,262.8357969,None,None,1,262.8357969,None,264.8351384,None,,,,,,,,,,,,,,,,,,,,,,,,,,,,,,,,P039,FENCOG,1,Post,2022_May_04_1101,N-Back (New Version 2021),2021.1.4,119.6220899
Conditions/Version_1Pr/twoback(1)_v1.xlsx,New rule: Press 'space' when you see 2-back (i.e. the same letter as the one that appeared 2 letters ago.),Z,None,,,,,0,2,2,2,0,9,9,9,,,,,,,,,,,,,,,,,,,,,,,,,,,,,,,,,,,,,,,,,,,1.74,266.3346949,None,268.0758558,None,None,1,268.0758558,None,270.0752542,None,,,,,,,,,,,,,,,,,,,,,,,,,,,,,,,,P039,FENCOG,1,Post,2022_May_04_1101,N-Back (New Version 2021),2021.1.4,119.6220899
Conditions/Version_1Pr/twoback(1)_v1.xlsx,New rule: Press 'space' when you see 2-back (i.e. the same letter as the one that appeared 2 letters ago.),,,,,,,0,2,2,2,,,,,,,,,,,,,,,,,,,,,,,,,,,,,,,,,,,,,,,,,,,,,,,,,,,,,,,,,,,,,,,,,,,,,,,,,,,,,,,,,,,,,,,,,P039,FENCOG,1,Post,2022_May_04_1101,N-Back (New Version 2021),2021.1.4,119.6220899
Conditions/Version_1Pr/threeback(1)_v1.xlsx,New rule: Press 'space' when you see 3-back (i.e. the same letter as the one that appeared 3 letters ago.),r,None,,,,,0,3,3,3,0,0,0,0,,,,,,,,,,,,,,,,,,,,,,,,,,,,,,,,,271.5988832,None,274.587574,None,space,1.503043,274.587574,None,271.5988832,None,1.89,276.1259777,None,278.0310784,None,None,1,278.0310784,None,280.032977,None,,,,,,,,,,,,,,,,,,,,,,,,,,,,,,,,P039,FENCOG,1,Post,2022_May_04_1101,N-Back (New Version 2021),2021.1.4,119.6220899
Conditions/Version_1Pr/threeback(1)_v1.xlsx,New rule: Press 'space' when you see 3-back (i.e. the same letter as the one that appeared 3 letters ago.),a,None,,,,,0,3,3,3,0,1,1,1,,,,,,,,,,,,,,,,,,,,,,,,,,,,,,,,,,,,,,,,,,,1.54,281.5303976,None,283.0758629,None,None,1,283.0758629,None,285.0790928,None,,,,,,,,,,,,,,,,,,,,,,,,,,,,,,,,P039,FENCOG,1,Post,2022_May_04_1101,N-Back (New Version 2021),2021.1.4,119.6220899
Conditions/Version_1Pr/threeback(1)_v1.xlsx,New rule: Press 'space' when you see 3-back (i.e. the same letter as the one that appeared 3 letters ago.),t,None,,,,,0,3,3,3,0,2,2,2,,,,,,,,,,,,,,,,,,,,,,,,,,,,,,,,,,,,,,,,,,,1.34,286.5789408,None,287.9265694,None,None,1,287.9265694,None,289.9234408,None,,,,,,,,,,,,,,,,,,,,,,,,,,,,,,,,P039,FENCOG,1,Post,2022_May_04_1101,N-Back (New Version 2021),2021.1.4,119.6220899
Conditions/Version_1Pr/threeback(1)_v1.xlsx,New rule: Press 'space' when you see 3-back (i.e. the same letter as the one that appeared 3 letters ago.),r,space,,,,,0,3,3,3,0,3,3,3,,,,,,,,,,,,,,,,,,,,,,,,,,,,,,,,,,,,,,,,,,,1.99,291.4275672,None,293.4225949,None,space,1,293.4225949,None,294.0287642,None,0.5882801,,,,,,,,,,,,,,,,,,,,,,,,,,,,,,,P039,FENCOG,1,Post,2022_May_04_1101,N-Back (New Version 2021),2021.1.4,119.6220899
Conditions/Version_1Pr/threeback(1)_v1.xlsx,New rule: Press 'space' when you see 3-back (i.e. the same letter as the one that appeared 3 letters ago.),a,None,,,,,0,3,3,3,0,4,4,4,,,,,,,,,,,,,,,,,,,,,,,,,,,,,,,,,,,,,,,,,,,1.04,295.5371089,None,296.5898849,None,space,0,296.5898849,None,297.6330295,None,1.0209615,,,,,,,,,,,,,,,,,,,,,,,,,,,,,,,P039,FENCOG,1,Post,2022_May_04_1101,N-Back (New Version 2021),2021.1.4,119.6220899
Conditions/Version_1Pr/threeback(1)_v1.xlsx,New rule: Press 'space' when you see 3-back (i.e. the same letter as the one that appeared 3 letters ago.),Y,None,,,,,0,3,3,3,0,5,5,5,,,,,,,,,,,,,,,,,,,,,,,,,,,,,,,,,,,,,,,,,,,1.39,299.1372819,None,300.5389664,None,None,1,300.5389664,None,302.5428365,None,,,,,,,,,,,,,,,,,,,,,,,,,,,,,,,,P039,FENCOG,1,Post,2022_May_04_1101,N-Back (New Version 2021),2021.1.4,119.6220899
Conditions/Version_1Pr/threeback(1)_v1.xlsx,New rule: Press 'space' when you see 3-back (i.e. the same letter as the one that appeared 3 letters ago.),q,None,,,,,0,3,3,3,0,6,6,6,,,,,,,,,,,,,,,,,,,,,,,,,,,,,,,,,,,,,,,,,,,1.64,304.0402351,None,305.687324,None,None,1,305.687324,None,307.6894818,None,,,,,,,,,,,,,,,,,,,,,,,,,,,,,,,,P039,FENCOG,1,Post,2022_May_04_1101,N-Back (New Version 2021),2021.1.4,119.6220899
Conditions/Version_1Pr/threeback(1)_v1.xlsx,New rule: Press 'space' when you see 3-back (i.e. the same letter as the one that appeared 3 letters ago.),A,space,,,,,0,3,3,3,0,7,7,7,,,,,,,,,,,,,,,,,,,,,,,,,,,,,,,,,,,,,,,,,,,1.565,309.1890671,None,310.7570214,None,space,1,310.7570214,None,311.0960688,None,0.3257634,,,,,,,,,,,,,,,,,,,,,,,,,,,,,,,P039,FENCOG,1,Post,2022_May_04_1101,N-Back (New Version 2021),2021.1.4,119.6220899
Conditions/Version_1Pr/threeback(1)_v1.xlsx,New rule: Press 'space' when you see 3-back (i.e. the same letter as the one that appeared 3 letters ago.),y,None,,,,,0,3,3,3,0,8,8,8,,,,,,,,,,,,,,,,,,,,,,,,,,,,,,,,,,,,,,,,,,,1.94,312.5980103,None,314.5448382,None,None,1,314.5448382,None,316.5432113,None,,,,,,,,,,,,,,,,,,,,,,,,,,,,,,,,P039,FENCOG,1,Post,2022_May_04_1101,N-Back (New Version 2021),2021.1.4,119.6220899
Conditions/Version_1Pr/threeback(1)_v1.xlsx,New rule: Press 'space' when you see 3-back (i.e. the same letter as the one that appeared 3 letters ago.),r,None,,,,,0,3,3,3,0,9,9,9,,,,,,,,,,,,,,,,,,,,,,,,,,,,,,,,,,,,,,,,,,,1.49,318.0446181,None,319.5391275,None,None,1,319.5391275,None,321.5449896,None,,,,,,,,,,,,,,,,,,,,,,,,,,,,,,,,P039,FENCOG,1,Post,2022_May_04_1101,N-Back (New Version 2021),2021.1.4,119.6220899
Conditions/Version_1Pr/threeback(1)_v1.xlsx,New rule: Press 'space' when you see 3-back (i.e. the same letter as the one that appeared 3 letters ago.),,,,,,,0,3,3,3,,,,,,,,,,,,,,,,,,,,,,,,,,,,,,,,,,,,,,,,,,,,,,,,,,,,,,,,,,,,,,,,,,,,,,,,,,,,,,,,,,,,,,,,,P039,FENCOG,1,Post,2022_May_04_1101,N-Back (New Version 2021),2021.1.4,119.6220899
,,,,,,,,,,,,,,,,,,,,,,,,,,,,,,,,,,,,,,,,,,,,,,,,,,,,,,,,,,,,,,,,,,,,,,323.056382,None,space,4.0910038,323.5517682,None,,,,,,,,,,,,,,,,,,,,,,,,,P039,FENCOG,1,Post,2022_May_04_1101,N-Back (New Version 2021),2021.1.4,119.6220899
,,,,,,,,,,,,,,,,,,,,,,,,,,,,,,,,,,,,,,,,,,,,,,,,,,,,,,,,,,,,,,,,,,,,,,,,,,,,327.6834531,None,space,203.5548027,328.1755284,None,,,,,,,,,,,,,,,,,,,P039,FENCOG,1,Post,2022_May_04_1101,N-Back (New Version 2021),2021.1.4,119.6220899
,,,,Conditions/Version_1/zeroback(1)_v1.xlsx,Rule: Press 'space' when you see the letter 'x' or 'X'.,b,None,,,,,,,,,0,0,0,0,0,0,0,0,,,,,,,,,,,,,,,,,,,,,,,,,,,,,,,,,,,,,,,,,,,,,,,,,,,,,,,,,,,531.8719342,None,534.857772,None,space,0.9847274,534.857772,None,531.8719342,None,1.0162,536.8892385,None,None,1,536.8892385,None,,P039,FENCOG,1,Post,2022_May_04_1101,N-Back (New Version 2021),2021.1.4,119.6220899
,,,,Conditions/Version_1/zeroback(1)_v1.xlsx,Rule: Press 'space' when you see the letter 'x' or 'X'.,T,None,,,,,,,,,0,0,0,0,0,1,1,1,,,,,,,,,,,,,,,,,,,,,,,,,,,,,,,,,,,,,,,,,,,,,,,,,,,,,,,,,,,,,,,,,,,,,1.2518,540.161835,None,None,1,540.161835,None,,P039,FENCOG,1,Post,2022_May_04_1101,N-Back (New Version 2021),2021.1.4,119.6220899
,,,,Conditions/Version_1/zeroback(1)_v1.xlsx,Rule: Press 'space' when you see the letter 'x' or 'X'.,L,None,,,,,,,,,0,0,0,0,0,2,2,2,,,,,,,,,,,,,,,,,,,,,,,,,,,,,,,,,,,,,,,,,,,,,,,,,,,,,,,,,,,,,,,,,,,,,1.0472,543.2113925,None,None,1,543.2113925,None,,P039,FENCOG,1,Post,2022_May_04_1101,N-Back (New Version 2021),2021.1.4,119.6220899
,,,,Conditions/Version_1/zeroback(1)_v1.xlsx,Rule: Press 'space' when you see the letter 'x' or 'X'.,x,space,,,,,,,,,0,0,0,0,0,3,3,3,,,,,,,,,,,,,,,,,,,,,,,,,,,,,,,,,,,,,,,,,,,,,,,,,,,,,,,,,,,,,,,,,,,,,1.8594,547.0691757,None,space,1,547.0691757,None,1.6214167,P039,FENCOG,1,Post,2022_May_04_1101,N-Back (New Version 2021),2021.1.4,119.6220899
,,,,Conditions/Version_1/zeroback(1)_v1.xlsx,Rule: Press 'space' when you see the letter 'x' or 'X'.,o,None,,,,,,,,,0,0,0,0,0,4,4,4,,,,,,,,,,,,,,,,,,,,,,,,,,,,,,,,,,,,,,,,,,,,,,,,,,,,,,,,,,,,,,,,,,,,,1.5122,550.6001764,None,None,1,550.6001764,None,,P039,FENCOG,1,Post,2022_May_04_1101,N-Back (New Version 2021),2021.1.4,119.6220899
,,,,Conditions/Version_1/zeroback(1)_v1.xlsx,Rule: Press 'space' when you see the letter 'x' or 'X'.,P,None,,,,,,,,,0,0,0,0,0,5,5,5,,,,,,,,,,,,,,,,,,,,,,,,,,,,,,,,,,,,,,,,,,,,,,,,,,,,,,,,,,,,,,,,,,,,,1.6796,554.2878918,None,None,1,554.2878918,None,,P039,FENCOG,1,Post,2022_May_04_1101,N-Back (New Version 2021),2021.1.4,119.6220899
,,,,Conditions/Version_1/zeroback(1)_v1.xlsx,Rule: Press 'space' when you see the letter 'x' or 'X'.,X,space,,,,,,,,,0,0,0,0,0,6,6,6,,,,,,,,,,,,,,,,,,,,,,,,,,,,,,,,,,,,,,,,,,,,,,,,,,,,,,,,,,,,,,,,,,,,,1.444,557.7443543,None,space,1,557.7443543,None,0.3221469,P039,FENCOG,1,Post,2022_May_04_1101,N-Back (New Version 2021),2021.1.4,119.6220899
,,,,Conditions/Version_1/zeroback(1)_v1.xlsx,Rule: Press 'space' when you see the letter 'x' or 'X'.,n,None,,,,,,,,,0,0,0,0,0,7,7,7,,,,,,,,,,,,,,,,,,,,,,,,,,,,,,,,,,,,,,,,,,,,,,,,,,,,,,,,,,,,,,,,,,,,,1.506,561.2609227,None,None,1,561.2609227,None,,P039,FENCOG,1,Post,2022_May_04_1101,N-Back (New Version 2021),2021.1.4,119.6220899
,,,,Conditions/Version_1/zeroback(1)_v1.xlsx,Rule: Press 'space' when you see the letter 'x' or 'X'.,M,None,,,,,,,,,0,0,0,0,0,8,8,8,,,,,,,,,,,,,,,,,,,,,,,,,,,,,,,,,,,,,,,,,,,,,,,,,,,,,,,,,,,,,,,,,,,,,1.94,565.2130443,None,None,1,565.2130443,None,,P039,FENCOG,1,Post,2022_May_04_1101,N-Back (New Version 2021),2021.1.4,119.6220899
,,,,Conditions/Version_1/zeroback(1)_v1.xlsx,Rule: Press 'space' when you see the letter 'x' or 'X'.,a,None,,,,,,,,,0,0,0,0,0,9,9,9,,,,,,,,,,,,,,,,,,,,,,,,,,,,,,,,,,,,,,,,,,,,,,,,,,,,,,,,,,,,,,,,,,,,,1.5928,568.8079098,None,None,1,568.8079098,None,,P039,FENCOG,1,Post,2022_May_04_1101,N-Back (New Version 2021),2021.1.4,119.6220899
,,,,Conditions/Version_1/zeroback(1)_v1.xlsx,Rule: Press 'space' when you see the letter 'x' or 'X'.,,,,,,,,,,,0,0,0,0,,,,,,,,,,,,,,,,,,,,,,,,,,,,,,,,,,,,,,,,,,,,,,,,,,,,,,,,,,,,,,,,,,,,,,,,,,,,,,,,,P039,FENCOG,1,Post,2022_May_04_1101,N-Back (New Version 2021),2021.1.4,119.6220899
,,,,Conditions/Version_1/oneback(1)_v1.xlsx,New rule: Press 'space' when you see 1-back (i.e. the same letter as the one that appeared 1 letter ago.),b,None,,,,,,,,,0,1,1,1,0,0,0,0,,,,,,,,,,,,,,,,,,,,,,,,,,,,,,,,,,,,,,,,,,,,,,,,,,,,,,,,,,,570.8549685,None,573.8407698,None,space,7.2816833,573.8407698,None,570.8549685,None,1.6548,582.8203217,None,None,1,582.8203217,None,,P039,FENCOG,1,Post,2022_May_04_1101,N-Back (New Version 2021),2021.1.4,119.6220899
,,,,Conditions/Version_1/oneback(1)_v1.xlsx,New rule: Press 'space' when you see 1-back (i.e. the same letter as the one that appeared 1 letter ago.),p,None,,,,,,,,,0,1,1,1,0,1,1,1,,,,,,,,,,,,,,,,,,,,,,,,,,,,,,,,,,,,,,,,,,,,,,,,,,,,,,,,,,,,,,,,,,,,,1.6982,586.5384533,None,None,1,586.5384533,None,,P039,FENCOG,1,Post,2022_May_04_1101,N-Back (New Version 2021),2021.1.4,119.6220899
,,,,Conditions/Version_1/oneback(1)_v1.xlsx,New rule: Press 'space' when you see 1-back (i.e. the same letter as the one that appeared 1 letter ago.),M,None,,,,,,,,,0,1,1,1,0,2,2,2,,,,,,,,,,,,,,,,,,,,,,,,,,,,,,,,,,,,,,,,,,,,,,,,,,,,,,,,,,,,,,,,,,,,,1.537,590.0850314,None,None,1,590.0850314,None,,P039,FENCOG,1,Post,2022_May_04_1101,N-Back (New Version 2021),2021.1.4,119.6220899
,,,,Conditions/Version_1/oneback(1)_v1.xlsx,New rule: Press 'space' when you see 1-back (i.e. the same letter as the one that appeared 1 letter ago.),M,space,,,,,,,,,0,1,1,1,0,3,3,3,,,,,,,,,,,,,,,,,,,,,,,,,,,,,,,,,,,,,,,,,,,,,,,,,,,,,,,,,,,,,,,,,,,,,1.8036,593.8967553,None,space,1,593.8967553,None,0.4896968,P039,FENCOG,1,Post,2022_May_04_1101,N-Back (New Version 2021),2021.1.4,119.6220899
,,,,Conditions/Version_1/oneback(1)_v1.xlsx,New rule: Press 'space' when you see 1-back (i.e. the same letter as the one that appeared 1 letter ago.),n,None,,,,,,,,,0,1,1,1,0,4,4,4,,,,,,,,,,,,,,,,,,,,,,,,,,,,,,,,,,,,,,,,,,,,,,,,,,,,,,,,,,,,,,,,,,,,,1.8284,597.7409348,None,None,1,597.7409348,None,,P039,FENCOG,1,Post,2022_May_04_1101,N-Back (New Version 2021),2021.1.4,119.6220899
,,,,Conditions/Version_1/oneback(1)_v1.xlsx,New rule: Press 'space' when you see 1-back (i.e. the same letter as the one that appeared 1 letter ago.),g,None,,,,,,,,,0,1,1,1,0,5,5,5,,,,,,,,,,,,,,,,,,,,,,,,,,,,,,,,,,,,,,,,,,,,,,,,,,,,,,,,,,,,,,,,,,,,,1.599,601.3568765,None,None,1,601.3568765,None,,P039,FENCOG,1,Post,2022_May_04_1101,N-Back (New Version 2021),2021.1.4,119.6220899
,,,,Conditions/Version_1/oneback(1)_v1.xlsx,New rule: Press 'space' when you see 1-back (i.e. the same letter as the one that appeared 1 letter ago.),P,None,,,,,,,,,0,1,1,1,0,6,6,6,,,,,,,,,,,,,,,,,,,,,,,,,,,,,,,,,,,,,,,,,,,,,,,,,,,,,,,,,,,,,,,,,,,,,1.5742,604.9431036,None,None,1,604.9431036,None,,P039,FENCOG,1,Post,2022_May_04_1101,N-Back (New Version 2021),2021.1.4,119.6220899
,,,,Conditions/Version_1/oneback(1)_v1.xlsx,New rule: Press 'space' when you see 1-back (i.e. the same letter as the one that appeared 1 letter ago.),o,None,,,,,,,,,0,1,1,1,0,7,7,7,,,,,,,,,,,,,,,,,,,,,,,,,,,,,,,,,,,,,,,,,,,,,,,,,,,,,,,,,,,,,,,,,,,,,1.4936,608.4552133,None,None,1,608.4552133,None,,P039,FENCOG,1,Post,2022_May_04_1101,N-Back (New Version 2021),2021.1.4,119.6220899
,,,,Conditions/Version_1/oneback(1)_v1.xlsx,New rule: Press 'space' when you see 1-back (i.e. the same letter as the one that appeared 1 letter ago.),f,None,,,,,,,,,0,1,1,1,0,8,8,8,,,,,,,,,,,,,,,,,,,,,,,,,,,,,,,,,,,,,,,,,,,,,,,,,,,,,,,,,,,,,,,,,,,,,1.444,611.9153443,None,None,1,611.9153443,None,,P039,FENCOG,1,Post,2022_May_04_1101,N-Back (New Version 2021),2021.1.4,119.6220899
,,,,Conditions/Version_1/oneback(1)_v1.xlsx,New rule: Press 'space' when you see 1-back (i.e. the same letter as the one that appeared 1 letter ago.),F,space,,,,,,,,,0,1,1,1,0,9,9,9,,,,,,,,,,,,,,,,,,,,,,,,,,,,,,,,,,,,,,,,,,,,,,,,,,,,,,,,,,,,,,,,,,,,,1.1154,615.0336521,None,space,1,615.0336521,None,0.3930578,P039,FENCOG,1,Post,2022_May_04_1101,N-Back (New Version 2021),2021.1.4,119.6220899
,,,,Conditions/Version_1/oneback(1)_v1.xlsx,New rule: Press 'space' when you see 1-back (i.e. the same letter as the one that appeared 1 letter ago.),,,,,,,,,,,0,1,1,1,,,,,,,,,,,,,,,,,,,,,,,,,,,,,,,,,,,,,,,,,,,,,,,,,,,,,,,,,,,,,,,,,,,,,,,,,,,,,,,,,P039,FENCOG,1,Post,2022_May_04_1101,N-Back (New Version 2021),2021.1.4,119.6220899
,,,,Conditions/Version_1/twoback(1)_v1.xlsx,New rule: Press 'space' when you see 2-back (i.e. the same letter as the one that appeared 2 letters ago.),b,None,,,,,,,,,0,2,2,2,0,0,0,0,,,,,,,,,,,,,,,,,,,,,,,,,,,,,,,,,,,,,,,,,,,,,,,,,,,,,,,,,,,617.0742606,None,620.0603884,None,space,107.0137131,620.0603884,None,617.0742606,None,1.3448,728.4606992,None,None,1,728.4606992,None,,P039,FENCOG,1,Post,2022_May_04_1101,N-Back (New Version 2021),2021.1.4,119.6220899
,,,,Conditions/Version_1/twoback(1)_v1.xlsx,New rule: Press 'space' when you see 2-back (i.e. the same letter as the one that appeared 2 letters ago.),h,None,,,,,,,,,0,2,2,2,0,1,1,1,,,,,,,,,,,,,,,,,,,,,,,,,,,,,,,,,,,,,,,,,,,,,,,,,,,,,,,,,,,,,,,,,,,,,1.1278,731.6052848,None,None,1,731.6052848,None,,P039,FENCOG,1,Post,2022_May_04_1101,N-Back (New Version 2021),2021.1.4,119.6220899
,,,,Conditions/Version_1/twoback(1)_v1.xlsx,New rule: Press 'space' when you see 2-back (i.e. the same letter as the one that appeared 2 letters ago.),j,None,,,,,,,,,0,2,2,2,0,2,2,2,,,,,,,,,,,,,,,,,,,,,,,,,,,,,,,,,,,,,,,,,,,,,,,,,,,,,,,,,,,,,,,,,,,,,1.2332,734.848439,None,None,1,734.848439,None,,P039,FENCOG,1,Post,2022_May_04_1101,N-Back (New Version 2021),2021.1.4,119.6220899
,,,,Conditions/Version_1/twoback(1)_v1.xlsx,New rule: Press 'space' when you see 2-back (i.e. the same letter as the one that appeared 2 letters ago.),H,space,,,,,,,,,0,2,2,2,0,3,3,3,,,,,,,,,,,,,,,,,,,,,,,,,,,,,,,,,,,,,,,,,,,,,,,,,,,,,,,,,,,,,,,,,,,,,1.7478,738.6023924,None,space,1,738.6023924,None,0.61584,P039,FENCOG,1,Post,2022_May_04_1101,N-Back (New Version 2021),2021.1.4,119.6220899
,,,,Conditions/Version_1/twoback(1)_v1.xlsx,New rule: Press 'space' when you see 2-back (i.e. the same letter as the one that appeared 2 letters ago.),p,None,,,,,,,,,0,2,2,2,0,4,4,4,,,,,,,,,,,,,,,,,,,,,,,,,,,,,,,,,,,,,,,,,,,,,,,,,,,,,,,,,,,,,,,,,,,,,1.4378,742.0487191,None,None,1,742.0487191,None,,P039,FENCOG,1,Post,2022_May_04_1101,N-Back (New Version 2021),2021.1.4,119.6220899
,,,,Conditions/Version_1/twoback(1)_v1.xlsx,New rule: Press 'space' when you see 2-back (i.e. the same letter as the one that appeared 2 letters ago.),p,None,,,,,,,,,0,2,2,2,0,5,5,5,,,,,,,,,,,,,,,,,,,,,,,,,,,,,,,,,,,,,,,,,,,,,,,,,,,,,,,,,,,,,,,,,,,,,1.6176,745.6765268,None,None,1,745.6765268,None,,P039,FENCOG,1,Post,2022_May_04_1101,N-Back (New Version 2021),2021.1.4,119.6220899
,,,,Conditions/Version_1/twoback(1)_v1.xlsx,New rule: Press 'space' when you see 2-back (i.e. the same letter as the one that appeared 2 letters ago.),w,None,,,,,,,,,0,2,2,2,0,6,6,6,,,,,,,,,,,,,,,,,,,,,,,,,,,,,,,,,,,,,,,,,,,,,,,,,,,,,,,,,,,,,,,,,,,,,1.2394,748.9322483,None,None,1,748.9322483,None,,P039,FENCOG,1,Post,2022_May_04_1101,N-Back (New Version 2021),2021.1.4,119.6220899
,,,,Conditions/Version_1/twoback(1)_v1.xlsx,New rule: Press 'space' when you see 2-back (i.e. the same letter as the one that appeared 2 letters ago.),R,None,,,,,,,,,0,2,2,2,0,7,7,7,,,,,,,,,,,,,,,,,,,,,,,,,,,,,,,,,,,,,,,,,,,,,,,,,,,,,,,,,,,,,,,,,,,,,1.0534,751.9892539,None,None,1,751.9892539,None,,P039,FENCOG,1,Post,2022_May_04_1101,N-Back (New Version 2021),2021.1.4,119.6220899
,,,,Conditions/Version_1/twoback(1)_v1.xlsx,New rule: Press 'space' when you see 2-back (i.e. the same letter as the one that appeared 2 letters ago.),a,None,,,,,,,,,0,2,2,2,0,8,8,8,,,,,,,,,,,,,,,,,,,,,,,,,,,,,,,,,,,,,,,,,,,,,,,,,,,,,,,,,,,,,,,,,,,,,1.9152,755.9142508,None,None,1,755.9142508,None,,P039,FENCOG,1,Post,2022_May_04_1101,N-Back (New Version 2021),2021.1.4,119.6220899
,,,,Conditions/Version_1/twoback(1)_v1.xlsx,New rule: Press 'space' when you see 2-back (i.e. the same letter as the one that appeared 2 letters ago.),r,space,,,,,,,,,0,2,2,2,0,9,9,9,,,,,,,,,,,,,,,,,,,,,,,,,,,,,,,,,,,,,,,,,,,,,,,,,,,,,,,,,,,,,,,,,,,,,1.1092,759.026774,None,space,1,759.026774,None,0.4394071,P039,FENCOG,1,Post,2022_May_04_1101,N-Back (New Version 2021),2021.1.4,119.6220899
,,,,Conditions/Version_1/twoback(1)_v1.xlsx,New rule: Press 'space' when you see 2-back (i.e. the same letter as the one that appeared 2 letters ago.),,,,,,,,,,,0,2,2,2,,,,,,,,,,,,,,,,,,,,,,,,,,,,,,,,,,,,,,,,,,,,,,,,,,,,,,,,,,,,,,,,,,,,,,,,,,,,,,,,,P039,FENCOG,1,Post,2022_May_04_1101,N-Back (New Version 2021),2021.1.4,119.6220899
,,,,Conditions/Version_1/threeback(1)_v1.xlsx,New rule: Press 'space' when you see 3-back (i.e. the same letter as the one that appeared 3 letters ago.),r,None,,,,,,,,,0,3,3,3,0,0,0,0,,,,,,,,,,,,,,,,,,,,,,,,,,,,,,,,,,,,,,,,,,,,,,,,,,,,,,,,,,,761.0750418,None,764.059166,None,space,0.8230713,764.059166,None,761.0750418,None,1.0658,765.9796671,None,None,1,765.9796671,None,,P039,FENCOG,1,Post,2022_May_04_1101,N-Back (New Version 2021),2021.1.4,119.6220899
,,,,Conditions/Version_1/threeback(1)_v1.xlsx,New rule: Press 'space' when you see 3-back (i.e. the same letter as the one that appeared 3 letters ago.),o,None,,,,,,,,,0,3,3,3,0,1,1,1,,,,,,,,,,,,,,,,,,,,,,,,,,,,,,,,,,,,,,,,,,,,,,,,,,,,,,,,,,,,,,,,,,,,,1.4626,769.4565894,None,None,1,769.4565894,None,,P039,FENCOG,1,Post,2022_May_04_1101,N-Back (New Version 2021),2021.1.4,119.6220899
,,,,Conditions/Version_1/threeback(1)_v1.xlsx,New rule: Press 'space' when you see 3-back (i.e. the same letter as the one that appeared 3 letters ago.),P,None,,,,,,,,,0,3,3,3,0,2,2,2,,,,,,,,,,,,,,,,,,,,,,,,,,,,,,,,,,,,,,,,,,,,,,,,,,,,,,,,,,,,,,,,,,,,,1.165,772.6315554,None,None,1,772.6315554,None,,P039,FENCOG,1,Post,2022_May_04_1101,N-Back (New Version 2021),2021.1.4,119.6220899
,,,,Conditions/Version_1/threeback(1)_v1.xlsx,New rule: Press 'space' when you see 3-back (i.e. the same letter as the one that appeared 3 letters ago.),R,space,,,,,,,,,0,3,3,3,0,3,3,3,,,,,,,,,,,,,,,,,,,,,,,,,,,,,,,,,,,,,,,,,,,,,,,,,,,,,,,,,,,,,,,,,,,,,1.4378,776.0823149,None,space,1,776.0823149,None,0.4238165,P039,FENCOG,1,Post,2022_May_04_1101,N-Back (New Version 2021),2021.1.4,119.6220899
,,,,Conditions/Version_1/threeback(1)_v1.xlsx,New rule: Press 'space' when you see 3-back (i.e. the same letter as the one that appeared 3 letters ago.),p,None,,,,,,,,,0,3,3,3,0,4,4,4,,,,,,,,,,,,,,,,,,,,,,,,,,,,,,,,,,,,,,,,,,,,,,,,,,,,,,,,,,,,,,,,,,,,,1.5122,779.6044476,None,None,1,779.6044476,None,,P039,FENCOG,1,Post,2022_May_04_1101,N-Back (New Version 2021),2021.1.4,119.6220899
,,,,Conditions/Version_1/threeback(1)_v1.xlsx,New rule: Press 'space' when you see 3-back (i.e. the same letter as the one that appeared 3 letters ago.),E,None,,,,,,,,,0,3,3,3,0,5,5,5,,,,,,,,,,,,,,,,,,,,,,,,,,,,,,,,,,,,,,,,,,,,,,,,,,,,,,,,,,,,,,,,,,,,,1.506,783.1284665,None,None,1,783.1284665,None,,P039,FENCOG,1,Post,2022_May_04_1101,N-Back (New Version 2021),2021.1.4,119.6220899
,,,,Conditions/Version_1/threeback(1)_v1.xlsx,New rule: Press 'space' when you see 3-back (i.e. the same letter as the one that appeared 3 letters ago.),e,None,,,,,,,,,0,3,3,3,0,6,6,6,,,,,,,,,,,,,,,,,,,,,,,,,,,,,,,,,,,,,,,,,,,,,,,,,,,,,,,,,,,,,,,,,,,,,1.2642,786.4018969,None,None,1,786.4018969,None,,P039,FENCOG,1,Post,2022_May_04_1101,N-Back (New Version 2021),2021.1.4,119.6220899
,,,,Conditions/Version_1/threeback(1)_v1.xlsx,New rule: Press 'space' when you see 3-back (i.e. the same letter as the one that appeared 3 letters ago.),m,None,,,,,,,,,0,3,3,3,0,7,7,7,,,,,,,,,,,,,,,,,,,,,,,,,,,,,,,,,,,,,,,,,,,,,,,,,,,,,,,,,,,,,,,,,,,,,1.2518,789.6691625,None,None,1,789.6691625,None,,P039,FENCOG,1,Post,2022_May_04_1101,N-Back (New Version 2021),2021.1.4,119.6220899
,,,,Conditions/Version_1/threeback(1)_v1.xlsx,New rule: Press 'space' when you see 3-back (i.e. the same letter as the one that appeared 3 letters ago.),n,None,,,,,,,,,0,3,3,3,0,8,8,8,,,,,,,,,,,,,,,,,,,,,,,,,,,,,,,,,,,,,,,,,,,,,,,,,,,,,,,,,,,,,,,,,,,,,1.1898,792.8718535,None,None,1,792.8718535,None,,P039,FENCOG,1,Post,2022_May_04_1101,N-Back (New Version 2021),2021.1.4,119.6220899
,,,,Conditions/Version_1/threeback(1)_v1.xlsx,New rule: Press 'space' when you see 3-back (i.e. the same letter as the one that appeared 3 letters ago.),e,space,,,,,,,,,0,3,3,3,0,9,9,9,,,,,,,,,,,,,,,,,,,,,,,,,,,,,,,,,,,,,,,,,,,,,,,,,,,,,,,,,,,,,,,,,,,,,1.8036,796.6826853,None,space,1,796.6826853,None,0.4155189,P039,FENCOG,1,Post,2022_May_04_1101,N-Back (New Version 2021),2021.1.4,119.6220899
,,,,Conditions/Version_1/threeback(1)_v1.xlsx,New rule: Press 'space' when you see 3-back (i.e. the same letter as the one that appeared 3 letters ago.),,,,,,,,,,,0,3,3,3,,,,,,,,,,,,,,,,,,,,,,,,,,,,,,,,,,,,,,,,,,,,,,,,,,,,,,,,,,,,,,,,,,,,,,,,,,,,,,,,,P039,FENCOG,1,Post,2022_May_04_1101,N-Back (New Version 2021),2021.1.4,119.6220899
,,,,Conditions/Version_1/oneback(2)_v1.xlsx,New rule: Press 'space' when you see 1-back (i.e. the same letter as the one that appeared 1 letter ago.),q,None,,,,,,,,,0,4,4,4,0,0,0,0,,,,,,,,,,,,,,,,,,,,,,,,,,,,,,,,,,,,,,,,,,,,,,,,,,,,,,,,,,,798.7280891,None,801.7072535,None,space,0.6948386,801.7072535,None,798.7280891,None,1.7912,804.2387394,None,None,1,804.2387394,None,,P039,FENCOG,1,Post,2022_May_04_1101,N-Back (New Version 2021),2021.1.4,119.6220899
,,,,Conditions/Version_1/oneback(2)_v1.xlsx,New rule: Press 'space' when you see 1-back (i.e. the same letter as the one that appeared 1 letter ago.),Q,space,,,,,,,,,0,4,4,4,0,1,1,1,,,,,,,,,,,,,,,,,,,,,,,,,,,,,,,,,,,,,,,,,,,,,,,,,,,,,,,,,,,,,,,,,,,,,1.6982,807.9541647,None,space,1,807.9541647,None,0.4400105,P039,FENCOG,1,Post,2022_May_04_1101,N-Back (New Version 2021),2021.1.4,119.6220899
,,,,Conditions/Version_1/oneback(2)_v1.xlsx,New rule: Press 'space' when you see 1-back (i.e. the same letter as the one that appeared 1 letter ago.),P,None,,,,,,,,,0,4,4,4,0,2,2,2,,,,,,,,,,,,,,,,,,,,,,,,,,,,,,,,,,,,,,,,,,,,,,,,,,,,,,,,,,,,,,,,,,,,,1.3634,811.3181141,None,None,1,811.3181141,None,,P039,FENCOG,1,Post,2022_May_04_1101,N-Back (New Version 2021),2021.1.4,119.6220899
,,,,Conditions/Version_1/oneback(2)_v1.xlsx,New rule: Press 'space' when you see 1-back (i.e. the same letter as the one that appeared 1 letter ago.),o,None,,,,,,,,,0,4,4,4,0,3,3,3,,,,,,,,,,,,,,,,,,,,,,,,,,,,,,,,,,,,,,,,,,,,,,,,,,,,,,,,,,,,,,,,,,,,,1.7974,815.1290796,None,None,1,815.1290796,None,,P039,FENCOG,1,Post,2022_May_04_1101,N-Back (New Version 2021),2021.1.4,119.6220899
,,,,Conditions/Version_1/oneback(2)_v1.xlsx,New rule: Press 'space' when you see 1-back (i.e. the same letter as the one that appeared 1 letter ago.),m,None,,,,,,,,,0,4,4,4,0,4,4,4,,,,,,,,,,,,,,,,,,,,,,,,,,,,,,,,,,,,,,,,,,,,,,,,,,,,,,,,,,,,,,,,,,,,,1.444,818.5760859,None,None,1,818.5760859,None,,P039,FENCOG,1,Post,2022_May_04_1101,N-Back (New Version 2021),2021.1.4,119.6220899
,,,,Conditions/Version_1/oneback(2)_v1.xlsx,New rule: Press 'space' when you see 1-back (i.e. the same letter as the one that appeared 1 letter ago.),Z,None,,,,,,,,,0,4,4,4,0,5,5,5,,,,,,,,,,,,,,,,,,,,,,,,,,,,,,,,,,,,,,,,,,,,,,,,,,,,,,,,,,,,,,,,,,,,,1.041,821.6249228,None,None,1,821.6249228,None,,P039,FENCOG,1,Post,2022_May_04_1101,N-Back (New Version 2021),2021.1.4,119.6220899
,,,,Conditions/Version_1/oneback(2)_v1.xlsx,New rule: Press 'space' when you see 1-back (i.e. the same letter as the one that appeared 1 letter ago.),c,None,,,,,,,,,0,4,4,4,0,6,6,6,,,,,,,,,,,,,,,,,,,,,,,,,,,,,,,,,,,,,,,,,,,,,,,,,,,,,,,,,,,,,,,,,,,,,1.971,825.6103218,None,None,1,825.6103218,None,,P039,FENCOG,1,Post,2022_May_04_1101,N-Back (New Version 2021),2021.1.4,119.6220899
,,,,Conditions/Version_1/oneback(2)_v1.xlsx,New rule: Press 'space' when you see 1-back (i.e. the same letter as the one that appeared 1 letter ago.),c,space,,,,,,,,,0,4,4,4,0,7,7,7,,,,,,,,,,,,,,,,,,,,,,,,,,,,,,,,,,,,,,,,,,,,,,,,,,,,,,,,,,,,,,,,,,,,,1.8594,829.4687723,None,space,1,829.4687723,None,0.5413473,P039,FENCOG,1,Post,2022_May_04_1101,N-Back (New Version 2021),2021.1.4,119.6220899
,,,,Conditions/Version_1/oneback(2)_v1.xlsx,New rule: Press 'space' when you see 1-back (i.e. the same letter as the one that appeared 1 letter ago.),P,None,,,,,,,,,0,4,4,4,0,8,8,8,,,,,,,,,,,,,,,,,,,,,,,,,,,,,,,,,,,,,,,,,,,,,,,,,,,,,,,,,,,,,,,,,,,,,1.7292,833.2047871,None,None,1,833.2047871,None,,P039,FENCOG,1,Post,2022_May_04_1101,N-Back (New Version 2021),2021.1.4,119.6220899
,,,,Conditions/Version_1/oneback(2)_v1.xlsx,New rule: Press 'space' when you see 1-back (i.e. the same letter as the one that appeared 1 letter ago.),p,space,,,,,,,,,0,4,4,4,0,9,9,9,,,,,,,,,,,,,,,,,,,,,,,,,,,,,,,,,,,,,,,,,,,,,,,,,,,,,,,,,,,,,,,,,,,,,1.01,836.2214938,None,space,1,836.2214938,None,0.3490576,P039,FENCOG,1,Post,2022_May_04_1101,N-Back (New Version 2021),2021.1.4,119.6220899
,,,,Conditions/Version_1/oneback(2)_v1.xlsx,New rule: Press 'space' when you see 1-back (i.e. the same letter as the one that appeared 1 letter ago.),,,,,,,,,,,0,4,4,4,,,,,,,,,,,,,,,,,,,,,,,,,,,,,,,,,,,,,,,,,,,,,,,,,,,,,,,,,,,,,,,,,,,,,,,,,,,,,,,,,P039,FENCOG,1,Post,2022_May_04_1101,N-Back (New Version 2021),2021.1.4,119.6220899
,,,,Conditions/Version_1/zeroback(2)_v1.xlsx,New rule: Press 'space' when you see the letter 'x' or 'X'.,p,None,,,,,,,,,0,5,5,5,0,0,0,0,,,,,,,,,,,,,,,,,,,,,,,,,,,,,,,,,,,,,,,,,,,,,,,,,,,,,,,,,,,838.2636152,None,841.2435097,None,space,1.2307112,841.2435097,None,838.2636152,None,1.7106,844.2236793,None,None,1,844.2236793,None,,P039,FENCOG,1,Post,2022_May_04_1101,N-Back (New Version 2021),2021.1.4,119.6220899
,,,,Conditions/Version_1/zeroback(2)_v1.xlsx,New rule: Press 'space' when you see the letter 'x' or 'X'.,L,None,,,,,,,,,0,5,5,5,0,1,1,1,,,,,,,,,,,,,,,,,,,,,,,,,,,,,,,,,,,,,,,,,,,,,,,,,,,,,,,,,,,,,,,,,,,,,1.537,847.7748654,None,None,1,847.7748654,None,,P039,FENCOG,1,Post,2022_May_04_1101,N-Back (New Version 2021),2021.1.4,119.6220899
,,,,Conditions/Version_1/zeroback(2)_v1.xlsx,New rule: Press 'space' when you see the letter 'x' or 'X'.,G,None,,,,,,,,,0,5,5,5,0,2,2,2,,,,,,,,,,,,,,,,,,,,,,,,,,,,,,,,,,,,,,,,,,,,,,,,,,,,,,,,,,,,,,,,,,,,,1.1712,850.9477599,None,None,1,850.9477599,None,,P039,FENCOG,1,Post,2022_May_04_1101,N-Back (New Version 2021),2021.1.4,119.6220899
,,,,Conditions/Version_1/zeroback(2)_v1.xlsx,New rule: Press 'space' when you see the letter 'x' or 'X'.,y,None,,,,,,,,,0,5,5,5,0,3,3,3,,,,,,,,,,,,,,,,,,,,,,,,,,,,,,,,,,,,,,,,,,,,,,,,,,,,,,,,,,,,,,,,,,,,,1.9958,854.9507151,None,None,1,854.9507151,None,,P039,FENCOG,1,Post,2022_May_04_1101,N-Back (New Version 2021),2021.1.4,119.6220899
,,,,Conditions/Version_1/zeroback(2)_v1.xlsx,New rule: Press 'space' when you see the letter 'x' or 'X'.,Y,None,,,,,,,,,0,5,5,5,0,4,4,4,,,,,,,,,,,,,,,,,,,,,,,,,,,,,,,,,,,,,,,,,,,,,,,,,,,,,,,,,,,,,,,,,,,,,1.6424,858.5972495,None,None,1,858.5972495,None,,P039,FENCOG,1,Post,2022_May_04_1101,N-Back (New Version 2021),2021.1.4,119.6220899
,,,,Conditions/Version_1/zeroback(2)_v1.xlsx,New rule: Press 'space' when you see the letter 'x' or 'X'.,W,None,,,,,,,,,0,5,5,5,0,5,5,5,,,,,,,,,,,,,,,,,,,,,,,,,,,,,,,,,,,,,,,,,,,,,,,,,,,,,,,,,,,,,,,,,,,,,1.3262,861.9302148,None,None,1,861.9302148,None,,P039,FENCOG,1,Post,2022_May_04_1101,N-Back (New Version 2021),2021.1.4,119.6220899
,,,,Conditions/Version_1/zeroback(2)_v1.xlsx,New rule: Press 'space' when you see the letter 'x' or 'X'.,x,space,,,,,,,,,0,5,5,5,0,6,6,6,,,,,,,,,,,,,,,,,,,,,,,,,,,,,,,,,,,,,,,,,,,,,,,,,,,,,,,,,,,,,,,,,,,,,1.072,865.0217369,None,space,1,865.0217369,None,0.4684549,P039,FENCOG,1,Post,2022_May_04_1101,N-Back (New Version 2021),2021.1.4,119.6220899
,,,,Conditions/Version_1/zeroback(2)_v1.xlsx,New rule: Press 'space' when you see the letter 'x' or 'X'.,X,space,,,,,,,,,0,5,5,5,0,7,7,7,,,,,,,,,,,,,,,,,,,,,,,,,,,,,,,,,,,,,,,,,,,,,,,,,,,,,,,,,,,,,,,,,,,,,1.3448,868.3823768,None,space,1,868.3823768,None,0.3557187,P039,FENCOG,1,Post,2022_May_04_1101,N-Back (New Version 2021),2021.1.4,119.6220899
,,,,Conditions/Version_1/zeroback(2)_v1.xlsx,New rule: Press 'space' when you see the letter 'x' or 'X'.,p,None,,,,,,,,,0,5,5,5,0,8,8,8,,,,,,,,,,,,,,,,,,,,,,,,,,,,,,,,,,,,,,,,,,,,,,,,,,,,,,,,,,,,,,,,,,,,,1.4192,871.8098062,None,None,1,871.8098062,None,,P039,FENCOG,1,Post,2022_May_04_1101,N-Back (New Version 2021),2021.1.4,119.6220899
,,,,Conditions/Version_1/zeroback(2)_v1.xlsx,New rule: Press 'space' when you see the letter 'x' or 'X'.,h,None,,,,,,,,,0,5,5,5,0,9,9,9,,,,,,,,,,,,,,,,,,,,,,,,,,,,,,,,,,,,,,,,,,,,,,,,,,,,,,,,,,,,,,,,,,,,,1.1588,874.9764615,None,None,1,874.9764615,None,,P039,FENCOG,1,Post,2022_May_04_1101,N-Back (New Version 2021),2021.1.4,119.6220899
,,,,Conditions/Version_1/zeroback(2)_v1.xlsx,New rule: Press 'space' when you see the letter 'x' or 'X'.,,,,,,,,,,,0,5,5,5,,,,,,,,,,,,,,,,,,,,,,,,,,,,,,,,,,,,,,,,,,,,,,,,,,,,,,,,,,,,,,,,,,,,,,,,,,,,,,,,,P039,FENCOG,1,Post,2022_May_04_1101,N-Back (New Version 2021),2021.1.4,119.6220899
,,,,Conditions/Version_1/threeback(2)_v1.xlsx,New rule: Press 'space' when you see 3-back (i.e. the same letter as the one that appeared 3 letters ago.),q,None,,,,,,,,,0,6,6,6,0,0,0,0,,,,,,,,,,,,,,,,,,,,,,,,,,,,,,,,,,,,,,,,,,,,,,,,,,,,,,,,,,,877.016181,None,880.0007478,None,space,0.7051926,880.0007478,None,877.016181,None,1.7168,882.4654277,None,None,1,882.4654277,None,,P039,FENCOG,1,Post,2022_May_04_1101,N-Back (New Version 2021),2021.1.4,119.6220899
,,,,Conditions/Version_1/threeback(2)_v1.xlsx,New rule: Press 'space' when you see 3-back (i.e. the same letter as the one that appeared 3 letters ago.),Y,None,,,,,,,,,0,6,6,6,0,1,1,1,,,,,,,,,,,,,,,,,,,,,,,,,,,,,,,,,,,,,,,,,,,,,,,,,,,,,,,,,,,,,,,,,,,,,1.0596,885.5381183,None,None,1,885.5381183,None,,P039,FENCOG,1,Post,2022_May_04_1101,N-Back (New Version 2021),2021.1.4,119.6220899
,,,,Conditions/Version_1/threeback(2)_v1.xlsx,New rule: Press 'space' when you see 3-back (i.e. the same letter as the one that appeared 3 letters ago.),p,None,,,,,,,,,0,6,6,6,0,2,2,2,,,,,,,,,,,,,,,,,,,,,,,,,,,,,,,,,,,,,,,,,,,,,,,,,,,,,,,,,,,,,,,,,,,,,1.94,889.4882046,None,None,1,889.4882046,None,,P039,FENCOG,1,Post,2022_May_04_1101,N-Back (New Version 2021),2021.1.4,119.6220899
,,,,Conditions/Version_1/threeback(2)_v1.xlsx,New rule: Press 'space' when you see 3-back (i.e. the same letter as the one that appeared 3 letters ago.),p,None,,,,,,,,,0,6,6,6,0,3,3,3,,,,,,,,,,,,,,,,,,,,,,,,,,,,,,,,,,,,,,,,,,,,,,,,,,,,,,,,,,,,,,,,,,,,,1.4254,892.926417,None,None,1,892.926417,None,,P039,FENCOG,1,Post,2022_May_04_1101,N-Back (New Version 2021),2021.1.4,119.6220899
,,,,Conditions/Version_1/threeback(2)_v1.xlsx,New rule: Press 'space' when you see 3-back (i.e. the same letter as the one that appeared 3 letters ago.),y,space,,,,,,,,,0,6,6,6,0,4,4,4,,,,,,,,,,,,,,,,,,,,,,,,,,,,,,,,,,,,,,,,,,,,,,,,,,,,,,,,,,,,,,,,,,,,,1.754,896.6937911,None,space,1,896.6937911,None,0.7882604,P039,FENCOG,1,Post,2022_May_04_1101,N-Back (New Version 2021),2021.1.4,119.6220899
,,,,Conditions/Version_1/threeback(2)_v1.xlsx,New rule: Press 'space' when you see 3-back (i.e. the same letter as the one that appeared 3 letters ago.),u,None,,,,,,,,,0,6,6,6,0,5,5,5,,,,,,,,,,,,,,,,,,,,,,,,,,,,,,,,,,,,,,,,,,,,,,,,,,,,,,,,,,,,,,,,,,,,,1.692,900.401185,None,None,1,900.401185,None,,P039,FENCOG,1,Post,2022_May_04_1101,N-Back (New Version 2021),2021.1.4,119.6220899
,,,,Conditions/Version_1/threeback(2)_v1.xlsx,New rule: Press 'space' when you see 3-back (i.e. the same letter as the one that appeared 3 letters ago.),P,space,,,,,,,,,0,6,6,6,0,6,6,6,,,,,,,,,,,,,,,,,,,,,,,,,,,,,,,,,,,,,,,,,,,,,,,,,,,,,,,,,,,,,,,,,,,,,1.0534,903.4588046,None,space,1,903.4588046,None,0.4234115,P039,FENCOG,1,Post,2022_May_04_1101,N-Back (New Version 2021),2021.1.4,119.6220899
,,,,Conditions/Version_1/threeback(2)_v1.xlsx,New rule: Press 'space' when you see 3-back (i.e. the same letter as the one that appeared 3 letters ago.),a,None,,,,,,,,,0,6,6,6,0,7,7,7,,,,,,,,,,,,,,,,,,,,,,,,,,,,,,,,,,,,,,,,,,,,,,,,,,,,,,,,,,,,,,,,,,,,,1.785,907.2497473,None,None,1,907.2497473,None,,P039,FENCOG,1,Post,2022_May_04_1101,N-Back (New Version 2021),2021.1.4,119.6220899
,,,,Conditions/Version_1/threeback(2)_v1.xlsx,New rule: Press 'space' when you see 3-back (i.e. the same letter as the one that appeared 3 letters ago.),U,space,,,,,,,,,0,6,6,6,0,8,8,8,,,,,,,,,,,,,,,,,,,,,,,,,,,,,,,,,,,,,,,,,,,,,,,,,,,,,,,,,,,,,,,,,,,,,1.2332,910.4961873,None,space,1,910.4961873,None,0.44207,P039,FENCOG,1,Post,2022_May_04_1101,N-Back (New Version 2021),2021.1.4,119.6220899
,,,,Conditions/Version_1/threeback(2)_v1.xlsx,New rule: Press 'space' when you see 3-back (i.e. the same letter as the one that appeared 3 letters ago.),q,None,,,,,,,,,0,6,6,6,0,9,9,9,,,,,,,,,,,,,,,,,,,,,,,,,,,,,,,,,,,,,,,,,,,,,,,,,,,,,,,,,,,,,,,,,,,,,1.8284,914.3291863,None,None,1,914.3291863,None,,P039,FENCOG,1,Post,2022_May_04_1101,N-Back (New Version 2021),2021.1.4,119.6220899
,,,,Conditions/Version_1/threeback(2)_v1.xlsx,New rule: Press 'space' when you see 3-back (i.e. the same letter as the one that appeared 3 letters ago.),,,,,,,,,,,0,6,6,6,,,,,,,,,,,,,,,,,,,,,,,,,,,,,,,,,,,,,,,,,,,,,,,,,,,,,,,,,,,,,,,,,,,,,,,,,,,,,,,,,P039,FENCOG,1,Post,2022_May_04_1101,N-Back (New Version 2021),2021.1.4,119.6220899
,,,,Conditions/Version_1/twoback(2)_v1.xlsx,New rule: Press 'space' when you see 2-back (i.e. the same letter as the one that appeared 2 letters ago.),q,None,,,,,,,,,0,7,7,7,0,0,0,0,,,,,,,,,,,,,,,,,,,,,,,,,,,,,,,,,,,,,,,,,,,,,,,,,,,,,,,,,,,916.3815579,None,919.3720094,None,space,0.5579551,919.3720094,None,916.3815579,None,1.4502,921.4172515,None,None,1,921.4172515,None,,P039,FENCOG,1,Post,2022_May_04_1101,N-Back (New Version 2021),2021.1.4,119.6220899
,,,,Conditions/Version_1/twoback(2)_v1.xlsx,New rule: Press 'space' when you see 2-back (i.e. the same letter as the one that appeared 2 letters ago.),r,None,,,,,,,,,0,7,7,7,0,1,1,1,,,,,,,,,,,,,,,,,,,,,,,,,,,,,,,,,,,,,,,,,,,,,,,,,,,,,,,,,,,,,,,,,,,,,1.7478,925.1797182,None,None,1,925.1797182,None,,P039,FENCOG,1,Post,2022_May_04_1101,N-Back (New Version 2021),2021.1.4,119.6220899
,,,,Conditions/Version_1/twoback(2)_v1.xlsx,New rule: Press 'space' when you see 2-back (i.e. the same letter as the one that appeared 2 letters ago.),q,space,,,,,,,,,0,7,7,7,0,2,2,2,,,,,,,,,,,,,,,,,,,,,,,,,,,,,,,,,,,,,,,,,,,,,,,,,,,,,,,,,,,,,,,,,,,,,1.785,928.975907,None,space,1,928.975907,None,0.4180776,P039,FENCOG,1,Post,2022_May_04_1101,N-Back (New Version 2021),2021.1.4,119.6220899
,,,,Conditions/Version_1/twoback(2)_v1.xlsx,New rule: Press 'space' when you see 2-back (i.e. the same letter as the one that appeared 2 letters ago.),P,None,,,,,,,,,0,7,7,7,0,3,3,3,,,,,,,,,,,,,,,,,,,,,,,,,,,,,,,,,,,,,,,,,,,,,,,,,,,,,,,,,,,,,,,,,,,,,1.661,932.6525136,None,None,1,932.6525136,None,,P039,FENCOG,1,Post,2022_May_04_1101,N-Back (New Version 2021),2021.1.4,119.6220899
,,,,Conditions/Version_1/twoback(2)_v1.xlsx,New rule: Press 'space' when you see 2-back (i.e. the same letter as the one that appeared 2 letters ago.),p,None,,,,,,,,,0,7,7,7,0,4,4,4,,,,,,,,,,,,,,,,,,,,,,,,,,,,,,,,,,,,,,,,,,,,,,,,,,,,,,,,,,,,,,,,,,,,,1.7912,936.4570649,None,None,1,936.4570649,None,,P039,FENCOG,1,Post,2022_May_04_1101,N-Back (New Version 2021),2021.1.4,119.6220899
,,,,Conditions/Version_1/twoback(2)_v1.xlsx,New rule: Press 'space' when you see 2-back (i.e. the same letter as the one that appeared 2 letters ago.),H,None,,,,,,,,,0,7,7,7,0,5,5,5,,,,,,,,,,,,,,,,,,,,,,,,,,,,,,,,,,,,,,,,,,,,,,,,,,,,,,,,,,,,,,,,,,,,,1.134,939.6080805,None,None,1,939.6080805,None,,P039,FENCOG,1,Post,2022_May_04_1101,N-Back (New Version 2021),2021.1.4,119.6220899
,,,,Conditions/Version_1/twoback(2)_v1.xlsx,New rule: Press 'space' when you see 2-back (i.e. the same letter as the one that appeared 2 letters ago.),g,None,,,,,,,,,0,7,7,7,0,6,6,6,,,,,,,,,,,,,,,,,,,,,,,,,,,,,,,,,,,,,,,,,,,,,,,,,,,,,,,,,,,,,,,,,,,,,1.9896,943.6079026,None,None,1,943.6079026,None,,P039,FENCOG,1,Post,2022_May_04_1101,N-Back (New Version 2021),2021.1.4,119.6220899
,,,,Conditions/Version_1/twoback(2)_v1.xlsx,New rule: Press 'space' when you see 2-back (i.e. the same letter as the one that appeared 2 letters ago.),j,None,,,,,,,,,0,7,7,7,0,7,7,7,,,,,,,,,,,,,,,,,,,,,,,,,,,,,,,,,,,,,,,,,,,,,,,,,,,,,,,,,,,,,,,,,,,,,1.2022,946.8206069,None,None,1,946.8206069,None,,P039,FENCOG,1,Post,2022_May_04_1101,N-Back (New Version 2021),2021.1.4,119.6220899
,,,,Conditions/Version_1/twoback(2)_v1.xlsx,New rule: Press 'space' when you see 2-back (i.e. the same letter as the one that appeared 2 letters ago.),g,space,,,,,,,,,0,7,7,7,0,8,8,8,,,,,,,,,,,,,,,,,,,,,,,,,,,,,,,,,,,,,,,,,,,,,,,,,,,,,,,,,,,,,,,,,,,,,1.8904,950.7220014,None,space,1,950.7220014,None,0.3121211,P039,FENCOG,1,Post,2022_May_04_1101,N-Back (New Version 2021),2021.1.4,119.6220899
,,,,Conditions/Version_1/twoback(2)_v1.xlsx,New rule: Press 'space' when you see 2-back (i.e. the same letter as the one that appeared 2 letters ago.),G,None,,,,,,,,,0,7,7,7,0,9,9,9,,,,,,,,,,,,,,,,,,,,,,,,,,,,,,,,,,,,,,,,,,,,,,,,,,,,,,,,,,,,,,,,,,,,,1.0348,953.7672204,None,space,0,953.7672204,None,0.5627337,P039,FENCOG,1,Post,2022_May_04_1101,N-Back (New Version 2021),2021.1.4,119.6220899
,,,,Conditions/Version_1/twoback(2)_v1.xlsx,New rule: Press 'space' when you see 2-back (i.e. the same letter as the one that appeared 2 letters ago.),,,,,,,,,,,0,7,7,7,,,,,,,,,,,,,,,,,,,,,,,,,,,,,,,,,,,,,,,,,,,,,,,,,,,,,,,,,,,,,,,,,,,,,,,,,,,,,,,,,P039,FENCOG,1,Post,2022_May_04_1101,N-Back (New Version 2021),2021.1.4,119.6220899
,,,,Conditions/Version_1/threeback(3)_v1.xlsx,New rule: Press 'space' when you see 3-back (i.e. the same letter as the one that appeared 3 letters ago.),w,None,,,,,,,,,0,8,8,8,0,0,0,0,,,,,,,,,,,,,,,,,,,,,,,,,,,,,,,,,,,,,,,,,,,,,,,,,,,,,,,,,,,955.8099975,None,958.7942685,None,space,30.4555427,958.7942685,None,955.8099975,None,1.1774,990.4688142,None,None,1,990.4688142,None,,P039,FENCOG,1,Post,2022_May_04_1101,N-Back (New Version 2021),2021.1.4,119.6220899
,,,,Conditions/Version_1/threeback(3)_v1.xlsx,New rule: Press 'space' when you see 3-back (i.e. the same letter as the one that appeared 3 letters ago.),p,None,,,,,,,,,0,8,8,8,0,1,1,1,,,,,,,,,,,,,,,,,,,,,,,,,,,,,,,,,,,,,,,,,,,,,,,,,,,,,,,,,,,,,,,,,,,,,1.8594,994.3410691,None,None,1,994.3410691,None,,P039,FENCOG,1,Post,2022_May_04_1101,N-Back (New Version 2021),2021.1.4,119.6220899
,,,,Conditions/Version_1/threeback(3)_v1.xlsx,New rule: Press 'space' when you see 3-back (i.e. the same letter as the one that appeared 3 letters ago.),P,None,,,,,,,,,0,8,8,8,0,2,2,2,,,,,,,,,,,,,,,,,,,,,,,,,,,,,,,,,,,,,,,,,,,,,,,,,,,,,,,,,,,,,,,,,,,,,1.4316,997.7917259,None,None,1,997.7917259,None,,P039,FENCOG,1,Post,2022_May_04_1101,N-Back (New Version 2021),2021.1.4,119.6220899
,,,,Conditions/Version_1/threeback(3)_v1.xlsx,New rule: Press 'space' when you see 3-back (i.e. the same letter as the one that appeared 3 letters ago.),i,None,,,,,,,,,0,8,8,8,0,3,3,3,,,,,,,,,,,,,,,,,,,,,,,,,,,,,,,,,,,,,,,,,,,,,,,,,,,,,,,,,,,,,,,,,,,,,1.9524,1001.759931,None,None,1,1001.759931,None,,P039,FENCOG,1,Post,2022_May_04_1101,N-Back (New Version 2021),2021.1.4,119.6220899
,,,,Conditions/Version_1/threeback(3)_v1.xlsx,New rule: Press 'space' when you see 3-back (i.e. the same letter as the one that appeared 3 letters ago.),f,None,,,,,,,,,0,8,8,8,0,4,4,4,,,,,,,,,,,,,,,,,,,,,,,,,,,,,,,,,,,,,,,,,,,,,,,,,,,,,,,,,,,,,,,,,,,,,1.4812,1005.245611,None,None,1,1005.245611,None,,P039,FENCOG,1,Post,2022_May_04_1101,N-Back (New Version 2021),2021.1.4,119.6220899
,,,,Conditions/Version_1/threeback(3)_v1.xlsx,New rule: Press 'space' when you see 3-back (i.e. the same letter as the one that appeared 3 letters ago.),o,None,,,,,,,,,0,8,8,8,0,5,5,5,,,,,,,,,,,,,,,,,,,,,,,,,,,,,,,,,,,,,,,,,,,,,,,,,,,,,,,,,,,,,,,,,,,,,1.5122,1008.77019,None,None,1,1008.77019,None,,P039,FENCOG,1,Post,2022_May_04_1101,N-Back (New Version 2021),2021.1.4,119.6220899
,,,,Conditions/Version_1/threeback(3)_v1.xlsx,New rule: Press 'space' when you see 3-back (i.e. the same letter as the one that appeared 3 letters ago.),w,None,,,,,,,,,0,8,8,8,0,6,6,6,,,,,,,,,,,,,,,,,,,,,,,,,,,,,,,,,,,,,,,,,,,,,,,,,,,,,,,,,,,,,,,,,,,,,1.3696,1012.151288,None,None,1,1012.151288,None,,P039,FENCOG,1,Post,2022_May_04_1101,N-Back (New Version 2021),2021.1.4,119.6220899
,,,,Conditions/Version_1/threeback(3)_v1.xlsx,New rule: Press 'space' when you see 3-back (i.e. the same letter as the one that appeared 3 letters ago.),F,space,,,,,,,,,0,8,8,8,0,7,7,7,,,,,,,,,,,,,,,,,,,,,,,,,,,,,,,,,,,,,,,,,,,,,,,,,,,,,,,,,,,,,,,,,,,,,1.444,1015.600964,None,space,1,1015.600964,None,0.5369499,P039,FENCOG,1,Post,2022_May_04_1101,N-Back (New Version 2021),2021.1.4,119.6220899
,,,,Conditions/Version_1/threeback(3)_v1.xlsx,New rule: Press 'space' when you see 3-back (i.e. the same letter as the one that appeared 3 letters ago.),p,None,,,,,,,,,0,8,8,8,0,8,8,8,,,,,,,,,,,,,,,,,,,,,,,,,,,,,,,,,,,,,,,,,,,,,,,,,,,,,,,,,,,,,,,,,,,,,1.1402,1018.750713,None,None,1,1018.750713,None,,P039,FENCOG,1,Post,2022_May_04_1101,N-Back (New Version 2021),2021.1.4,119.6220899
,,,,Conditions/Version_1/threeback(3)_v1.xlsx,New rule: Press 'space' when you see 3-back (i.e. the same letter as the one that appeared 3 letters ago.),W,space,,,,,,,,,0,8,8,8,0,9,9,9,,,,,,,,,,,,,,,,,,,,,,,,,,,,,,,,,,,,,,,,,,,,,,,,,,,,,,,,,,,,,,,,,,,,,1.9896,1022.749296,None,space,1,1022.749296,None,0.4290524,P039,FENCOG,1,Post,2022_May_04_1101,N-Back (New Version 2021),2021.1.4,119.6220899
,,,,Conditions/Version_1/threeback(3)_v1.xlsx,New rule: Press 'space' when you see 3-back (i.e. the same letter as the one that appeared 3 letters ago.),,,,,,,,,,,0,8,8,8,,,,,,,,,,,,,,,,,,,,,,,,,,,,,,,,,,,,,,,,,,,,,,,,,,,,,,,,,,,,,,,,,,,,,,,,,,,,,,,,,P039,FENCOG,1,Post,2022_May_04_1101,N-Back (New Version 2021),2021.1.4,119.6220899
,,,,Conditions/Version_1/zeroback(3)_v1.xlsx,New rule: Press 'space' when you see the letter 'x' or 'X'.,X,space,,,,,,,,,0,9,9,9,0,0,0,0,,,,,,,,,,,,,,,,,,,,,,,,,,,,,,,,,,,,,,,,,,,,,,,,,,,,,,,,,,,1024.778659,None,1027.763125,None,space,0.3748214,1027.763125,None,1024.778659,None,1.4874,1029.663252,None,space,1,1029.663252,None,0.5226661,P039,FENCOG,1,Post,2022_May_04_1101,N-Back (New Version 2021),2021.1.4,119.6220899
,,,,Conditions/Version_1/zeroback(3)_v1.xlsx,New rule: Press 'space' when you see the letter 'x' or 'X'.,B,None,,,,,,,,,0,9,9,9,0,1,1,1,,,,,,,,,,,,,,,,,,,,,,,,,,,,,,,,,,,,,,,,,,,,,,,,,,,,,,,,,,,,,,,,,,,,,1.32,1032.997388,None,None,1,1032.997388,None,,P039,FENCOG,1,Post,2022_May_04_1101,N-Back (New Version 2021),2021.1.4,119.6220899
,,,,Conditions/Version_1/zeroback(3)_v1.xlsx,New rule: Press 'space' when you see the letter 'x' or 'X'.,m,None,,,,,,,,,0,9,9,9,0,2,2,2,,,,,,,,,,,,,,,,,,,,,,,,,,,,,,,,,,,,,,,,,,,,,,,,,,,,,,,,,,,,,,,,,,,,,1.1402,1036.144983,None,None,1,1036.144983,None,,P039,FENCOG,1,Post,2022_May_04_1101,N-Back (New Version 2021),2021.1.4,119.6220899
,,,,Conditions/Version_1/zeroback(3)_v1.xlsx,New rule: Press 'space' when you see the letter 'x' or 'X'.,m,None,,,,,,,,,0,9,9,9,0,3,3,3,,,,,,,,,,,,,,,,,,,,,,,,,,,,,,,,,,,,,,,,,,,,,,,,,,,,,,,,,,,,,,,,,,,,,1.9896,1040.139681,None,None,1,1040.139681,None,,P039,FENCOG,1,Post,2022_May_04_1101,N-Back (New Version 2021),2021.1.4,119.6220899
,,,,Conditions/Version_1/zeroback(3)_v1.xlsx,New rule: Press 'space' when you see the letter 'x' or 'X'.,o,None,,,,,,,,,0,9,9,9,0,4,4,4,,,,,,,,,,,,,,,,,,,,,,,,,,,,,,,,,,,,,,,,,,,,,,,,,,,,,,,,,,,,,,,,,,,,,1.3014,1043.451349,None,None,1,1043.451349,None,,P039,FENCOG,1,Post,2022_May_04_1101,N-Back (New Version 2021),2021.1.4,119.6220899
,,,,Conditions/Version_1/zeroback(3)_v1.xlsx,New rule: Press 'space' when you see the letter 'x' or 'X'.,p,None,,,,,,,,,0,9,9,9,0,5,5,5,,,,,,,,,,,,,,,,,,,,,,,,,,,,,,,,,,,,,,,,,,,,,,,,,,,,,,,,,,,,,,,,,,,,,1.041,1046.501332,None,None,1,1046.501332,None,,P039,FENCOG,1,Post,2022_May_04_1101,N-Back (New Version 2021),2021.1.4,119.6220899
,,,,Conditions/Version_1/zeroback(3)_v1.xlsx,New rule: Press 'space' when you see the letter 'x' or 'X'.,G,None,,,,,,,,,0,9,9,9,0,6,6,6,,,,,,,,,,,,,,,,,,,,,,,,,,,,,,,,,,,,,,,,,,,,,,,,,,,,,,,,,,,,,,,,,,,,,1.4254,1049.936637,None,None,1,1049.936637,None,,P039,FENCOG,1,Post,2022_May_04_1101,N-Back (New Version 2021),2021.1.4,119.6220899
,,,,Conditions/Version_1/zeroback(3)_v1.xlsx,New rule: Press 'space' when you see the letter 'x' or 'X'.,X,space,,,,,,,,,0,9,9,9,0,7,7,7,,,,,,,,,,,,,,,,,,,,,,,,,,,,,,,,,,,,,,,,,,,,,,,,,,,,,,,,,,,,,,,,,,,,,1.6486,1053.597544,None,space,1,1053.597544,None,0.2842941,P039,FENCOG,1,Post,2022_May_04_1101,N-Back (New Version 2021),2021.1.4,119.6220899
,,,,Conditions/Version_1/zeroback(3)_v1.xlsx,New rule: Press 'space' when you see the letter 'x' or 'X'.,p,None,,,,,,,,,0,9,9,9,0,8,8,8,,,,,,,,,,,,,,,,,,,,,,,,,,,,,,,,,,,,,,,,,,,,,,,,,,,,,,,,,,,,,,,,,,,,,1.7664,1057.372272,None,None,1,1057.372272,None,,P039,FENCOG,1,Post,2022_May_04_1101,N-Back (New Version 2021),2021.1.4,119.6220899
,,,,Conditions/Version_1/zeroback(3)_v1.xlsx,New rule: Press 'space' when you see the letter 'x' or 'X'.,x,space,,,,,,,,,0,9,9,9,0,9,9,9,,,,,,,,,,,,,,,,,,,,,,,,,,,,,,,,,,,,,,,,,,,,,,,,,,,,,,,,,,,,,,,,,,,,,1.3634,1060.746344,None,space,1,1060.746344,None,0.3517389,P039,FENCOG,1,Post,2022_May_04_1101,N-Back (New Version 2021),2021.1.4,119.6220899
,,,,Conditions/Version_1/zeroback(3)_v1.xlsx,New rule: Press 'space' when you see the letter 'x' or 'X'.,,,,,,,,,,,0,9,9,9,,,,,,,,,,,,,,,,,,,,,,,,,,,,,,,,,,,,,,,,,,,,,,,,,,,,,,,,,,,,,,,,,,,,,,,,,,,,,,,,,P039,FENCOG,1,Post,2022_May_04_1101,N-Back (New Version 2021),2021.1.4,119.6220899
,,,,Conditions/Version_1/twoback(3)_v1.xlsx,New rule: Press 'space' when you see 2-back (i.e. the same letter as the one that appeared 2 letters ago.),e,None,,,,,,,,,0,10,10,10,0,0,0,0,,,,,,,,,,,,,,,,,,,,,,,,,,,,,,,,,,,,,,,,,,,,,,,,,,,,,,,,,,,1062.783262,None,1065.773165,None,space,14.6366182,1065.773165,None,1062.783262,None,1.971,1082.424736,None,None,1,1082.424736,None,,P039,FENCOG,1,Post,2022_May_04_1101,N-Back (New Version 2021),2021.1.4,119.6220899
,,,,Conditions/Version_1/twoback(3)_v1.xlsx,New rule: Press 'space' when you see 2-back (i.e. the same letter as the one that appeared 2 letters ago.),o,None,,,,,,,,,0,10,10,10,0,1,1,1,,,,,,,,,,,,,,,,,,,,,,,,,,,,,,,,,,,,,,,,,,,,,,,,,,,,,,,,,,,,,,,,,,,,,1.258,1085.697018,None,None,1,1085.697018,None,,P039,FENCOG,1,Post,2022_May_04_1101,N-Back (New Version 2021),2021.1.4,119.6220899
,,,,Conditions/Version_1/twoback(3)_v1.xlsx,New rule: Press 'space' when you see 2-back (i.e. the same letter as the one that appeared 2 letters ago.),P,None,,,,,,,,,0,10,10,10,0,2,2,2,,,,,,,,,,,,,,,,,,,,,,,,,,,,,,,,,,,,,,,,,,,,,,,,,,,,,,,,,,,,,,,,,,,,,1.9276,1089.628536,None,None,1,1089.628536,None,,P039,FENCOG,1,Post,2022_May_04_1101,N-Back (New Version 2021),2021.1.4,119.6220899
,,,,Conditions/Version_1/twoback(3)_v1.xlsx,New rule: Press 'space' when you see 2-back (i.e. the same letter as the one that appeared 2 letters ago.),z,None,,,,,,,,,0,10,10,10,0,3,3,3,,,,,,,,,,,,,,,,,,,,,,,,,,,,,,,,,,,,,,,,,,,,,,,,,,,,,,,,,,,,,,,,,,,,,1.9462,1093.592098,None,None,1,1093.592098,None,,P039,FENCOG,1,Post,2022_May_04_1101,N-Back (New Version 2021),2021.1.4,119.6220899
,,,,Conditions/Version_1/twoback(3)_v1.xlsx,New rule: Press 'space' when you see 2-back (i.e. the same letter as the one that appeared 2 letters ago.),X,None,,,,,,,,,0,10,10,10,0,4,4,4,,,,,,,,,,,,,,,,,,,,,,,,,,,,,,,,,,,,,,,,,,,,,,,,,,,,,,,,,,,,,,,,,,,,,1.8842,1097.487858,None,None,1,1097.487858,None,,P039,FENCOG,1,Post,2022_May_04_1101,N-Back (New Version 2021),2021.1.4,119.6220899
,,,,Conditions/Version_1/twoback(3)_v1.xlsx,New rule: Press 'space' when you see 2-back (i.e. the same letter as the one that appeared 2 letters ago.),z,space,,,,,,,,,0,10,10,10,0,5,5,5,,,,,,,,,,,,,,,,,,,,,,,,,,,,,,,,,,,,,,,,,,,,,,,,,,,,,,,,,,,,,,,,,,,,,1.6796,1101.175755,None,space,1,1101.175755,None,0.3541604,P039,FENCOG,1,Post,2022_May_04_1101,N-Back (New Version 2021),2021.1.4,119.6220899
,,,,Conditions/Version_1/twoback(3)_v1.xlsx,New rule: Press 'space' when you see 2-back (i.e. the same letter as the one that appeared 2 letters ago.),x,space,,,,,,,,,0,10,10,10,0,6,6,6,,,,,,,,,,,,,,,,,,,,,,,,,,,,,,,,,,,,,,,,,,,,,,,,,,,,,,,,,,,,,,,,,,,,,1.5866,1104.773376,None,space,1,1104.773376,None,0.412647,P039,FENCOG,1,Post,2022_May_04_1101,N-Back (New Version 2021),2021.1.4,119.6220899
,,,,Conditions/Version_1/twoback(3)_v1.xlsx,New rule: Press 'space' when you see 2-back (i.e. the same letter as the one that appeared 2 letters ago.),c,None,,,,,,,,,0,10,10,10,0,7,7,7,,,,,,,,,,,,,,,,,,,,,,,,,,,,,,,,,,,,,,,,,,,,,,,,,,,,,,,,,,,,,,,,,,,,,1.9648,1108.750273,None,None,1,1108.750273,None,,P039,FENCOG,1,Post,2022_May_04_1101,N-Back (New Version 2021),2021.1.4,119.6220899
,,,,Conditions/Version_1/twoback(3)_v1.xlsx,New rule: Press 'space' when you see 2-back (i.e. the same letter as the one that appeared 2 letters ago.),i,None,,,,,,,,,0,10,10,10,0,8,8,8,,,,,,,,,,,,,,,,,,,,,,,,,,,,,,,,,,,,,,,,,,,,,,,,,,,,,,,,,,,,,,,,,,,,,1.0162,1111.774367,None,None,1,1111.774367,None,,P039,FENCOG,1,Post,2022_May_04_1101,N-Back (New Version 2021),2021.1.4,119.6220899
,,,,Conditions/Version_1/twoback(3)_v1.xlsx,New rule: Press 'space' when you see 2-back (i.e. the same letter as the one that appeared 2 letters ago.),C,space,,,,,,,,,0,10,10,10,0,9,9,9,,,,,,,,,,,,,,,,,,,,,,,,,,,,,,,,,,,,,,,,,,,,,,,,,,,,,,,,,,,,,,,,,,,,,1.9338,1115.712687,None,space,1,1115.712687,None,0.3132018,P039,FENCOG,1,Post,2022_May_04_1101,N-Back (New Version 2021),2021.1.4,119.6220899
,,,,Conditions/Version_1/twoback(3)_v1.xlsx,New rule: Press 'space' when you see 2-back (i.e. the same letter as the one that appeared 2 letters ago.),,,,,,,,,,,0,10,10,10,,,,,,,,,,,,,,,,,,,,,,,,,,,,,,,,,,,,,,,,,,,,,,,,,,,,,,,,,,,,,,,,,,,,,,,,,,,,,,,,,P039,FENCOG,1,Post,2022_May_04_1101,N-Back (New Version 2021),2021.1.4,119.6220899
,,,,Conditions/Version_1/oneback(3)_v1.xlsx,New rule: Press 'space' when you see 1-back (i.e. the same letter as the one that appeared 1 letter ago.),o,None,,,,,,,,,0,11,11,11,0,0,0,0,,,,,,,,,,,,,,,,,,,,,,,,,,,,,,,,,,,,,,,,,,,,,,,,,,,,,,,,,,,1117.741158,None,1120.729241,None,space,0.5843783,1120.729241,None,1117.741158,None,1.9338,1123.296591,None,None,1,1123.296591,None,,P039,FENCOG,1,Post,2022_May_04_1101,N-Back (New Version 2021),2021.1.4,119.6220899
,,,,Conditions/Version_1/oneback(3)_v1.xlsx,New rule: Press 'space' when you see 1-back (i.e. the same letter as the one that appeared 1 letter ago.),O,space,,,,,,,,,0,11,11,11,0,1,1,1,,,,,,,,,,,,,,,,,,,,,,,,,,,,,,,,,,,,,,,,,,,,,,,,,,,,,,,,,,,,,,,,,,,,,1.3448,1126.651934,None,space,1,1126.651934,None,0.3017489,P039,FENCOG,1,Post,2022_May_04_1101,N-Back (New Version 2021),2021.1.4,119.6220899
,,,,Conditions/Version_1/oneback(3)_v1.xlsx,New rule: Press 'space' when you see 1-back (i.e. the same letter as the one that appeared 1 letter ago.),h,None,,,,,,,,,0,11,11,11,0,2,2,2,,,,,,,,,,,,,,,,,,,,,,,,,,,,,,,,,,,,,,,,,,,,,,,,,,,,,,,,,,,,,,,,,,,,,1.8718,1130.53548,None,None,1,1130.53548,None,,P039,FENCOG,1,Post,2022_May_04_1101,N-Back (New Version 2021),2021.1.4,119.6220899
,,,,Conditions/Version_1/oneback(3)_v1.xlsx,New rule: Press 'space' when you see 1-back (i.e. the same letter as the one that appeared 1 letter ago.),g,None,,,,,,,,,0,11,11,11,0,3,3,3,,,,,,,,,,,,,,,,,,,,,,,,,,,,,,,,,,,,,,,,,,,,,,,,,,,,,,,,,,,,,,,,,,,,,1.971,1134.516092,None,None,1,1134.516092,None,,P039,FENCOG,1,Post,2022_May_04_1101,N-Back (New Version 2021),2021.1.4,119.6220899
,,,,Conditions/Version_1/oneback(3)_v1.xlsx,New rule: Press 'space' when you see 1-back (i.e. the same letter as the one that appeared 1 letter ago.),n,None,,,,,,,,,0,11,11,11,0,4,4,4,,,,,,,,,,,,,,,,,,,,,,,,,,,,,,,,,,,,,,,,,,,,,,,,,,,,,,,,,,,,,,,,,,,,,1.5866,1138.117276,None,None,1,1138.117276,None,,P039,FENCOG,1,Post,2022_May_04_1101,N-Back (New Version 2021),2021.1.4,119.6220899
,,,,Conditions/Version_1/oneback(3)_v1.xlsx,New rule: Press 'space' when you see 1-back (i.e. the same letter as the one that appeared 1 letter ago.),z,None,,,,,,,,,0,11,11,11,0,5,5,5,,,,,,,,,,,,,,,,,,,,,,,,,,,,,,,,,,,,,,,,,,,,,,,,,,,,,,,,,,,,,,,,,,,,,1.7788,1141.905532,None,None,1,1141.905532,None,,P039,FENCOG,1,Post,2022_May_04_1101,N-Back (New Version 2021),2021.1.4,119.6220899
,,,,Conditions/Version_1/oneback(3)_v1.xlsx,New rule: Press 'space' when you see 1-back (i.e. the same letter as the one that appeared 1 letter ago.),X,None,,,,,,,,,0,11,11,11,0,6,6,6,,,,,,,,,,,,,,,,,,,,,,,,,,,,,,,,,,,,,,,,,,,,,,,,,,,,,,,,,,,,,,,,,,,,,1.4688,1145.387793,None,None,1,1145.387793,None,,P039,FENCOG,1,Post,2022_May_04_1101,N-Back (New Version 2021),2021.1.4,119.6220899
,,,,Conditions/Version_1/oneback(3)_v1.xlsx,New rule: Press 'space' when you see 1-back (i.e. the same letter as the one that appeared 1 letter ago.),r,None,,,,,,,,,0,11,11,11,0,7,7,7,,,,,,,,,,,,,,,,,,,,,,,,,,,,,,,,,,,,,,,,,,,,,,,,,,,,,,,,,,,,,,,,,,,,,1.4874,1148.887051,None,None,1,1148.887051,None,,P039,FENCOG,1,Post,2022_May_04_1101,N-Back (New Version 2021),2021.1.4,119.6220899
,,,,Conditions/Version_1/oneback(3)_v1.xlsx,New rule: Press 'space' when you see 1-back (i.e. the same letter as the one that appeared 1 letter ago.),r,space,,,,,,,,,0,11,11,11,0,8,8,8,,,,,,,,,,,,,,,,,,,,,,,,,,,,,,,,,,,,,,,,,,,,,,,,,,,,,,,,,,,,,,,,,,,,,1.227,1152.123901,None,space,1,1152.123901,None,0.4459741,P039,FENCOG,1,Post,2022_May_04_1101,N-Back (New Version 2021),2021.1.4,119.6220899
,,,,Conditions/Version_1/oneback(3)_v1.xlsx,New rule: Press 'space' when you see 1-back (i.e. the same letter as the one that appeared 1 letter ago.),P,None,,,,,,,,,0,11,11,11,0,9,9,9,,,,,,,,,,,,,,,,,,,,,,,,,,,,,,,,,,,,,,,,,,,,,,,,,,,,,,,,,,,,,,,,,,,,,1.3014,1155.48645,None,None,1,1155.48645,None,,P039,FENCOG,1,Post,2022_May_04_1101,N-Back (New Version 2021),2021.1.4,119.6220899
,,,,Conditions/Version_1/oneback(3)_v1.xlsx,New rule: Press 'space' when you see 1-back (i.e. the same letter as the one that appeared 1 letter ago.),,,,,,,,,,,0,11,11,11,,,,,,,,,,,,,,,,,,,,,,,,,,,,,,,,,,,,,,,,,,,,,,,,,,,,,,,,,,,,,,,,,,,,,,,,,,,,,,,,,P039,FENCOG,1,Post,2022_May_04_1101,N-Back (New Version 2021),2021.1.4,119.6220899
,,,,Conditions/Version_1/twoback(4)_v1.xlsx,New rule: Press 'space' when you see 2-back (i.e. the same letter as the one that appeared 2 letters ago.),r,None,,,,,,,,,0,12,12,12,0,0,0,0,,,,,,,,,,,,,,,,,,,,,,,,,,,,,,,,,,,,,,,,,,,,,,,,,,,,,,,,,,,1157.503414,None,1160.476178,None,space,0.2855029,1160.476178,None,1157.503414,None,1.1836,1161.991015,None,None,1,1161.991015,None,,P039,FENCOG,1,Post,2022_May_04_1101,N-Back (New Version 2021),2021.1.4,119.6220899
,,,,Conditions/Version_1/twoback(4)_v1.xlsx,New rule: Press 'space' when you see 2-back (i.e. the same letter as the one that appeared 2 letters ago.),T,None,,,,,,,,,0,12,12,12,0,1,1,1,,,,,,,,,,,,,,,,,,,,,,,,,,,,,,,,,,,,,,,,,,,,,,,,,,,,,,,,,,,,,,,,,,,,,1.816,1165.817738,None,None,1,1165.817738,None,,P039,FENCOG,1,Post,2022_May_04_1101,N-Back (New Version 2021),2021.1.4,119.6220899
,,,,Conditions/Version_1/twoback(4)_v1.xlsx,New rule: Press 'space' when you see 2-back (i.e. the same letter as the one that appeared 2 letters ago.),o,None,,,,,,,,,0,12,12,12,0,2,2,2,,,,,,,,,,,,,,,,,,,,,,,,,,,,,,,,,,,,,,,,,,,,,,,,,,,,,,,,,,,,,,,,,,,,,1.754,1169.571336,None,None,1,1169.571336,None,,P039,FENCOG,1,Post,2022_May_04_1101,N-Back (New Version 2021),2021.1.4,119.6220899
,,,,Conditions/Version_1/twoback(4)_v1.xlsx,New rule: Press 'space' when you see 2-back (i.e. the same letter as the one that appeared 2 letters ago.),p,None,,,,,,,,,0,12,12,12,0,3,3,3,,,,,,,,,,,,,,,,,,,,,,,,,,,,,,,,,,,,,,,,,,,,,,,,,,,,,,,,,,,,,,,,,,,,,1.475,1173.056217,None,None,1,1173.056217,None,,P039,FENCOG,1,Post,2022_May_04_1101,N-Back (New Version 2021),2021.1.4,119.6220899
,,,,Conditions/Version_1/twoback(4)_v1.xlsx,New rule: Press 'space' when you see 2-back (i.e. the same letter as the one that appeared 2 letters ago.),p,None,,,,,,,,,0,12,12,12,0,4,4,4,,,,,,,,,,,,,,,,,,,,,,,,,,,,,,,,,,,,,,,,,,,,,,,,,,,,,,,,,,,,,,,,,,,,,1.3262,1176.391931,None,None,1,1176.391931,None,,P039,FENCOG,1,Post,2022_May_04_1101,N-Back (New Version 2021),2021.1.4,119.6220899
,,,,Conditions/Version_1/twoback(4)_v1.xlsx,New rule: Press 'space' when you see 2-back (i.e. the same letter as the one that appeared 2 letters ago.),y,None,,,,,,,,,0,12,12,12,0,5,5,5,,,,,,,,,,,,,,,,,,,,,,,,,,,,,,,,,,,,,,,,,,,,,,,,,,,,,,,,,,,,,,,,,,,,,1.5742,1179.977438,None,None,1,1179.977438,None,,P039,FENCOG,1,Post,2022_May_04_1101,N-Back (New Version 2021),2021.1.4,119.6220899
,,,,Conditions/Version_1/twoback(4)_v1.xlsx,New rule: Press 'space' when you see 2-back (i.e. the same letter as the one that appeared 2 letters ago.),P,space,,,,,,,,,0,12,12,12,0,6,6,6,,,,,,,,,,,,,,,,,,,,,,,,,,,,,,,,,,,,,,,,,,,,,,,,,,,,,,,,,,,,,,,,,,,,,1.8966,1183.88017,None,space,1,1183.88017,None,0.6255195,P039,FENCOG,1,Post,2022_May_04_1101,N-Back (New Version 2021),2021.1.4,119.6220899
,,,,Conditions/Version_1/twoback(4)_v1.xlsx,New rule: Press 'space' when you see 2-back (i.e. the same letter as the one that appeared 2 letters ago.),y,None,,,,,,,,,0,12,12,12,0,7,7,7,,,,,,,,,,,,,,,,,,,,,,,,,,,,,,,,,,,,,,,,,,,,,,,,,,,,,,,,,,,,,,,,,,,,,1.072,1186.968973,None,space,0,1186.968973,None,0.4330423,P039,FENCOG,1,Post,2022_May_04_1101,N-Back (New Version 2021),2021.1.4,119.6220899
,,,,Conditions/Version_1/twoback(4)_v1.xlsx,New rule: Press 'space' when you see 2-back (i.e. the same letter as the one that appeared 2 letters ago.),y,space,,,,,,,,,0,12,12,12,0,8,8,8,,,,,,,,,,,,,,,,,,,,,,,,,,,,,,,,,,,,,,,,,,,,,,,,,,,,,,,,,,,,,,,,,,,,,1.4564,1190.429462,None,None,0,1190.429462,None,,P039,FENCOG,1,Post,2022_May_04_1101,N-Back (New Version 2021),2021.1.4,119.6220899
,,,,Conditions/Version_1/twoback(4)_v1.xlsx,New rule: Press 'space' when you see 2-back (i.e. the same letter as the one that appeared 2 letters ago.),,,,,,,,,,,0,12,12,12,,,,,,,,,,,,,,,,,,,,,,,,,,,,,,,,,,,,,,,,,,,,,,,,,,,,,,,,,,,,,,,,,,,,,,,,,,,,,,,,,P039,FENCOG,1,Post,2022_May_04_1101,N-Back (New Version 2021),2021.1.4,119.6220899
,,,,Conditions/Version_1/zeroback(4)_v1.xlsx,New rule: Press 'space' when you see the letter 'x' or 'X'.,o,None,,,,,,,,,0,13,13,13,0,0,0,0,,,,,,,,,,,,,,,,,,,,,,,,,,,,,,,,,,,,,,,,,,,,,,,,,,,,,,,,,,,1192.474988,None,1195.45646,None,space,0.4813642,1195.45646,None,1192.474988,None,1.2518,1197.238926,None,None,1,1197.238926,None,,P039,FENCOG,1,Post,2022_May_04_1101,N-Back (New Version 2021),2021.1.4,119.6220899
,,,,Conditions/Version_1/zeroback(4)_v1.xlsx,New rule: Press 'space' when you see the letter 'x' or 'X'.,X,space,,,,,,,,,0,13,13,13,0,1,1,1,,,,,,,,,,,,,,,,,,,,,,,,,,,,,,,,,,,,,,,,,,,,,,,,,,,,,,,,,,,,,,,,,,,,,1.9276,1201.179227,None,space,1,1201.179227,None,0.3106802,P039,FENCOG,1,Post,2022_May_04_1101,N-Back (New Version 2021),2021.1.4,119.6220899
,,,,Conditions/Version_1/zeroback(4)_v1.xlsx,New rule: Press 'space' when you see the letter 'x' or 'X'.,p,None,,,,,,,,,0,13,13,13,0,2,2,2,,,,,,,,,,,,,,,,,,,,,,,,,,,,,,,,,,,,,,,,,,,,,,,,,,,,,,,,,,,,,,,,,,,,,1.0782,1204.269633,None,None,1,1204.269633,None,,P039,FENCOG,1,Post,2022_May_04_1101,N-Back (New Version 2021),2021.1.4,119.6220899
,,,,Conditions/Version_1/zeroback(4)_v1.xlsx,New rule: Press 'space' when you see the letter 'x' or 'X'.,m,None,,,,,,,,,0,13,13,13,0,3,3,3,,,,,,,,,,,,,,,,,,,,,,,,,,,,,,,,,,,,,,,,,,,,,,,,,,,,,,,,,,,,,,,,,,,,,1.7912,1208.070624,None,None,1,1208.070624,None,,P039,FENCOG,1,Post,2022_May_04_1101,N-Back (New Version 2021),2021.1.4,119.6220899
,,,,Conditions/Version_1/zeroback(4)_v1.xlsx,New rule: Press 'space' when you see the letter 'x' or 'X'.,n,None,,,,,,,,,0,13,13,13,0,4,4,4,,,,,,,,,,,,,,,,,,,,,,,,,,,,,,,,,,,,,,,,,,,,,,,,,,,,,,,,,,,,,,,,,,,,,1.0224,1211.103533,None,None,1,1211.103533,None,,P039,FENCOG,1,Post,2022_May_04_1101,N-Back (New Version 2021),2021.1.4,119.6220899
,,,,Conditions/Version_1/zeroback(4)_v1.xlsx,New rule: Press 'space' when you see the letter 'x' or 'X'.,m,None,,,,,,,,,0,13,13,13,0,5,5,5,,,,,,,,,,,,,,,,,,,,,,,,,,,,,,,,,,,,,,,,,,,,,,,,,,,,,,,,,,,,,,,,,,,,,1.7974,1214.91993,None,None,1,1214.91993,None,,P039,FENCOG,1,Post,2022_May_04_1101,N-Back (New Version 2021),2021.1.4,119.6220899
,,,,Conditions/Version_1/zeroback(4)_v1.xlsx,New rule: Press 'space' when you see the letter 'x' or 'X'.,C,None,,,,,,,,,0,13,13,13,0,6,6,6,,,,,,,,,,,,,,,,,,,,,,,,,,,,,,,,,,,,,,,,,,,,,,,,,,,,,,,,,,,,,,,,,,,,,1.32,1218.249303,None,None,1,1218.249303,None,,P039,FENCOG,1,Post,2022_May_04_1101,N-Back (New Version 2021),2021.1.4,119.6220899
,,,,Conditions/Version_1/zeroback(4)_v1.xlsx,New rule: Press 'space' when you see the letter 'x' or 'X'.,m,None,,,,,,,,,0,13,13,13,0,7,7,7,,,,,,,,,,,,,,,,,,,,,,,,,,,,,,,,,,,,,,,,,,,,,,,,,,,,,,,,,,,,,,,,,,,,,1.134,1221.398792,None,None,1,1221.398792,None,,P039,FENCOG,1,Post,2022_May_04_1101,N-Back (New Version 2021),2021.1.4,119.6220899
,,,,Conditions/Version_1/zeroback(4)_v1.xlsx,New rule: Press 'space' when you see the letter 'x' or 'X'.,p,None,,,,,,,,,0,13,13,13,0,8,8,8,,,,,,,,,,,,,,,,,,,,,,,,,,,,,,,,,,,,,,,,,,,,,,,,,,,,,,,,,,,,,,,,,,,,,1.1154,1224.530836,None,None,1,1224.530836,None,,P039,FENCOG,1,Post,2022_May_04_1101,N-Back (New Version 2021),2021.1.4,119.6220899
,,,,Conditions/Version_1/zeroback(4)_v1.xlsx,New rule: Press 'space' when you see the letter 'x' or 'X'.,X,space,,,,,,,,,0,13,13,13,0,9,9,9,,,,,,,,,,,,,,,,,,,,,,,,,,,,,,,,,,,,,,,,,,,,,,,,,,,,,,,,,,,,,,,,,,,,,1.2394,1227.786122,None,space,1,1227.786122,None,0.2957666,P039,FENCOG,1,Post,2022_May_04_1101,N-Back (New Version 2021),2021.1.4,119.6220899
,,,,Conditions/Version_1/zeroback(4)_v1.xlsx,New rule: Press 'space' when you see the letter 'x' or 'X'.,,,,,,,,,,,0,13,13,13,,,,,,,,,,,,,,,,,,,,,,,,,,,,,,,,,,,,,,,,,,,,,,,,,,,,,,,,,,,,,,,,,,,,,,,,,,,,,,,,,P039,FENCOG,1,Post,2022_May_04_1101,N-Back (New Version 2021),2021.1.4,119.6220899
,,,,Conditions/Version_1/oneback(4)_v1.xlsx,New rule: Press 'space' when you see 1-back (i.e. the same letter as the one that appeared 1 letter ago.),w,None,,,,,,,,,0,14,14,14,0,0,0,0,,,,,,,,,,,,,,,,,,,,,,,,,,,,,,,,,,,,,,,,,,,,,,,,,,,,,,,,,,,1229.827024,None,1232.804603,None,space,0.2929012,1232.804603,None,1229.827024,None,1.4626,1234.60211,None,None,1,1234.60211,None,,P039,FENCOG,1,Post,2022_May_04_1101,N-Back (New Version 2021),2021.1.4,119.6220899
,,,,Conditions/Version_1/oneback(4)_v1.xlsx,New rule: Press 'space' when you see 1-back (i.e. the same letter as the one that appeared 1 letter ago.),q,None,,,,,,,,,0,14,14,14,0,1,1,1,,,,,,,,,,,,,,,,,,,,,,,,,,,,,,,,,,,,,,,,,,,,,,,,,,,,,,,,,,,,,,,,,,,,,1.4006,1238.008493,None,None,1,1238.008493,None,,P039,FENCOG,1,Post,2022_May_04_1101,N-Back (New Version 2021),2021.1.4,119.6220899
,,,,Conditions/Version_1/oneback(4)_v1.xlsx,New rule: Press 'space' when you see 1-back (i.e. the same letter as the one that appeared 1 letter ago.),i,None,,,,,,,,,0,14,14,14,0,2,2,2,,,,,,,,,,,,,,,,,,,,,,,,,,,,,,,,,,,,,,,,,,,,,,,,,,,,,,,,,,,,,,,,,,,,,1.5122,1241.52523,None,None,1,1241.52523,None,,P039,FENCOG,1,Post,2022_May_04_1101,N-Back (New Version 2021),2021.1.4,119.6220899
,,,,Conditions/Version_1/oneback(4)_v1.xlsx,New rule: Press 'space' when you see 1-back (i.e. the same letter as the one that appeared 1 letter ago.),t,None,,,,,,,,,0,14,14,14,0,3,3,3,,,,,,,,,,,,,,,,,,,,,,,,,,,,,,,,,,,,,,,,,,,,,,,,,,,,,,,,,,,,,,,,,,,,,1.9214,1245.467769,None,None,1,1245.467769,None,,P039,FENCOG,1,Post,2022_May_04_1101,N-Back (New Version 2021),2021.1.4,119.6220899
,,,,Conditions/Version_1/oneback(4)_v1.xlsx,New rule: Press 'space' when you see 1-back (i.e. the same letter as the one that appeared 1 letter ago.),v,None,,,,,,,,,0,14,14,14,0,4,4,4,,,,,,,,,,,,,,,,,,,,,,,,,,,,,,,,,,,,,,,,,,,,,,,,,,,,,,,,,,,,,,,,,,,,,1.041,1248.512887,None,None,1,1248.512887,None,,P039,FENCOG,1,Post,2022_May_04_1101,N-Back (New Version 2021),2021.1.4,119.6220899
,,,,Conditions/Version_1/oneback(4)_v1.xlsx,New rule: Press 'space' when you see 1-back (i.e. the same letter as the one that appeared 1 letter ago.),V,space,,,,,,,,,0,14,14,14,0,5,5,5,,,,,,,,,,,,,,,,,,,,,,,,,,,,,,,,,,,,,,,,,,,,,,,,,,,,,,,,,,,,,,,,,,,,,1.537,1252.068444,None,space,1,1252.068444,None,0.2853152,P039,FENCOG,1,Post,2022_May_04_1101,N-Back (New Version 2021),2021.1.4,119.6220899
,,,,Conditions/Version_1/oneback(4)_v1.xlsx,New rule: Press 'space' when you see 1-back (i.e. the same letter as the one that appeared 1 letter ago.),v,space,,,,,,,,,0,14,14,14,0,6,6,6,,,,,,,,,,,,,,,,,,,,,,,,,,,,,,,,,,,,,,,,,,,,,,,,,,,,,,,,,,,,,,,,,,,,,1.4874,1255.566831,None,space,1,1255.566831,None,1.6668504,P039,FENCOG,1,Post,2022_May_04_1101,N-Back (New Version 2021),2021.1.4,119.6220899
,,,,Conditions/Version_1/oneback(4)_v1.xlsx,New rule: Press 'space' when you see 1-back (i.e. the same letter as the one that appeared 1 letter ago.),p,None,,,,,,,,,0,14,14,14,0,7,7,7,,,,,,,,,,,,,,,,,,,,,,,,,,,,,,,,,,,,,,,,,,,,,,,,,,,,,,,,,,,,,,,,,,,,,1.0286,1258.603831,None,None,1,1258.603831,None,,P039,FENCOG,1,Post,2022_May_04_1101,N-Back (New Version 2021),2021.1.4,119.6220899
,,,,Conditions/Version_1/oneback(4)_v1.xlsx,New rule: Press 'space' when you see 1-back (i.e. the same letter as the one that appeared 1 letter ago.),w,None,,,,,,,,,0,14,14,14,0,8,8,8,,,,,,,,,,,,,,,,,,,,,,,,,,,,,,,,,,,,,,,,,,,,,,,,,,,,,,,,,,,,,,,,,,,,,1.3882,1262.003955,None,None,1,1262.003955,None,,P039,FENCOG,1,Post,2022_May_04_1101,N-Back (New Version 2021),2021.1.4,119.6220899
,,,,Conditions/Version_1/oneback(4)_v1.xlsx,New rule: Press 'space' when you see 1-back (i.e. the same letter as the one that appeared 1 letter ago.),W,space,,,,,,,,,0,14,14,14,0,9,9,9,,,,,,,,,,,,,,,,,,,,,,,,,,,,,,,,,,,,,,,,,,,,,,,,,,,,,,,,,,,,,,,,,,,,,1.785,1265.80191,None,space,1,1265.80191,None,0.3197702,P039,FENCOG,1,Post,2022_May_04_1101,N-Back (New Version 2021),2021.1.4,119.6220899
,,,,Conditions/Version_1/oneback(4)_v1.xlsx,New rule: Press 'space' when you see 1-back (i.e. the same letter as the one that appeared 1 letter ago.),,,,,,,,,,,0,14,14,14,,,,,,,,,,,,,,,,,,,,,,,,,,,,,,,,,,,,,,,,,,,,,,,,,,,,,,,,,,,,,,,,,,,,,,,,,,,,,,,,,P039,FENCOG,1,Post,2022_May_04_1101,N-Back (New Version 2021),2021.1.4,119.6220899
,,,,Conditions/Version_1/threeback(4)_v1.xlsx,New rule: Press 'space' when you see 3-back (i.e. the same letter as the one that appeared 3 letters ago.),A,None,,,,,,,,,0,15,15,15,0,0,0,0,,,,,,,,,,,,,,,,,,,,,,,,,,,,,,,,,,,,,,,,,,,,,,,,,,,,,,,,,,,1267.843131,None,1270.826851,None,space,0.6866706,1270.826851,None,1267.843131,None,1.2208,1272.775271,None,None,1,1272.775271,None,,P039,FENCOG,1,Post,2022_May_04_1101,N-Back (New Version 2021),2021.1.4,119.6220899
,,,,Conditions/Version_1/threeback(4)_v1.xlsx,New rule: Press 'space' when you see 3-back (i.e. the same letter as the one that appeared 3 letters ago.),n,None,,,,,,,,,0,15,15,15,0,1,1,1,,,,,,,,,,,,,,,,,,,,,,,,,,,,,,,,,,,,,,,,,,,,,,,,,,,,,,,,,,,,,,,,,,,,,1.9152,1276.696245,None,None,1,1276.696245,None,,P039,FENCOG,1,Post,2022_May_04_1101,N-Back (New Version 2021),2021.1.4,119.6220899
,,,,Conditions/Version_1/threeback(4)_v1.xlsx,New rule: Press 'space' when you see 3-back (i.e. the same letter as the one that appeared 3 letters ago.),g,None,,,,,,,,,0,15,15,15,0,2,2,2,,,,,,,,,,,,,,,,,,,,,,,,,,,,,,,,,,,,,,,,,,,,,,,,,,,,,,,,,,,,,,,,,,,,,1.2332,1279.94603,None,None,1,1279.94603,None,,P039,FENCOG,1,Post,2022_May_04_1101,N-Back (New Version 2021),2021.1.4,119.6220899
,,,,Conditions/Version_1/threeback(4)_v1.xlsx,New rule: Press 'space' when you see 3-back (i.e. the same letter as the one that appeared 3 letters ago.),A,space,,,,,,,,,0,15,15,15,0,3,3,3,,,,,,,,,,,,,,,,,,,,,,,,,,,,,,,,,,,,,,,,,,,,,,,,,,,,,,,,,,,,,,,,,,,,,1.7106,1283.661696,None,space,1,1283.661696,None,0.4203101,P039,FENCOG,1,Post,2022_May_04_1101,N-Back (New Version 2021),2021.1.4,119.6220899
,,,,Conditions/Version_1/threeback(4)_v1.xlsx,New rule: Press 'space' when you see 3-back (i.e. the same letter as the one that appeared 3 letters ago.),p,None,,,,,,,,,0,15,15,15,0,4,4,4,,,,,,,,,,,,,,,,,,,,,,,,,,,,,,,,,,,,,,,,,,,,,,,,,,,,,,,,,,,,,,,,,,,,,1.5432,1287.211985,None,None,1,1287.211985,None,,P039,FENCOG,1,Post,2022_May_04_1101,N-Back (New Version 2021),2021.1.4,119.6220899
,,,,Conditions/Version_1/threeback(4)_v1.xlsx,New rule: Press 'space' when you see 3-back (i.e. the same letter as the one that appeared 3 letters ago.),O,None,,,,,,,,,0,15,15,15,0,5,5,5,,,,,,,,,,,,,,,,,,,,,,,,,,,,,,,,,,,,,,,,,,,,,,,,,,,,,,,,,,,,,,,,,,,,,1.5618,1290.788542,None,None,1,1290.788542,None,,P039,FENCOG,1,Post,2022_May_04_1101,N-Back (New Version 2021),2021.1.4,119.6220899
,,,,Conditions/Version_1/threeback(4)_v1.xlsx,New rule: Press 'space' when you see 3-back (i.e. the same letter as the one that appeared 3 letters ago.),a,space,,,,,,,,,0,15,15,15,0,6,6,6,,,,,,,,,,,,,,,,,,,,,,,,,,,,,,,,,,,,,,,,,,,,,,,,,,,,,,,,,,,,,,,,,,,,,1.2084,1294.00178,None,space,1,1294.00178,None,0.3763767,P039,FENCOG,1,Post,2022_May_04_1101,N-Back (New Version 2021),2021.1.4,119.6220899
,,,,Conditions/Version_1/threeback(4)_v1.xlsx,New rule: Press 'space' when you see 3-back (i.e. the same letter as the one that appeared 3 letters ago.),p,space,,,,,,,,,0,15,15,15,0,7,7,7,,,,,,,,,,,,,,,,,,,,,,,,,,,,,,,,,,,,,,,,,,,,,,,,,,,,,,,,,,,,,,,,,,,,,1.909,1297.913756,None,space,1,1297.913756,None,0.4639413,P039,FENCOG,1,Post,2022_May_04_1101,N-Back (New Version 2021),2021.1.4,119.6220899
,,,,Conditions/Version_1/threeback(4)_v1.xlsx,New rule: Press 'space' when you see 3-back (i.e. the same letter as the one that appeared 3 letters ago.),x,None,,,,,,,,,0,15,15,15,0,8,8,8,,,,,,,,,,,,,,,,,,,,,,,,,,,,,,,,,,,,,,,,,,,,,,,,,,,,,,,,,,,,,,,,,,,,,1.9462,1301.867535,None,None,1,1301.867535,None,,P039,FENCOG,1,Post,2022_May_04_1101,N-Back (New Version 2021),2021.1.4,119.6220899
,,,,Conditions/Version_1/threeback(4)_v1.xlsx,New rule: Press 'space' when you see 3-back (i.e. the same letter as the one that appeared 3 letters ago.),X,None,,,,,,,,,0,15,15,15,0,9,9,9,,,,,,,,,,,,,,,,,,,,,,,,,,,,,,,,,,,,,,,,,,,,,,,,,,,,,,,,,,,,,,,,,,,,,1.7044,1305.580207,None,None,1,1305.580207,None,,P039,FENCOG,1,Post,2022_May_04_1101,N-Back (New Version 2021),2021.1.4,119.6220899
,,,,Conditions/Version_1/threeback(4)_v1.xlsx,New rule: Press 'space' when you see 3-back (i.e. the same letter as the one that appeared 3 letters ago.),,,,,,,,,,,0,15,15,15,,,,,,,,,,,,,,,,,,,,,,,,,,,,,,,,,,,,,,,,,,,,,,,,,,,,,,,,,,,,,,,,,,,,,,,,,,,,,,,,,P039,FENCOG,1,Post,2022_May_04_1101,N-Back (New Version 2021),2021.1.4,119.6220899
