CondFileP,InstructionsP,LettersDisplayedP,CorrectnessP,CondFile,Instructions,LettersDisplayed,Correctness,practicetrials.thisRepN,practicetrials.thisTrialN,practicetrials.thisN,practicetrials.thisIndex,InnerLoopPractice.thisRepN,InnerLoopPractice.thisTrialN,InnerLoopPractice.thisN,InnerLoopPractice.thisIndex,trials.thisRepN,trials.thisTrialN,trials.thisN,trials.thisIndex,InnerLoop.thisRepN,InnerLoop.thisTrialN,InnerLoop.thisN,InnerLoop.thisIndex,TaskVersionText.started,TaskVersionText.stopped,InstrKey1.keys,InstrKey1.rt,InstrKey1.started,InstrKey1.stopped,text.started,text.stopped,key_resp_4.keys,key_resp_4.rt,key_resp_4.started,key_resp_4.stopped,text_2.started,text_2.stopped,key_resp_3.keys,key_resp_3.rt,key_resp_3.started,key_resp_3.stopped,text_3.started,text_3.stopped,key_resp_2.keys,key_resp_2.rt,key_resp_2.started,key_resp_2.stopped,PractIn1.started,PractIn1.stopped,PractIn2.started,PractIn2.stopped,PractInstructionPass.keys,PractInstructionPass.rt,PractInstructionPass.started,PractInstructionPass.stopped,PractBlock1.started,PractBlock1.stopped,ISIjitterPractice,ISI_Pract_Fixation.started,ISI_Pract_Fixation.stopped,N_backP.started,N_backP.stopped,KeyPractice.keys,KeyPractice.corr,KeyPractice.started,KeyPractice.stopped,text_4.started,text_4.stopped,KeyPractice.rt,TransitionText.started,TransitionText.stopped,key_resp_6.keys,key_resp_6.rt,key_resp_6.started,key_resp_6.stopped,text_5.started,text_5.stopped,key_resp_5.keys,key_resp_5.rt,key_resp_5.started,key_resp_5.stopped,MainInt1.started,MainInt1.stopped,MainInt2.started,MainInt2.stopped,InstructionPass.keys,InstructionPass.rt,InstructionPass.started,InstructionPass.stopped,Blocks1.started,Blocks1.stopped,ISIjitter,N_backD.started,N_backD.stopped,key_resp.keys,key_resp.corr,key_resp.started,key_resp.stopped,key_resp.rt,participant,Study Name,Task Version (required to run),PRE/POST,date,expName,psychopyVersion,frameRate,
,,,,,,,,,,,,,,,,,,,,,,,,97.0081554999997,None,space,113.61743059999935,97.5016184999995,None,,,,,,,,,,,,,,,,,,,,,,,,,,,,,,,,,,,,,,,,,,,,,,,,,,,,,,,,,,,,,,,,,,,,,,,P040,FENCOG,1,Pre,2022_Apr_28_1113,N-Back (New Version 2021),2021.1.4,120.0347620667229,
,,,,,,,,,,,,,,,,,,,,,,,,,,,,,,211.1512576999994,None,space,8.115969000000405,211.64293120000002,None,,,,,,,,,,,,,,,,,,,,,,,,,,,,,,,,,,,,,,,,,,,,,,,,,,,,,,,,,,,,,,,,,P040,FENCOG,1,Pre,2022_Apr_28_1113,N-Back (New Version 2021),2021.1.4,120.0347620667229,
,,,,,,,,,,,,,,,,,,,,,,,,,,,,,,,,,,,,219.7864754000002,None,space,16.7801113000005,220.28260799999953,None,,,,,,,,,,,,,,,,,,,,,,,,,,,,,,,,,,,,,,,,,,,,,,,,,,,,,,,,,,,P040,FENCOG,1,Pre,2022_Apr_28_1113,N-Back (New Version 2021),2021.1.4,120.0347620667229,
,,,,,,,,,,,,,,,,,,,,,,,,,,,,,,,,,,,,,,,,,,237.08687829999963,None,space,13.725918299999648,237.57716429999982,None,,,,,,,,,,,,,,,,,,,,,,,,,,,,,,,,,,,,,,,,,,,,,,,,,,,,,P040,FENCOG,1,Pre,2022_Apr_28_1113,N-Back (New Version 2021),2021.1.4,120.0347620667229,
Conditions/Version_1Pr/zeroback(1)_v1.xlsx,Rule: Press 'space' when you see the letter 'x' or 'X'.,Z,None,,,,,0,0,0,0,0,0,0,0,,,,,,,,,,,,,,,,,,,,,,,,,,,,,,,,,252.69790319999993,None,255.6810644999996,None,space,1.9579493999999613,255.6810644999996,None,252.69790319999993,None,1.865,257.67180499999995,None,259.5410759999995,None,None,1,259.5410759999995,None,261.54593849999947,None,,,,,,,,,,,,,,,,,,,,,,,,,,,,,,,,P040,FENCOG,1,Pre,2022_Apr_28_1113,N-Back (New Version 2021),2021.1.4,120.0347620667229,
Conditions/Version_1Pr/zeroback(1)_v1.xlsx,Rule: Press 'space' when you see the letter 'x' or 'X'.,r,None,,,,,0,0,0,0,0,1,1,1,,,,,,,,,,,,,,,,,,,,,,,,,,,,,,,,,,,,,,,,,,,1.94,263.04403249999996,None,264.98582540000007,None,None,1,264.98582540000007,None,266.99284519999946,None,,,,,,,,,,,,,,,,,,,,,,,,,,,,,,,,P040,FENCOG,1,Pre,2022_Apr_28_1113,N-Back (New Version 2021),2021.1.4,120.0347620667229,
Conditions/Version_1Pr/zeroback(1)_v1.xlsx,Rule: Press 'space' when you see the letter 'x' or 'X'.,X,space,,,,,0,0,0,0,0,2,2,2,,,,,,,,,,,,,,,,,,,,,,,,,,,,,,,,,,,,,,,,,,,1.59,268.49195469999995,None,270.0879355999996,None,space,1,270.0879355999996,None,270.4267149999996,None,0.32692239999960293,,,,,,,,,,,,,,,,,,,,,,,,,,,,,,,P040,FENCOG,1,Pre,2022_Apr_28_1113,N-Back (New Version 2021),2021.1.4,120.0347620667229,
Conditions/Version_1Pr/zeroback(1)_v1.xlsx,Rule: Press 'space' when you see the letter 'x' or 'X'.,p,None,,,,,0,0,0,0,0,3,3,3,,,,,,,,,,,,,,,,,,,,,,,,,,,,,,,,,,,,,,,,,,,1.915,271.93277169999965,None,273.8506626999997,None,None,1,273.8506626999997,None,275.8569441999998,None,,,,,,,,,,,,,,,,,,,,,,,,,,,,,,,,P040,FENCOG,1,Pre,2022_Apr_28_1113,N-Back (New Version 2021),2021.1.4,120.0347620667229,
Conditions/Version_1Pr/zeroback(1)_v1.xlsx,Rule: Press 'space' when you see the letter 'x' or 'X'.,w,None,,,,,0,0,0,0,0,4,4,4,,,,,,,,,,,,,,,,,,,,,,,,,,,,,,,,,,,,,,,,,,,1.415,277.35638370000015,None,278.7743695999998,None,None,1,278.7743695999998,None,280.78045889999976,None,,,,,,,,,,,,,,,,,,,,,,,,,,,,,,,,P040,FENCOG,1,Pre,2022_Apr_28_1113,N-Back (New Version 2021),2021.1.4,120.0347620667229,
Conditions/Version_1Pr/zeroback(1)_v1.xlsx,Rule: Press 'space' when you see the letter 'x' or 'X'.,e,None,,,,,0,0,0,0,0,5,5,5,,,,,,,,,,,,,,,,,,,,,,,,,,,,,,,,,,,,,,,,,,,1.39,282.2806491000001,None,283.67161620000024,None,None,1,283.67161620000024,None,285.67904329999965,None,,,,,,,,,,,,,,,,,,,,,,,,,,,,,,,,P040,FENCOG,1,Pre,2022_Apr_28_1113,N-Back (New Version 2021),2021.1.4,120.0347620667229,
Conditions/Version_1Pr/zeroback(1)_v1.xlsx,Rule: Press 'space' when you see the letter 'x' or 'X'.,X,space,,,,,0,0,0,0,0,6,6,6,,,,,,,,,,,,,,,,,,,,,,,,,,,,,,,,,,,,,,,,,,,1.665,287.1785496000002,None,288.8488152,None,space,1,288.8488152,None,289.1942933999999,None,0.32638980000047013,,,,,,,,,,,,,,,,,,,,,,,,,,,,,,,P040,FENCOG,1,Pre,2022_Apr_28_1113,N-Back (New Version 2021),2021.1.4,120.0347620667229,
Conditions/Version_1Pr/zeroback(1)_v1.xlsx,Rule: Press 'space' when you see the letter 'x' or 'X'.,x,space,,,,,0,0,0,0,0,7,7,7,,,,,,,,,,,,,,,,,,,,,,,,,,,,,,,,,,,,,,,,,,,1.565,290.6956679999994,None,292.2622689,None,space,1,292.2622689,None,292.70322769999984,None,0.4246610000000146,,,,,,,,,,,,,,,,,,,,,,,,,,,,,,,P040,FENCOG,1,Pre,2022_Apr_28_1113,N-Back (New Version 2021),2021.1.4,120.0347620667229,
Conditions/Version_1Pr/zeroback(1)_v1.xlsx,Rule: Press 'space' when you see the letter 'x' or 'X'.,p,None,,,,,0,0,0,0,0,8,8,8,,,,,,,,,,,,,,,,,,,,,,,,,,,,,,,,,,,,,,,,,,,1.89,294.20974130000013,None,296.10084039999947,None,None,1,296.10084039999947,None,298.1040917,None,,,,,,,,,,,,,,,,,,,,,,,,,,,,,,,,P040,FENCOG,1,Pre,2022_Apr_28_1113,N-Back (New Version 2021),2021.1.4,120.0347620667229,
Conditions/Version_1Pr/zeroback(1)_v1.xlsx,Rule: Press 'space' when you see the letter 'x' or 'X'.,r,None,,,,,0,0,0,0,0,9,9,9,,,,,,,,,,,,,,,,,,,,,,,,,,,,,,,,,,,,,,,,,,,1.165,299.6081690000001,None,300.7751066999999,None,None,1,300.7751066999999,None,302.7821973,None,,,,,,,,,,,,,,,,,,,,,,,,,,,,,,,,P040,FENCOG,1,Pre,2022_Apr_28_1113,N-Back (New Version 2021),2021.1.4,120.0347620667229,
Conditions/Version_1Pr/zeroback(1)_v1.xlsx,Rule: Press 'space' when you see the letter 'x' or 'X'.,,,,,,,0,0,0,0,,,,,,,,,,,,,,,,,,,,,,,,,,,,,,,,,,,,,,,,,,,,,,,,,,,,,,,,,,,,,,,,,,,,,,,,,,,,,,,,,,,,,,,,,P040,FENCOG,1,Pre,2022_Apr_28_1113,N-Back (New Version 2021),2021.1.4,120.0347620667229,
Conditions/Version_1Pr/oneback(1)_v1.xlsx,New rule: Press 'space' when you see 1-back (i.e. the same letter as the one that appeared 1 letter ago.),a,None,,,,,0,1,1,1,0,0,0,0,,,,,,,,,,,,,,,,,,,,,,,,,,,,,,,,,304.30277490000026,None,307.29364629999964,None,space,5.385212799999863,307.29364629999964,None,304.30277490000026,None,1.54,312.70278959999996,None,314.2476458000001,None,None,1,314.2476458000001,None,316.2477534999998,None,,,,,,,,,,,,,,,,,,,,,,,,,,,,,,,,P040,FENCOG,1,Pre,2022_Apr_28_1113,N-Back (New Version 2021),2021.1.4,120.0347620667229,
Conditions/Version_1Pr/oneback(1)_v1.xlsx,New rule: Press 'space' when you see 1-back (i.e. the same letter as the one that appeared 1 letter ago.),x,None,,,,,0,1,1,1,0,1,1,1,,,,,,,,,,,,,,,,,,,,,,,,,,,,,,,,,,,,,,,,,,,1.915,317.7527693000002,None,319.67140689999997,None,None,1,319.67140689999997,None,321.67119980000007,None,,,,,,,,,,,,,,,,,,,,,,,,,,,,,,,,P040,FENCOG,1,Pre,2022_Apr_28_1113,N-Back (New Version 2021),2021.1.4,120.0347620667229,
Conditions/Version_1Pr/oneback(1)_v1.xlsx,New rule: Press 'space' when you see 1-back (i.e. the same letter as the one that appeared 1 letter ago.),g,None,,,,,0,1,1,1,0,2,2,2,,,,,,,,,,,,,,,,,,,,,,,,,,,,,,,,,,,,,,,,,,,1.265,323.1761246999995,None,324.44580210000004,None,None,1,324.44580210000004,None,326.45011759999943,None,,,,,,,,,,,,,,,,,,,,,,,,,,,,,,,,P040,FENCOG,1,Pre,2022_Apr_28_1113,N-Back (New Version 2021),2021.1.4,120.0347620667229,
Conditions/Version_1Pr/oneback(1)_v1.xlsx,New rule: Press 'space' when you see 1-back (i.e. the same letter as the one that appeared 1 letter ago.),G,space,,,,,0,1,1,1,0,3,3,3,,,,,,,,,,,,,,,,,,,,,,,,,,,,,,,,,,,,,,,,,,,1.14,327.9498503999994,None,329.0925404999998,None,space,1,329.0925404999998,None,329.70880620000025,None,0.6020646000006309,,,,,,,,,,,,,,,,,,,,,,,,,,,,,,,P040,FENCOG,1,Pre,2022_Apr_28_1113,N-Back (New Version 2021),2021.1.4,120.0347620667229,
Conditions/Version_1Pr/oneback(1)_v1.xlsx,New rule: Press 'space' when you see 1-back (i.e. the same letter as the one that appeared 1 letter ago.),u,None,,,,,0,1,1,1,0,4,4,4,,,,,,,,,,,,,,,,,,,,,,,,,,,,,,,,,,,,,,,,,,,1.04,331.21540149999964,None,332.25835800000004,None,None,1,332.25835800000004,None,334.26460940000015,None,,,,,,,,,,,,,,,,,,,,,,,,,,,,,,,,P040,FENCOG,1,Pre,2022_Apr_28_1113,N-Back (New Version 2021),2021.1.4,120.0347620667229,
Conditions/Version_1Pr/oneback(1)_v1.xlsx,New rule: Press 'space' when you see 1-back (i.e. the same letter as the one that appeared 1 letter ago.),y,None,,,,,0,1,1,1,0,5,5,5,,,,,,,,,,,,,,,,,,,,,,,,,,,,,,,,,,,,,,,,,,,1.44,335.76408420000007,None,337.20611480000025,None,None,1,337.20611480000025,None,339.2097579000001,None,,,,,,,,,,,,,,,,,,,,,,,,,,,,,,,,P040,FENCOG,1,Pre,2022_Apr_28_1113,N-Back (New Version 2021),2021.1.4,120.0347620667229,
Conditions/Version_1Pr/oneback(1)_v1.xlsx,New rule: Press 'space' when you see 1-back (i.e. the same letter as the one that appeared 1 letter ago.),y,space,,,,,0,1,1,1,0,6,6,6,,,,,,,,,,,,,,,,,,,,,,,,,,,,,,,,,,,,,,,,,,,1.165,340.71268640000017,None,341.8789578999995,None,space,1,341.8789578999995,None,342.9220478999996,None,1.0319226999999955,,,,,,,,,,,,,,,,,,,,,,,,,,,,,,,P040,FENCOG,1,Pre,2022_Apr_28_1113,N-Back (New Version 2021),2021.1.4,120.0347620667229,
Conditions/Version_1Pr/oneback(1)_v1.xlsx,New rule: Press 'space' when you see 1-back (i.e. the same letter as the one that appeared 1 letter ago.),k,None,,,,,0,1,1,1,0,7,7,7,,,,,,,,,,,,,,,,,,,,,,,,,,,,,,,,,,,,,,,,,,,1.515,344.4281086000001,None,345.9454655999998,None,None,1,345.9454655999998,None,347.9522339999994,None,,,,,,,,,,,,,,,,,,,,,,,,,,,,,,,,P040,FENCOG,1,Pre,2022_Apr_28_1113,N-Back (New Version 2021),2021.1.4,120.0347620667229,
Conditions/Version_1Pr/oneback(1)_v1.xlsx,New rule: Press 'space' when you see 1-back (i.e. the same letter as the one that appeared 1 letter ago.),c,None,,,,,0,1,1,1,0,8,8,8,,,,,,,,,,,,,,,,,,,,,,,,,,,,,,,,,,,,,,,,,,,1.215,349.45167909999964,None,350.6697691999998,None,None,1,350.6697691999998,None,352.67575099999976,None,,,,,,,,,,,,,,,,,,,,,,,,,,,,,,,,P040,FENCOG,1,Pre,2022_Apr_28_1113,N-Back (New Version 2021),2021.1.4,120.0347620667229,
Conditions/Version_1Pr/oneback(1)_v1.xlsx,New rule: Press 'space' when you see 1-back (i.e. the same letter as the one that appeared 1 letter ago.),r,None,,,,,0,1,1,1,0,9,9,9,,,,,,,,,,,,,,,,,,,,,,,,,,,,,,,,,,,,,,,,,,,1.09,354.17540199999985,None,355.26809669999966,None,None,1,355.26809669999966,None,357.27445459999944,None,,,,,,,,,,,,,,,,,,,,,,,,,,,,,,,,P040,FENCOG,1,Pre,2022_Apr_28_1113,N-Back (New Version 2021),2021.1.4,120.0347620667229,
Conditions/Version_1Pr/oneback(1)_v1.xlsx,New rule: Press 'space' when you see 1-back (i.e. the same letter as the one that appeared 1 letter ago.),,,,,,,0,1,1,1,,,,,,,,,,,,,,,,,,,,,,,,,,,,,,,,,,,,,,,,,,,,,,,,,,,,,,,,,,,,,,,,,,,,,,,,,,,,,,,,,,,,,,,,,P040,FENCOG,1,Pre,2022_Apr_28_1113,N-Back (New Version 2021),2021.1.4,120.0347620667229,
Conditions/Version_1Pr/twoback(1)_v1.xlsx,New rule: Press 'space' when you see 2-back (i.e. the same letter as the one that appeared 2 letters ago.),E,None,,,,,0,2,2,2,0,0,0,0,,,,,,,,,,,,,,,,,,,,,,,,,,,,,,,,,358.8203431000002,None,361.80056779999995,None,space,0.5501645999993343,361.80056779999995,None,358.8203431000002,None,1.415,362.37791990000005,None,363.79960010000013,None,None,1,363.79960010000013,None,365.8051395000002,None,,,,,,,,,,,,,,,,,,,,,,,,,,,,,,,,P040,FENCOG,1,Pre,2022_Apr_28_1113,N-Back (New Version 2021),2021.1.4,120.0347620667229,
Conditions/Version_1Pr/twoback(1)_v1.xlsx,New rule: Press 'space' when you see 2-back (i.e. the same letter as the one that appeared 2 letters ago.),p,None,,,,,0,2,2,2,0,1,1,1,,,,,,,,,,,,,,,,,,,,,,,,,,,,,,,,,,,,,,,,,,,1.69,367.3047926999998,None,368.99670909999986,None,None,1,368.99670909999986,None,371.00073449999945,None,,,,,,,,,,,,,,,,,,,,,,,,,,,,,,,,P040,FENCOG,1,Pre,2022_Apr_28_1113,N-Back (New Version 2021),2021.1.4,120.0347620667229,
Conditions/Version_1Pr/twoback(1)_v1.xlsx,New rule: Press 'space' when you see 2-back (i.e. the same letter as the one that appeared 2 letters ago.),e,space,,,,,0,2,2,2,0,2,2,2,,,,,,,,,,,,,,,,,,,,,,,,,,,,,,,,,,,,,,,,,,,1.34,372.50319409999975,None,373.84545179999986,None,space,1,373.84545179999986,None,374.65389460000006,None,0.7932058000005782,,,,,,,,,,,,,,,,,,,,,,,,,,,,,,,P040,FENCOG,1,Pre,2022_Apr_28_1113,N-Back (New Version 2021),2021.1.4,120.0347620667229,
Conditions/Version_1Pr/twoback(1)_v1.xlsx,New rule: Press 'space' when you see 2-back (i.e. the same letter as the one that appeared 2 letters ago.),s,None,,,,,0,2,2,2,0,3,3,3,,,,,,,,,,,,,,,,,,,,,,,,,,,,,,,,,,,,,,,,,,,1.99,376.1603172999994,None,378.1530918999997,None,None,1,378.1530918999997,None,380.15923999999995,None,,,,,,,,,,,,,,,,,,,,,,,,,,,,,,,,P040,FENCOG,1,Pre,2022_Apr_28_1113,N-Back (New Version 2021),2021.1.4,120.0347620667229,
Conditions/Version_1Pr/twoback(1)_v1.xlsx,New rule: Press 'space' when you see 2-back (i.e. the same letter as the one that appeared 2 letters ago.),S,None,,,,,0,2,2,2,0,4,4,4,,,,,,,,,,,,,,,,,,,,,,,,,,,,,,,,,,,,,,,,,,,1.94,381.6589396999998,None,383.6044296,None,None,1,383.6044296,None,385.60774279999987,None,,,,,,,,,,,,,,,,,,,,,,,,,,,,,,,,P040,FENCOG,1,Pre,2022_Apr_28_1113,N-Back (New Version 2021),2021.1.4,120.0347620667229,
Conditions/Version_1Pr/twoback(1)_v1.xlsx,New rule: Press 'space' when you see 2-back (i.e. the same letter as the one that appeared 2 letters ago.),s,space,,,,,0,2,2,2,0,5,5,5,,,,,,,,,,,,,,,,,,,,,,,,,,,,,,,,,,,,,,,,,,,1.315,387.10726579999937,None,388.42716139999993,None,space,1,388.42716139999993,None,388.84918599999946,None,0.4115220000003319,,,,,,,,,,,,,,,,,,,,,,,,,,,,,,,P040,FENCOG,1,Pre,2022_Apr_28_1113,N-Back (New Version 2021),2021.1.4,120.0347620667229,
Conditions/Version_1Pr/twoback(1)_v1.xlsx,New rule: Press 'space' when you see 2-back (i.e. the same letter as the one that appeared 2 letters ago.),P,None,,,,,0,2,2,2,0,6,6,6,,,,,,,,,,,,,,,,,,,,,,,,,,,,,,,,,,,,,,,,,,,1.74,390.3561572999997,None,392.1013051,None,None,1,392.1013051,None,394.10167360000014,None,,,,,,,,,,,,,,,,,,,,,,,,,,,,,,,,P040,FENCOG,1,Pre,2022_Apr_28_1113,N-Back (New Version 2021),2021.1.4,120.0347620667229,
Conditions/Version_1Pr/twoback(1)_v1.xlsx,New rule: Press 'space' when you see 2-back (i.e. the same letter as the one that appeared 2 letters ago.),C,None,,,,,0,2,2,2,0,7,7,7,,,,,,,,,,,,,,,,,,,,,,,,,,,,,,,,,,,,,,,,,,,1.765,395.60531159999937,None,397.37235469999996,None,None,1,397.37235469999996,None,399.3703283999994,None,,,,,,,,,,,,,,,,,,,,,,,,,,,,,,,,P040,FENCOG,1,Pre,2022_Apr_28_1113,N-Back (New Version 2021),2021.1.4,120.0347620667229,
Conditions/Version_1Pr/twoback(1)_v1.xlsx,New rule: Press 'space' when you see 2-back (i.e. the same letter as the one that appeared 2 letters ago.),x,None,,,,,0,2,2,2,0,8,8,8,,,,,,,,,,,,,,,,,,,,,,,,,,,,,,,,,,,,,,,,,,,1.365,400.8698128999995,None,402.23672889999943,None,None,1,402.23672889999943,None,404.2438629999997,None,,,,,,,,,,,,,,,,,,,,,,,,,,,,,,,,P040,FENCOG,1,Pre,2022_Apr_28_1113,N-Back (New Version 2021),2021.1.4,120.0347620667229,
Conditions/Version_1Pr/twoback(1)_v1.xlsx,New rule: Press 'space' when you see 2-back (i.e. the same letter as the one that appeared 2 letters ago.),Z,None,,,,,0,2,2,2,0,9,9,9,,,,,,,,,,,,,,,,,,,,,,,,,,,,,,,,,,,,,,,,,,,1.715,405.74326800000017,None,407.45942730000024,None,None,1,407.45942730000024,None,409.4589694999995,None,,,,,,,,,,,,,,,,,,,,,,,,,,,,,,,,P040,FENCOG,1,Pre,2022_Apr_28_1113,N-Back (New Version 2021),2021.1.4,120.0347620667229,
Conditions/Version_1Pr/twoback(1)_v1.xlsx,New rule: Press 'space' when you see 2-back (i.e. the same letter as the one that appeared 2 letters ago.),,,,,,,0,2,2,2,,,,,,,,,,,,,,,,,,,,,,,,,,,,,,,,,,,,,,,,,,,,,,,,,,,,,,,,,,,,,,,,,,,,,,,,,,,,,,,,,,,,,,,,,P040,FENCOG,1,Pre,2022_Apr_28_1113,N-Back (New Version 2021),2021.1.4,120.0347620667229,
Conditions/Version_1Pr/threeback(1)_v1.xlsx,New rule: Press 'space' when you see 3-back (i.e. the same letter as the one that appeared 3 letters ago.),r,None,,,,,0,3,3,3,0,0,0,0,,,,,,,,,,,,,,,,,,,,,,,,,,,,,,,,,410.9822084999996,None,413.9720778000001,None,space,0.7305673999999271,413.9720778000001,None,410.9822084999996,None,1.19,414.72812449999947,None,415.92532909999954,None,None,1,415.92532909999954,None,417.93129989999943,None,,,,,,,,,,,,,,,,,,,,,,,,,,,,,,,,P040,FENCOG,1,Pre,2022_Apr_28_1113,N-Back (New Version 2021),2021.1.4,120.0347620667229,
Conditions/Version_1Pr/threeback(1)_v1.xlsx,New rule: Press 'space' when you see 3-back (i.e. the same letter as the one that appeared 3 letters ago.),a,None,,,,,0,3,3,3,0,1,1,1,,,,,,,,,,,,,,,,,,,,,,,,,,,,,,,,,,,,,,,,,,,1.74,419.4308966999997,None,421.1728807999998,None,None,1,421.1728807999998,None,423.1776549999995,None,,,,,,,,,,,,,,,,,,,,,,,,,,,,,,,,P040,FENCOG,1,Pre,2022_Apr_28_1113,N-Back (New Version 2021),2021.1.4,120.0347620667229,
Conditions/Version_1Pr/threeback(1)_v1.xlsx,New rule: Press 'space' when you see 3-back (i.e. the same letter as the one that appeared 3 letters ago.),t,None,,,,,0,3,3,3,0,2,2,2,,,,,,,,,,,,,,,,,,,,,,,,,,,,,,,,,,,,,,,,,,,1.29,424.6794553999998,None,425.9738878999997,None,None,1,425.9738878999997,None,427.9784560999997,None,,,,,,,,,,,,,,,,,,,,,,,,,,,,,,,,P040,FENCOG,1,Pre,2022_Apr_28_1113,N-Back (New Version 2021),2021.1.4,120.0347620667229,
Conditions/Version_1Pr/threeback(1)_v1.xlsx,New rule: Press 'space' when you see 3-back (i.e. the same letter as the one that appeared 3 letters ago.),r,space,,,,,0,3,3,3,0,3,3,3,,,,,,,,,,,,,,,,,,,,,,,,,,,,,,,,,,,,,,,,,,,1.64,429.4780138999995,None,431.12025470000026,None,space,1,431.12025470000026,None,432.18560199999956,None,1.0546976999994513,,,,,,,,,,,,,,,,,,,,,,,,,,,,,,,P040,FENCOG,1,Pre,2022_Apr_28_1113,N-Back (New Version 2021),2021.1.4,120.0347620667229,
Conditions/Version_1Pr/threeback(1)_v1.xlsx,New rule: Press 'space' when you see 3-back (i.e. the same letter as the one that appeared 3 letters ago.),a,None,,,,,0,3,3,3,0,4,4,4,,,,,,,,,,,,,,,,,,,,,,,,,,,,,,,,,,,,,,,,,,,1.165,433.6846807000002,None,434.8512931999994,None,space,0,434.8512931999994,None,435.4218831999997,None,0.5553937000004225,,,,,,,,,,,,,,,,,,,,,,,,,,,,,,,P040,FENCOG,1,Pre,2022_Apr_28_1113,N-Back (New Version 2021),2021.1.4,120.0347620667229,
Conditions/Version_1Pr/threeback(1)_v1.xlsx,New rule: Press 'space' when you see 3-back (i.e. the same letter as the one that appeared 3 letters ago.),Y,None,,,,,0,3,3,3,0,5,5,5,,,,,,,,,,,,,,,,,,,,,,,,,,,,,,,,,,,,,,,,,,,1.715,436.9257708999994,None,438.6445770999999,None,None,1,438.6445770999999,None,440.65371049999976,None,,,,,,,,,,,,,,,,,,,,,,,,,,,,,,,,P040,FENCOG,1,Pre,2022_Apr_28_1113,N-Back (New Version 2021),2021.1.4,120.0347620667229,
Conditions/Version_1Pr/threeback(1)_v1.xlsx,New rule: Press 'space' when you see 3-back (i.e. the same letter as the one that appeared 3 letters ago.),q,None,,,,,0,3,3,3,0,6,6,6,,,,,,,,,,,,,,,,,,,,,,,,,,,,,,,,,,,,,,,,,,,1.115,442.1498039999997,None,443.27065330000005,None,None,1,443.27065330000005,None,445.2731985999999,None,,,,,,,,,,,,,,,,,,,,,,,,,,,,,,,,P040,FENCOG,1,Pre,2022_Apr_28_1113,N-Back (New Version 2021),2021.1.4,120.0347620667229,
Conditions/Version_1Pr/threeback(1)_v1.xlsx,New rule: Press 'space' when you see 3-back (i.e. the same letter as the one that appeared 3 letters ago.),A,space,,,,,0,3,3,3,0,7,7,7,,,,,,,,,,,,,,,,,,,,,,,,,,,,,,,,,,,,,,,,,,,1.365,446.77290209999956,None,448.1511026999997,None,None,0,448.1511026999997,None,450.1527556000001,None,,,,,,,,,,,,,,,,,,,,,,,,,,,,,,,,P040,FENCOG,1,Pre,2022_Apr_28_1113,N-Back (New Version 2021),2021.1.4,120.0347620667229,
Conditions/Version_1Pr/threeback(1)_v1.xlsx,New rule: Press 'space' when you see 3-back (i.e. the same letter as the one that appeared 3 letters ago.),y,None,,,,,0,3,3,3,0,8,8,8,,,,,,,,,,,,,,,,,,,,,,,,,,,,,,,,,,,,,,,,,,,1.59,451.6465099999996,None,453.23929580000004,None,space,0,453.23929580000004,None,454.07150790000014,None,0.8078144000000975,,,,,,,,,,,,,,,,,,,,,,,,,,,,,,,P040,FENCOG,1,Pre,2022_Apr_28_1113,N-Back (New Version 2021),2021.1.4,120.0347620667229,
Conditions/Version_1Pr/threeback(1)_v1.xlsx,New rule: Press 'space' when you see 3-back (i.e. the same letter as the one that appeared 3 letters ago.),r,None,,,,,0,3,3,3,0,9,9,9,,,,,,,,,,,,,,,,,,,,,,,,,,,,,,,,,,,,,,,,,,,2.015,455.57858399999986,None,457.5950321999999,None,None,1,457.5950321999999,None,459.6021933000002,None,,,,,,,,,,,,,,,,,,,,,,,,,,,,,,,,P040,FENCOG,1,Pre,2022_Apr_28_1113,N-Back (New Version 2021),2021.1.4,120.0347620667229,
Conditions/Version_1Pr/threeback(1)_v1.xlsx,New rule: Press 'space' when you see 3-back (i.e. the same letter as the one that appeared 3 letters ago.),,,,,,,0,3,3,3,,,,,,,,,,,,,,,,,,,,,,,,,,,,,,,,,,,,,,,,,,,,,,,,,,,,,,,,,,,,,,,,,,,,,,,,,,,,,,,,,,,,,,,,,P040,FENCOG,1,Pre,2022_Apr_28_1113,N-Back (New Version 2021),2021.1.4,120.0347620667229,
,,,,,,,,,,,,,,,,,,,,,,,,,,,,,,,,,,,,,,,,,,,,,,,,,,,,,,,,,,,,,,,,,,,,,,461.10871810000026,None,space,8.724532300000647,461.60212669999964,None,,,,,,,,,,,,,,,,,,,,,,,,,P040,FENCOG,1,Pre,2022_Apr_28_1113,N-Back (New Version 2021),2021.1.4,120.0347620667229,
,,,,,,,,,,,,,,,,,,,,,,,,,,,,,,,,,,,,,,,,,,,,,,,,,,,,,,,,,,,,,,,,,,,,,,,,,,,,470.35456460000023,None,space,4.084020799999962,470.8505642,None,,,,,,,,,,,,,,,,,,,P040,FENCOG,1,Pre,2022_Apr_28_1113,N-Back (New Version 2021),2021.1.4,120.0347620667229,
,,,,Conditions/Version_1/zeroback(1)_v1.xlsx,Rule: Press 'space' when you see the letter 'x' or 'X'.,b,None,,,,,,,,,0,0,0,0,0,0,0,0,,,,,,,,,,,,,,,,,,,,,,,,,,,,,,,,,,,,,,,,,,,,,,,,,,,,,,,,,,,475.05554589999974,None,478.04167940000025,None,space,2.164856200000031,478.04167940000025,None,475.05554589999974,None,1.4316,481.67356329999984,None,None,1,481.67356329999984,None,,P040,FENCOG,1,Pre,2022_Apr_28_1113,N-Back (New Version 2021),2021.1.4,120.0347620667229,
,,,,Conditions/Version_1/zeroback(1)_v1.xlsx,Rule: Press 'space' when you see the letter 'x' or 'X'.,T,None,,,,,,,,,0,0,0,0,0,1,1,1,,,,,,,,,,,,,,,,,,,,,,,,,,,,,,,,,,,,,,,,,,,,,,,,,,,,,,,,,,,,,,,,,,,,,1.3262,485.0119090999997,None,None,1,485.0119090999997,None,,P040,FENCOG,1,Pre,2022_Apr_28_1113,N-Back (New Version 2021),2021.1.4,120.0347620667229,
,,,,Conditions/Version_1/zeroback(1)_v1.xlsx,Rule: Press 'space' when you see the letter 'x' or 'X'.,L,None,,,,,,,,,0,0,0,0,0,2,2,2,,,,,,,,,,,,,,,,,,,,,,,,,,,,,,,,,,,,,,,,,,,,,,,,,,,,,,,,,,,,,,,,,,,,,1.7602,488.79267789999994,None,None,1,488.79267789999994,None,,P040,FENCOG,1,Pre,2022_Apr_28_1113,N-Back (New Version 2021),2021.1.4,120.0347620667229,
,,,,Conditions/Version_1/zeroback(1)_v1.xlsx,Rule: Press 'space' when you see the letter 'x' or 'X'.,x,space,,,,,,,,,0,0,0,0,0,3,3,3,,,,,,,,,,,,,,,,,,,,,,,,,,,,,,,,,,,,,,,,,,,,,,,,,,,,,,,,,,,,,,,,,,,,,1.878,492.6766249000002,None,space,1,492.6766249000002,None,1.7141889000004085,P040,FENCOG,1,Pre,2022_Apr_28_1113,N-Back (New Version 2021),2021.1.4,120.0347620667229,
,,,,Conditions/Version_1/zeroback(1)_v1.xlsx,Rule: Press 'space' when you see the letter 'x' or 'X'.,o,None,,,,,,,,,0,0,0,0,0,4,4,4,,,,,,,,,,,,,,,,,,,,,,,,,,,,,,,,,,,,,,,,,,,,,,,,,,,,,,,,,,,,,,,,,,,,,1.2828,495.96663850000004,None,None,1,495.96663850000004,None,,P040,FENCOG,1,Pre,2022_Apr_28_1113,N-Back (New Version 2021),2021.1.4,120.0347620667229,
,,,,Conditions/Version_1/zeroback(1)_v1.xlsx,Rule: Press 'space' when you see the letter 'x' or 'X'.,P,None,,,,,,,,,0,0,0,0,0,5,5,5,,,,,,,,,,,,,,,,,,,,,,,,,,,,,,,,,,,,,,,,,,,,,,,,,,,,,,,,,,,,,,,,,,,,,1.2766,499.2499447,None,None,1,499.2499447,None,,P040,FENCOG,1,Pre,2022_Apr_28_1113,N-Back (New Version 2021),2021.1.4,120.0347620667229,
,,,,Conditions/Version_1/zeroback(1)_v1.xlsx,Rule: Press 'space' when you see the letter 'x' or 'X'.,X,space,,,,,,,,,0,0,0,0,0,6,6,6,,,,,,,,,,,,,,,,,,,,,,,,,,,,,,,,,,,,,,,,,,,,,,,,,,,,,,,,,,,,,,,,,,,,,1.3324,502.5894570999999,None,space,1,502.5894570999999,None,0.36102459999983694,P040,FENCOG,1,Pre,2022_Apr_28_1113,N-Back (New Version 2021),2021.1.4,120.0347620667229,
,,,,Conditions/Version_1/zeroback(1)_v1.xlsx,Rule: Press 'space' when you see the letter 'x' or 'X'.,n,None,,,,,,,,,0,0,0,0,0,7,7,7,,,,,,,,,,,,,,,,,,,,,,,,,,,,,,,,,,,,,,,,,,,,,,,,,,,,,,,,,,,,,,,,,,,,,1.5246,506.11561789999996,None,None,1,506.11561789999996,None,,P040,FENCOG,1,Pre,2022_Apr_28_1113,N-Back (New Version 2021),2021.1.4,120.0347620667229,
,,,,Conditions/Version_1/zeroback(1)_v1.xlsx,Rule: Press 'space' when you see the letter 'x' or 'X'.,M,None,,,,,,,,,0,0,0,0,0,8,8,8,,,,,,,,,,,,,,,,,,,,,,,,,,,,,,,,,,,,,,,,,,,,,,,,,,,,,,,,,,,,,,,,,,,,,1.7726,509.8976520999995,None,None,1,509.8976520999995,None,,P040,FENCOG,1,Pre,2022_Apr_28_1113,N-Back (New Version 2021),2021.1.4,120.0347620667229,
,,,,Conditions/Version_1/zeroback(1)_v1.xlsx,Rule: Press 'space' when you see the letter 'x' or 'X'.,a,None,,,,,,,,,0,0,0,0,0,9,9,9,,,,,,,,,,,,,,,,,,,,,,,,,,,,,,,,,,,,,,,,,,,,,,,,,,,,,,,,,,,,,,,,,,,,,1.444,513.3540416999995,None,None,1,513.3540416999995,None,,P040,FENCOG,1,Pre,2022_Apr_28_1113,N-Back (New Version 2021),2021.1.4,120.0347620667229,
,,,,Conditions/Version_1/zeroback(1)_v1.xlsx,Rule: Press 'space' when you see the letter 'x' or 'X'.,,,,,,,,,,,0,0,0,0,,,,,,,,,,,,,,,,,,,,,,,,,,,,,,,,,,,,,,,,,,,,,,,,,,,,,,,,,,,,,,,,,,,,,,,,,,,,,,,,,P040,FENCOG,1,Pre,2022_Apr_28_1113,N-Back (New Version 2021),2021.1.4,120.0347620667229,
,,,,Conditions/Version_1/oneback(1)_v1.xlsx,New rule: Press 'space' when you see 1-back (i.e. the same letter as the one that appeared 1 letter ago.),b,None,,,,,,,,,0,1,1,1,0,0,0,0,,,,,,,,,,,,,,,,,,,,,,,,,,,,,,,,,,,,,,,,,,,,,,,,,,,,,,,,,,,515.3808018,None,518.3614189999998,None,space,0.5171577999999499,518.3614189999998,None,515.3808018,None,1.754,520.6758217999995,None,None,1,520.6758217999995,None,,P040,FENCOG,1,Pre,2022_Apr_28_1113,N-Back (New Version 2021),2021.1.4,120.0347620667229,
,,,,Conditions/Version_1/oneback(1)_v1.xlsx,New rule: Press 'space' when you see 1-back (i.e. the same letter as the one that appeared 1 letter ago.),p,None,,,,,,,,,0,1,1,1,0,1,1,1,,,,,,,,,,,,,,,,,,,,,,,,,,,,,,,,,,,,,,,,,,,,,,,,,,,,,,,,,,,,,,,,,,,,,1.847,524.5246994999998,None,None,1,524.5246994999998,None,,P040,FENCOG,1,Pre,2022_Apr_28_1113,N-Back (New Version 2021),2021.1.4,120.0347620667229,
,,,,Conditions/Version_1/oneback(1)_v1.xlsx,New rule: Press 'space' when you see 1-back (i.e. the same letter as the one that appeared 1 letter ago.),M,None,,,,,,,,,0,1,1,1,0,2,2,2,,,,,,,,,,,,,,,,,,,,,,,,,,,,,,,,,,,,,,,,,,,,,,,,,,,,,,,,,,,,,,,,,,,,,1.6548,528.1819869999999,None,None,1,528.1819869999999,None,,P040,FENCOG,1,Pre,2022_Apr_28_1113,N-Back (New Version 2021),2021.1.4,120.0347620667229,
,,,,Conditions/Version_1/oneback(1)_v1.xlsx,New rule: Press 'space' when you see 1-back (i.e. the same letter as the one that appeared 1 letter ago.),M,space,,,,,,,,,0,1,1,1,0,3,3,3,,,,,,,,,,,,,,,,,,,,,,,,,,,,,,,,,,,,,,,,,,,,,,,,,,,,,,,,,,,,,,,,,,,,,1.3324,531.5140838999996,None,space,1,531.5140838999996,None,0.39640809999946214,P040,FENCOG,1,Pre,2022_Apr_28_1113,N-Back (New Version 2021),2021.1.4,120.0347620667229,
,,,,Conditions/Version_1/oneback(1)_v1.xlsx,New rule: Press 'space' when you see 1-back (i.e. the same letter as the one that appeared 1 letter ago.),n,None,,,,,,,,,0,1,1,1,0,4,4,4,,,,,,,,,,,,,,,,,,,,,,,,,,,,,,,,,,,,,,,,,,,,,,,,,,,,,,,,,,,,,,,,,,,,,1.4812,534.9964837999996,None,None,1,534.9964837999996,None,,P040,FENCOG,1,Pre,2022_Apr_28_1113,N-Back (New Version 2021),2021.1.4,120.0347620667229,
,,,,Conditions/Version_1/oneback(1)_v1.xlsx,New rule: Press 'space' when you see 1-back (i.e. the same letter as the one that appeared 1 letter ago.),g,None,,,,,,,,,0,1,1,1,0,5,5,5,,,,,,,,,,,,,,,,,,,,,,,,,,,,,,,,,,,,,,,,,,,,,,,,,,,,,,,,,,,,,,,,,,,,,1.165,538.1705577000002,None,None,1,538.1705577000002,None,,P040,FENCOG,1,Pre,2022_Apr_28_1113,N-Back (New Version 2021),2021.1.4,120.0347620667229,
,,,,Conditions/Version_1/oneback(1)_v1.xlsx,New rule: Press 'space' when you see 1-back (i.e. the same letter as the one that appeared 1 letter ago.),P,None,,,,,,,,,0,1,1,1,0,6,6,6,,,,,,,,,,,,,,,,,,,,,,,,,,,,,,,,,,,,,,,,,,,,,,,,,,,,,,,,,,,,,,,,,,,,,1.7602,541.9398596000001,None,None,1,541.9398596000001,None,,P040,FENCOG,1,Pre,2022_Apr_28_1113,N-Back (New Version 2021),2021.1.4,120.0347620667229,
,,,,Conditions/Version_1/oneback(1)_v1.xlsx,New rule: Press 'space' when you see 1-back (i.e. the same letter as the one that appeared 1 letter ago.),o,None,,,,,,,,,0,1,1,1,0,7,7,7,,,,,,,,,,,,,,,,,,,,,,,,,,,,,,,,,,,,,,,,,,,,,,,,,,,,,,,,,,,,,,,,,,,,,1.9338,545.8850807999997,None,None,1,545.8850807999997,None,,P040,FENCOG,1,Pre,2022_Apr_28_1113,N-Back (New Version 2021),2021.1.4,120.0347620667229,
,,,,Conditions/Version_1/oneback(1)_v1.xlsx,New rule: Press 'space' when you see 1-back (i.e. the same letter as the one that appeared 1 letter ago.),f,None,,,,,,,,,0,1,1,1,0,8,8,8,,,,,,,,,,,,,,,,,,,,,,,,,,,,,,,,,,,,,,,,,,,,,,,,,,,,,,,,,,,,,,,,,,,,,1.0286,548.9236528000001,None,None,1,548.9236528000001,None,,P040,FENCOG,1,Pre,2022_Apr_28_1113,N-Back (New Version 2021),2021.1.4,120.0347620667229,
,,,,Conditions/Version_1/oneback(1)_v1.xlsx,New rule: Press 'space' when you see 1-back (i.e. the same letter as the one that appeared 1 letter ago.),F,space,,,,,,,,,0,1,1,1,0,9,9,9,,,,,,,,,,,,,,,,,,,,,,,,,,,,,,,,,,,,,,,,,,,,,,,,,,,,,,,,,,,,,,,,,,,,,1.4502,552.3774664000002,None,space,1,552.3774664000002,None,0.36489070000061474,P040,FENCOG,1,Pre,2022_Apr_28_1113,N-Back (New Version 2021),2021.1.4,120.0347620667229,
,,,,Conditions/Version_1/oneback(1)_v1.xlsx,New rule: Press 'space' when you see 1-back (i.e. the same letter as the one that appeared 1 letter ago.),,,,,,,,,,,0,1,1,1,,,,,,,,,,,,,,,,,,,,,,,,,,,,,,,,,,,,,,,,,,,,,,,,,,,,,,,,,,,,,,,,,,,,,,,,,,,,,,,,,P040,FENCOG,1,Pre,2022_Apr_28_1113,N-Back (New Version 2021),2021.1.4,120.0347620667229,
,,,,Conditions/Version_1/twoback(1)_v1.xlsx,New rule: Press 'space' when you see 2-back (i.e. the same letter as the one that appeared 2 letters ago.),b,None,,,,,,,,,0,2,2,2,0,0,0,0,,,,,,,,,,,,,,,,,,,,,,,,,,,,,,,,,,,,,,,,,,,,,,,,,,,,,,,,,,,554.4027857000001,None,557.3913732999999,None,space,0.5189568000005238,557.3913732999999,None,554.4027857000001,None,1.7354,559.6838954999994,None,None,1,559.6838954999994,None,,P040,FENCOG,1,Pre,2022_Apr_28_1113,N-Back (New Version 2021),2021.1.4,120.0347620667229,
,,,,Conditions/Version_1/twoback(1)_v1.xlsx,New rule: Press 'space' when you see 2-back (i.e. the same letter as the one that appeared 2 letters ago.),h,None,,,,,,,,,0,2,2,2,0,1,1,1,,,,,,,,,,,,,,,,,,,,,,,,,,,,,,,,,,,,,,,,,,,,,,,,,,,,,,,,,,,,,,,,,,,,,1.3696,563.0687000999997,None,None,1,563.0687000999997,None,,P040,FENCOG,1,Pre,2022_Apr_28_1113,N-Back (New Version 2021),2021.1.4,120.0347620667229,
,,,,Conditions/Version_1/twoback(1)_v1.xlsx,New rule: Press 'space' when you see 2-back (i.e. the same letter as the one that appeared 2 letters ago.),j,None,,,,,,,,,0,2,2,2,0,2,2,2,,,,,,,,,,,,,,,,,,,,,,,,,,,,,,,,,,,,,,,,,,,,,,,,,,,,,,,,,,,,,,,,,,,,,1.9958,567.0749357999994,None,None,1,567.0749357999994,None,,P040,FENCOG,1,Pre,2022_Apr_28_1113,N-Back (New Version 2021),2021.1.4,120.0347620667229,
,,,,Conditions/Version_1/twoback(1)_v1.xlsx,New rule: Press 'space' when you see 2-back (i.e. the same letter as the one that appeared 2 letters ago.),H,space,,,,,,,,,0,2,2,2,0,3,3,3,,,,,,,,,,,,,,,,,,,,,,,,,,,,,,,,,,,,,,,,,,,,,,,,,,,,,,,,,,,,,,,,,,,,,1.5804,570.6627207000001,None,space,1,570.6627207000001,None,0.40007820000028005,P040,FENCOG,1,Pre,2022_Apr_28_1113,N-Back (New Version 2021),2021.1.4,120.0347620667229,
,,,,Conditions/Version_1/twoback(1)_v1.xlsx,New rule: Press 'space' when you see 2-back (i.e. the same letter as the one that appeared 2 letters ago.),p,None,,,,,,,,,0,2,2,2,0,4,4,4,,,,,,,,,,,,,,,,,,,,,,,,,,,,,,,,,,,,,,,,,,,,,,,,,,,,,,,,,,,,,,,,,,,,,1.2766,573.9452893999996,None,None,1,573.9452893999996,None,,P040,FENCOG,1,Pre,2022_Apr_28_1113,N-Back (New Version 2021),2021.1.4,120.0347620667229,
,,,,Conditions/Version_1/twoback(1)_v1.xlsx,New rule: Press 'space' when you see 2-back (i.e. the same letter as the one that appeared 2 letters ago.),p,None,,,,,,,,,0,2,2,2,0,5,5,5,,,,,,,,,,,,,,,,,,,,,,,,,,,,,,,,,,,,,,,,,,,,,,,,,,,,,,,,,,,,,,,,,,,,,1.5122,577.4674974999998,None,None,1,577.4674974999998,None,,P040,FENCOG,1,Pre,2022_Apr_28_1113,N-Back (New Version 2021),2021.1.4,120.0347620667229,
,,,,Conditions/Version_1/twoback(1)_v1.xlsx,New rule: Press 'space' when you see 2-back (i.e. the same letter as the one that appeared 2 letters ago.),w,None,,,,,,,,,0,2,2,2,0,6,6,6,,,,,,,,,,,,,,,,,,,,,,,,,,,,,,,,,,,,,,,,,,,,,,,,,,,,,,,,,,,,,,,,,,,,,1.9834,581.4506922,None,None,1,581.4506922,None,,P040,FENCOG,1,Pre,2022_Apr_28_1113,N-Back (New Version 2021),2021.1.4,120.0347620667229,
,,,,Conditions/Version_1/twoback(1)_v1.xlsx,New rule: Press 'space' when you see 2-back (i.e. the same letter as the one that appeared 2 letters ago.),R,None,,,,,,,,,0,2,2,2,0,7,7,7,,,,,,,,,,,,,,,,,,,,,,,,,,,,,,,,,,,,,,,,,,,,,,,,,,,,,,,,,,,,,,,,,,,,,1.227,584.6821537999995,None,None,1,584.6821537999995,None,,P040,FENCOG,1,Pre,2022_Apr_28_1113,N-Back (New Version 2021),2021.1.4,120.0347620667229,
,,,,Conditions/Version_1/twoback(1)_v1.xlsx,New rule: Press 'space' when you see 2-back (i.e. the same letter as the one that appeared 2 letters ago.),a,None,,,,,,,,,0,2,2,2,0,8,8,8,,,,,,,,,,,,,,,,,,,,,,,,,,,,,,,,,,,,,,,,,,,,,,,,,,,,,,,,,,,,,,,,,,,,,1.2332,587.9179697999998,None,None,1,587.9179697999998,None,,P040,FENCOG,1,Pre,2022_Apr_28_1113,N-Back (New Version 2021),2021.1.4,120.0347620667229,
,,,,Conditions/Version_1/twoback(1)_v1.xlsx,New rule: Press 'space' when you see 2-back (i.e. the same letter as the one that appeared 2 letters ago.),r,space,,,,,,,,,0,2,2,2,0,9,9,9,,,,,,,,,,,,,,,,,,,,,,,,,,,,,,,,,,,,,,,,,,,,,,,,,,,,,,,,,,,,,,,,,,,,,1.6424,591.5721750000002,None,space,1,591.5721750000002,None,0.35420609999982844,P040,FENCOG,1,Pre,2022_Apr_28_1113,N-Back (New Version 2021),2021.1.4,120.0347620667229,
,,,,Conditions/Version_1/twoback(1)_v1.xlsx,New rule: Press 'space' when you see 2-back (i.e. the same letter as the one that appeared 2 letters ago.),,,,,,,,,,,0,2,2,2,,,,,,,,,,,,,,,,,,,,,,,,,,,,,,,,,,,,,,,,,,,,,,,,,,,,,,,,,,,,,,,,,,,,,,,,,,,,,,,,,P040,FENCOG,1,Pre,2022_Apr_28_1113,N-Back (New Version 2021),2021.1.4,120.0347620667229,
,,,,Conditions/Version_1/threeback(1)_v1.xlsx,New rule: Press 'space' when you see 3-back (i.e. the same letter as the one that appeared 3 letters ago.),r,None,,,,,,,,,0,3,3,3,0,0,0,0,,,,,,,,,,,,,,,,,,,,,,,,,,,,,,,,,,,,,,,,,,,,,,,,,,,,,,,,,,,593.6002176000002,None,596.5882326999999,None,space,0.6661966000001485,596.5882326999999,None,593.6002176000002,None,1.8718,599.1526833999997,None,None,1,599.1526833999997,None,,P040,FENCOG,1,Pre,2022_Apr_28_1113,N-Back (New Version 2021),2021.1.4,120.0347620667229,
,,,,Conditions/Version_1/threeback(1)_v1.xlsx,New rule: Press 'space' when you see 3-back (i.e. the same letter as the one that appeared 3 letters ago.),o,None,,,,,,,,,0,3,3,3,0,1,1,1,,,,,,,,,,,,,,,,,,,,,,,,,,,,,,,,,,,,,,,,,,,,,,,,,,,,,,,,,,,,,,,,,,,,,1.6486,602.8117762000002,None,None,1,602.8117762000002,None,,P040,FENCOG,1,Pre,2022_Apr_28_1113,N-Back (New Version 2021),2021.1.4,120.0347620667229,
,,,,Conditions/Version_1/threeback(1)_v1.xlsx,New rule: Press 'space' when you see 3-back (i.e. the same letter as the one that appeared 3 letters ago.),P,None,,,,,,,,,0,3,3,3,0,2,2,2,,,,,,,,,,,,,,,,,,,,,,,,,,,,,,,,,,,,,,,,,,,,,,,,,,,,,,,,,,,,,,,,,,,,,1.9896,606.8091457,None,None,1,606.8091457,None,,P040,FENCOG,1,Pre,2022_Apr_28_1113,N-Back (New Version 2021),2021.1.4,120.0347620667229,
,,,,Conditions/Version_1/threeback(1)_v1.xlsx,New rule: Press 'space' when you see 3-back (i.e. the same letter as the one that appeared 3 letters ago.),R,space,,,,,,,,,0,3,3,3,0,3,3,3,,,,,,,,,,,,,,,,,,,,,,,,,,,,,,,,,,,,,,,,,,,,,,,,,,,,,,,,,,,,,,,,,,,,,1.196,610.0088311999998,None,space,1,610.0088311999998,None,0.3894538000004104,P040,FENCOG,1,Pre,2022_Apr_28_1113,N-Back (New Version 2021),2021.1.4,120.0347620667229,
,,,,Conditions/Version_1/threeback(1)_v1.xlsx,New rule: Press 'space' when you see 3-back (i.e. the same letter as the one that appeared 3 letters ago.),p,None,,,,,,,,,0,3,3,3,0,4,4,4,,,,,,,,,,,,,,,,,,,,,,,,,,,,,,,,,,,,,,,,,,,,,,,,,,,,,,,,,,,,,,,,,,,,,1.01,613.0326324999996,None,None,1,613.0326324999996,None,,P040,FENCOG,1,Pre,2022_Apr_28_1113,N-Back (New Version 2021),2021.1.4,120.0347620667229,
,,,,Conditions/Version_1/threeback(1)_v1.xlsx,New rule: Press 'space' when you see 3-back (i.e. the same letter as the one that appeared 3 letters ago.),E,None,,,,,,,,,0,3,3,3,0,5,5,5,,,,,,,,,,,,,,,,,,,,,,,,,,,,,,,,,,,,,,,,,,,,,,,,,,,,,,,,,,,,,,,,,,,,,1.5184,616.5598135,None,None,1,616.5598135,None,,P040,FENCOG,1,Pre,2022_Apr_28_1113,N-Back (New Version 2021),2021.1.4,120.0347620667229,
,,,,Conditions/Version_1/threeback(1)_v1.xlsx,New rule: Press 'space' when you see 3-back (i.e. the same letter as the one that appeared 3 letters ago.),e,None,,,,,,,,,0,3,3,3,0,6,6,6,,,,,,,,,,,,,,,,,,,,,,,,,,,,,,,,,,,,,,,,,,,,,,,,,,,,,,,,,,,,,,,,,,,,,1.32,619.8959543000001,None,None,1,619.8959543000001,None,,P040,FENCOG,1,Pre,2022_Apr_28_1113,N-Back (New Version 2021),2021.1.4,120.0347620667229,
,,,,Conditions/Version_1/threeback(1)_v1.xlsx,New rule: Press 'space' when you see 3-back (i.e. the same letter as the one that appeared 3 letters ago.),m,None,,,,,,,,,0,3,3,3,0,7,7,7,,,,,,,,,,,,,,,,,,,,,,,,,,,,,,,,,,,,,,,,,,,,,,,,,,,,,,,,,,,,,,,,,,,,,1.8098,623.7169771999997,None,None,1,623.7169771999997,None,,P040,FENCOG,1,Pre,2022_Apr_28_1113,N-Back (New Version 2021),2021.1.4,120.0347620667229,
,,,,Conditions/Version_1/threeback(1)_v1.xlsx,New rule: Press 'space' when you see 3-back (i.e. the same letter as the one that appeared 3 letters ago.),n,None,,,,,,,,,0,3,3,3,0,8,8,8,,,,,,,,,,,,,,,,,,,,,,,,,,,,,,,,,,,,,,,,,,,,,,,,,,,,,,,,,,,,,,,,,,,,,1.7044,627.428793,None,None,1,627.428793,None,,P040,FENCOG,1,Pre,2022_Apr_28_1113,N-Back (New Version 2021),2021.1.4,120.0347620667229,
,,,,Conditions/Version_1/threeback(1)_v1.xlsx,New rule: Press 'space' when you see 3-back (i.e. the same letter as the one that appeared 3 letters ago.),e,space,,,,,,,,,0,3,3,3,0,9,9,9,,,,,,,,,,,,,,,,,,,,,,,,,,,,,,,,,,,,,,,,,,,,,,,,,,,,,,,,,,,,,,,,,,,,,1.692,631.1269837999998,None,space,1,631.1269837999998,None,0.45536770000035176,P040,FENCOG,1,Pre,2022_Apr_28_1113,N-Back (New Version 2021),2021.1.4,120.0347620667229,
,,,,Conditions/Version_1/threeback(1)_v1.xlsx,New rule: Press 'space' when you see 3-back (i.e. the same letter as the one that appeared 3 letters ago.),,,,,,,,,,,0,3,3,3,,,,,,,,,,,,,,,,,,,,,,,,,,,,,,,,,,,,,,,,,,,,,,,,,,,,,,,,,,,,,,,,,,,,,,,,,,,,,,,,,P040,FENCOG,1,Pre,2022_Apr_28_1113,N-Back (New Version 2021),2021.1.4,120.0347620667229,
,,,,Conditions/Version_1/oneback(2)_v1.xlsx,New rule: Press 'space' when you see 1-back (i.e. the same letter as the one that appeared 1 letter ago.),q,None,,,,,,,,,0,4,4,4,0,0,0,0,,,,,,,,,,,,,,,,,,,,,,,,,,,,,,,,,,,,,,,,,,,,,,,,,,,,,,,,,,,633.1506896999999,None,636.1358676,None,space,1.486252499999864,636.1358676,None,633.1506896999999,None,1.0224,638.6751966000002,None,None,1,638.6751966000002,None,,P040,FENCOG,1,Pre,2022_Apr_28_1113,N-Back (New Version 2021),2021.1.4,120.0347620667229,
,,,,Conditions/Version_1/oneback(2)_v1.xlsx,New rule: Press 'space' when you see 1-back (i.e. the same letter as the one that appeared 1 letter ago.),Q,space,,,,,,,,,0,4,4,4,0,1,1,1,,,,,,,,,,,,,,,,,,,,,,,,,,,,,,,,,,,,,,,,,,,,,,,,,,,,,,,,,,,,,,,,,,,,,1.4936,642.1834325999998,None,None,0,642.1834325999998,None,,P040,FENCOG,1,Pre,2022_Apr_28_1113,N-Back (New Version 2021),2021.1.4,120.0347620667229,
,,,,Conditions/Version_1/oneback(2)_v1.xlsx,New rule: Press 'space' when you see 1-back (i.e. the same letter as the one that appeared 1 letter ago.),P,None,,,,,,,,,0,4,4,4,0,2,2,2,,,,,,,,,,,,,,,,,,,,,,,,,,,,,,,,,,,,,,,,,,,,,,,,,,,,,,,,,,,,,,,,,,,,,1.7416,645.9316299000002,None,None,1,645.9316299000002,None,,P040,FENCOG,1,Pre,2022_Apr_28_1113,N-Back (New Version 2021),2021.1.4,120.0347620667229,
,,,,Conditions/Version_1/oneback(2)_v1.xlsx,New rule: Press 'space' when you see 1-back (i.e. the same letter as the one that appeared 1 letter ago.),o,None,,,,,,,,,0,4,4,4,0,3,3,3,,,,,,,,,,,,,,,,,,,,,,,,,,,,,,,,,,,,,,,,,,,,,,,,,,,,,,,,,,,,,,,,,,,,,1.4626,649.3960158999998,None,None,1,649.3960158999998,None,,P040,FENCOG,1,Pre,2022_Apr_28_1113,N-Back (New Version 2021),2021.1.4,120.0347620667229,
,,,,Conditions/Version_1/oneback(2)_v1.xlsx,New rule: Press 'space' when you see 1-back (i.e. the same letter as the one that appeared 1 letter ago.),m,None,,,,,,,,,0,4,4,4,0,4,4,4,,,,,,,,,,,,,,,,,,,,,,,,,,,,,,,,,,,,,,,,,,,,,,,,,,,,,,,,,,,,,,,,,,,,,1.5246,652.9199238000001,None,None,1,652.9199238000001,None,,P040,FENCOG,1,Pre,2022_Apr_28_1113,N-Back (New Version 2021),2021.1.4,120.0347620667229,
,,,,Conditions/Version_1/oneback(2)_v1.xlsx,New rule: Press 'space' when you see 1-back (i.e. the same letter as the one that appeared 1 letter ago.),Z,None,,,,,,,,,0,4,4,4,0,5,5,5,,,,,,,,,,,,,,,,,,,,,,,,,,,,,,,,,,,,,,,,,,,,,,,,,,,,,,,,,,,,,,,,,,,,,1.3386,656.2630755999999,None,None,1,656.2630755999999,None,,P040,FENCOG,1,Pre,2022_Apr_28_1113,N-Back (New Version 2021),2021.1.4,120.0347620667229,
,,,,Conditions/Version_1/oneback(2)_v1.xlsx,New rule: Press 'space' when you see 1-back (i.e. the same letter as the one that appeared 1 letter ago.),c,None,,,,,,,,,0,4,4,4,0,6,6,6,,,,,,,,,,,,,,,,,,,,,,,,,,,,,,,,,,,,,,,,,,,,,,,,,,,,,,,,,,,,,,,,,,,,,1.909,660.1855986,None,None,1,660.1855986,None,,P040,FENCOG,1,Pre,2022_Apr_28_1113,N-Back (New Version 2021),2021.1.4,120.0347620667229,
,,,,Conditions/Version_1/oneback(2)_v1.xlsx,New rule: Press 'space' when you see 1-back (i.e. the same letter as the one that appeared 1 letter ago.),c,space,,,,,,,,,0,4,4,4,0,7,7,7,,,,,,,,,,,,,,,,,,,,,,,,,,,,,,,,,,,,,,,,,,,,,,,,,,,,,,,,,,,,,,,,,,,,,1.2022,663.4003691999997,None,space,1,663.4003691999997,None,0.2858513999999559,P040,FENCOG,1,Pre,2022_Apr_28_1113,N-Back (New Version 2021),2021.1.4,120.0347620667229,
,,,,Conditions/Version_1/oneback(2)_v1.xlsx,New rule: Press 'space' when you see 1-back (i.e. the same letter as the one that appeared 1 letter ago.),P,None,,,,,,,,,0,4,4,4,0,8,8,8,,,,,,,,,,,,,,,,,,,,,,,,,,,,,,,,,,,,,,,,,,,,,,,,,,,,,,,,,,,,,,,,,,,,,1.1278,666.5325543999998,None,None,1,666.5325543999998,None,,P040,FENCOG,1,Pre,2022_Apr_28_1113,N-Back (New Version 2021),2021.1.4,120.0347620667229,
,,,,Conditions/Version_1/oneback(2)_v1.xlsx,New rule: Press 'space' when you see 1-back (i.e. the same letter as the one that appeared 1 letter ago.),p,space,,,,,,,,,0,4,4,4,0,9,9,9,,,,,,,,,,,,,,,,,,,,,,,,,,,,,,,,,,,,,,,,,,,,,,,,,,,,,,,,,,,,,,,,,,,,,1.0472,669.5924064000001,None,space,1,669.5924064000001,None,0.30167359999995824,P040,FENCOG,1,Pre,2022_Apr_28_1113,N-Back (New Version 2021),2021.1.4,120.0347620667229,
,,,,Conditions/Version_1/oneback(2)_v1.xlsx,New rule: Press 'space' when you see 1-back (i.e. the same letter as the one that appeared 1 letter ago.),,,,,,,,,,,0,4,4,4,,,,,,,,,,,,,,,,,,,,,,,,,,,,,,,,,,,,,,,,,,,,,,,,,,,,,,,,,,,,,,,,,,,,,,,,,,,,,,,,,P040,FENCOG,1,Pre,2022_Apr_28_1113,N-Back (New Version 2021),2021.1.4,120.0347620667229,
,,,,Conditions/Version_1/zeroback(2)_v1.xlsx,New rule: Press 'space' when you see the letter 'x' or 'X'.,p,None,,,,,,,,,0,5,5,5,0,0,0,0,,,,,,,,,,,,,,,,,,,,,,,,,,,,,,,,,,,,,,,,,,,,,,,,,,,,,,,,,,,671.6174478000003,None,674.6074207000001,None,space,0.43863000000055763,674.6074207000001,None,671.6174478000003,None,1.3076,676.3881615999999,None,None,1,676.3881615999999,None,,P040,FENCOG,1,Pre,2022_Apr_28_1113,N-Back (New Version 2021),2021.1.4,120.0347620667229,
,,,,Conditions/Version_1/zeroback(2)_v1.xlsx,New rule: Press 'space' when you see the letter 'x' or 'X'.,L,None,,,,,,,,,0,5,5,5,0,1,1,1,,,,,,,,,,,,,,,,,,,,,,,,,,,,,,,,,,,,,,,,,,,,,,,,,,,,,,,,,,,,,,,,,,,,,1.196,679.5872475999995,None,None,1,679.5872475999995,None,,P040,FENCOG,1,Pre,2022_Apr_28_1113,N-Back (New Version 2021),2021.1.4,120.0347620667229,
,,,,Conditions/Version_1/zeroback(2)_v1.xlsx,New rule: Press 'space' when you see the letter 'x' or 'X'.,G,None,,,,,,,,,0,5,5,5,0,2,2,2,,,,,,,,,,,,,,,,,,,,,,,,,,,,,,,,,,,,,,,,,,,,,,,,,,,,,,,,,,,,,,,,,,,,,1.0968,682.6861220000001,None,None,1,682.6861220000001,None,,P040,FENCOG,1,Pre,2022_Apr_28_1113,N-Back (New Version 2021),2021.1.4,120.0347620667229,
,,,,Conditions/Version_1/zeroback(2)_v1.xlsx,New rule: Press 'space' when you see the letter 'x' or 'X'.,y,None,,,,,,,,,0,5,5,5,0,3,3,3,,,,,,,,,,,,,,,,,,,,,,,,,,,,,,,,,,,,,,,,,,,,,,,,,,,,,,,,,,,,,,,,,,,,,1.909,686.6016401999996,None,None,1,686.6016401999996,None,,P040,FENCOG,1,Pre,2022_Apr_28_1113,N-Back (New Version 2021),2021.1.4,120.0347620667229,
,,,,Conditions/Version_1/zeroback(2)_v1.xlsx,New rule: Press 'space' when you see the letter 'x' or 'X'.,Y,None,,,,,,,,,0,5,5,5,0,4,4,4,,,,,,,,,,,,,,,,,,,,,,,,,,,,,,,,,,,,,,,,,,,,,,,,,,,,,,,,,,,,,,,,,,,,,1.134,689.7428322999995,None,None,1,689.7428322999995,None,,P040,FENCOG,1,Pre,2022_Apr_28_1113,N-Back (New Version 2021),2021.1.4,120.0347620667229,
,,,,Conditions/Version_1/zeroback(2)_v1.xlsx,New rule: Press 'space' when you see the letter 'x' or 'X'.,W,None,,,,,,,,,0,5,5,5,0,5,5,5,,,,,,,,,,,,,,,,,,,,,,,,,,,,,,,,,,,,,,,,,,,,,,,,,,,,,,,,,,,,,,,,,,,,,1.7664,693.5095001,None,None,1,693.5095001,None,,P040,FENCOG,1,Pre,2022_Apr_28_1113,N-Back (New Version 2021),2021.1.4,120.0347620667229,
,,,,Conditions/Version_1/zeroback(2)_v1.xlsx,New rule: Press 'space' when you see the letter 'x' or 'X'.,x,space,,,,,,,,,0,5,5,5,0,6,6,6,,,,,,,,,,,,,,,,,,,,,,,,,,,,,,,,,,,,,,,,,,,,,,,,,,,,,,,,,,,,,,,,,,,,,1.3138,696.8260915999999,None,space,1,696.8260915999999,None,0.31599130000086006,P040,FENCOG,1,Pre,2022_Apr_28_1113,N-Back (New Version 2021),2021.1.4,120.0347620667229,
,,,,Conditions/Version_1/zeroback(2)_v1.xlsx,New rule: Press 'space' when you see the letter 'x' or 'X'.,X,space,,,,,,,,,0,5,5,5,0,7,7,7,,,,,,,,,,,,,,,,,,,,,,,,,,,,,,,,,,,,,,,,,,,,,,,,,,,,,,,,,,,,,,,,,,,,,1.8408,700.6724456000002,None,space,1,700.6724456000002,None,0.9016522000001714,P040,FENCOG,1,Pre,2022_Apr_28_1113,N-Back (New Version 2021),2021.1.4,120.0347620667229,
,,,,Conditions/Version_1/zeroback(2)_v1.xlsx,New rule: Press 'space' when you see the letter 'x' or 'X'.,p,None,,,,,,,,,0,5,5,5,0,8,8,8,,,,,,,,,,,,,,,,,,,,,,,,,,,,,,,,,,,,,,,,,,,,,,,,,,,,,,,,,,,,,,,,,,,,,1.8284,704.5064651000002,None,None,1,704.5064651000002,None,,P040,FENCOG,1,Pre,2022_Apr_28_1113,N-Back (New Version 2021),2021.1.4,120.0347620667229,
,,,,Conditions/Version_1/zeroback(2)_v1.xlsx,New rule: Press 'space' when you see the letter 'x' or 'X'.,h,None,,,,,,,,,0,5,5,5,0,9,9,9,,,,,,,,,,,,,,,,,,,,,,,,,,,,,,,,,,,,,,,,,,,,,,,,,,,,,,,,,,,,,,,,,,,,,1.9586,708.4727723999995,None,None,1,708.4727723999995,None,,P040,FENCOG,1,Pre,2022_Apr_28_1113,N-Back (New Version 2021),2021.1.4,120.0347620667229,
,,,,Conditions/Version_1/zeroback(2)_v1.xlsx,New rule: Press 'space' when you see the letter 'x' or 'X'.,,,,,,,,,,,0,5,5,5,,,,,,,,,,,,,,,,,,,,,,,,,,,,,,,,,,,,,,,,,,,,,,,,,,,,,,,,,,,,,,,,,,,,,,,,,,,,,,,,,P040,FENCOG,1,Pre,2022_Apr_28_1113,N-Back (New Version 2021),2021.1.4,120.0347620667229,
,,,,Conditions/Version_1/threeback(2)_v1.xlsx,New rule: Press 'space' when you see 3-back (i.e. the same letter as the one that appeared 3 letters ago.),q,None,,,,,,,,,0,6,6,6,0,0,0,0,,,,,,,,,,,,,,,,,,,,,,,,,,,,,,,,,,,,,,,,,,,,,,,,,,,,,,,,,,,710.4999228999995,None,713.4871033999998,None,space,3.6550307000006796,713.4871033999998,None,710.4999228999995,None,1.3076,718.4782159999995,None,None,1,718.4782159999995,None,,P040,FENCOG,1,Pre,2022_Apr_28_1113,N-Back (New Version 2021),2021.1.4,120.0347620667229,
,,,,Conditions/Version_1/threeback(2)_v1.xlsx,New rule: Press 'space' when you see 3-back (i.e. the same letter as the one that appeared 3 letters ago.),Y,None,,,,,,,,,0,6,6,6,0,1,1,1,,,,,,,,,,,,,,,,,,,,,,,,,,,,,,,,,,,,,,,,,,,,,,,,,,,,,,,,,,,,,,,,,,,,,1.0844,721.5781847999997,None,None,1,721.5781847999997,None,,P040,FENCOG,1,Pre,2022_Apr_28_1113,N-Back (New Version 2021),2021.1.4,120.0347620667229,
,,,,Conditions/Version_1/threeback(2)_v1.xlsx,New rule: Press 'space' when you see 3-back (i.e. the same letter as the one that appeared 3 letters ago.),p,None,,,,,,,,,0,6,6,6,0,2,2,2,,,,,,,,,,,,,,,,,,,,,,,,,,,,,,,,,,,,,,,,,,,,,,,,,,,,,,,,,,,,,,,,,,,,,1.6424,725.2356289999998,None,None,1,725.2356289999998,None,,P040,FENCOG,1,Pre,2022_Apr_28_1113,N-Back (New Version 2021),2021.1.4,120.0347620667229,
,,,,Conditions/Version_1/threeback(2)_v1.xlsx,New rule: Press 'space' when you see 3-back (i.e. the same letter as the one that appeared 3 letters ago.),p,None,,,,,,,,,0,6,6,6,0,3,3,3,,,,,,,,,,,,,,,,,,,,,,,,,,,,,,,,,,,,,,,,,,,,,,,,,,,,,,,,,,,,,,,,,,,,,1.3324,728.5728707999997,None,None,1,728.5728707999997,None,,P040,FENCOG,1,Pre,2022_Apr_28_1113,N-Back (New Version 2021),2021.1.4,120.0347620667229,
,,,,Conditions/Version_1/threeback(2)_v1.xlsx,New rule: Press 'space' when you see 3-back (i.e. the same letter as the one that appeared 3 letters ago.),y,space,,,,,,,,,0,6,6,6,0,4,4,4,,,,,,,,,,,,,,,,,,,,,,,,,,,,,,,,,,,,,,,,,,,,,,,,,,,,,,,,,,,,,,,,,,,,,1.134,731.7051567999997,None,space,1,731.7051567999997,None,1.4208380000000034,P040,FENCOG,1,Pre,2022_Apr_28_1113,N-Back (New Version 2021),2021.1.4,120.0347620667229,
,,,,Conditions/Version_1/threeback(2)_v1.xlsx,New rule: Press 'space' when you see 3-back (i.e. the same letter as the one that appeared 3 letters ago.),u,None,,,,,,,,,0,6,6,6,0,5,5,5,,,,,,,,,,,,,,,,,,,,,,,,,,,,,,,,,,,,,,,,,,,,,,,,,,,,,,,,,,,,,,,,,,,,,1.4688,735.1788529999994,None,None,1,735.1788529999994,None,,P040,FENCOG,1,Pre,2022_Apr_28_1113,N-Back (New Version 2021),2021.1.4,120.0347620667229,
,,,,Conditions/Version_1/threeback(2)_v1.xlsx,New rule: Press 'space' when you see 3-back (i.e. the same letter as the one that appeared 3 letters ago.),P,space,,,,,,,,,0,6,6,6,0,6,6,6,,,,,,,,,,,,,,,,,,,,,,,,,,,,,,,,,,,,,,,,,,,,,,,,,,,,,,,,,,,,,,,,,,,,,1.816,738.9964682,None,space,1,738.9964682,None,0.6577140999997937,P040,FENCOG,1,Pre,2022_Apr_28_1113,N-Back (New Version 2021),2021.1.4,120.0347620667229,
,,,,Conditions/Version_1/threeback(2)_v1.xlsx,New rule: Press 'space' when you see 3-back (i.e. the same letter as the one that appeared 3 letters ago.),a,None,,,,,,,,,0,6,6,6,0,7,7,7,,,,,,,,,,,,,,,,,,,,,,,,,,,,,,,,,,,,,,,,,,,,,,,,,,,,,,,,,,,,,,,,,,,,,1.599,742.6017989000002,None,None,1,742.6017989000002,None,,P040,FENCOG,1,Pre,2022_Apr_28_1113,N-Back (New Version 2021),2021.1.4,120.0347620667229,
,,,,Conditions/Version_1/threeback(2)_v1.xlsx,New rule: Press 'space' when you see 3-back (i.e. the same letter as the one that appeared 3 letters ago.),U,space,,,,,,,,,0,6,6,6,0,8,8,8,,,,,,,,,,,,,,,,,,,,,,,,,,,,,,,,,,,,,,,,,,,,,,,,,,,,,,,,,,,,,,,,,,,,,1.6176,746.2276869999996,None,space,1,746.2276869999996,None,0.31439700000009907,P040,FENCOG,1,Pre,2022_Apr_28_1113,N-Back (New Version 2021),2021.1.4,120.0347620667229,
,,,,Conditions/Version_1/threeback(2)_v1.xlsx,New rule: Press 'space' when you see 3-back (i.e. the same letter as the one that appeared 3 letters ago.),q,None,,,,,,,,,0,6,6,6,0,9,9,9,,,,,,,,,,,,,,,,,,,,,,,,,,,,,,,,,,,,,,,,,,,,,,,,,,,,,,,,,,,,,,,,,,,,,1.1092,749.3501224000001,None,None,1,749.3501224000001,None,,P040,FENCOG,1,Pre,2022_Apr_28_1113,N-Back (New Version 2021),2021.1.4,120.0347620667229,
,,,,Conditions/Version_1/threeback(2)_v1.xlsx,New rule: Press 'space' when you see 3-back (i.e. the same letter as the one that appeared 3 letters ago.),,,,,,,,,,,0,6,6,6,,,,,,,,,,,,,,,,,,,,,,,,,,,,,,,,,,,,,,,,,,,,,,,,,,,,,,,,,,,,,,,,,,,,,,,,,,,,,,,,,P040,FENCOG,1,Pre,2022_Apr_28_1113,N-Back (New Version 2021),2021.1.4,120.0347620667229,
,,,,Conditions/Version_1/twoback(2)_v1.xlsx,New rule: Press 'space' when you see 2-back (i.e. the same letter as the one that appeared 2 letters ago.),q,None,,,,,,,,,0,7,7,7,0,0,0,0,,,,,,,,,,,,,,,,,,,,,,,,,,,,,,,,,,,,,,,,,,,,,,,,,,,,,,,,,,,751.3847748999997,None,754.3760745,None,space,0.9018185999993875,754.3760745,None,751.3847748999997,None,1.599,756.9057555999998,None,None,1,756.9057555999998,None,,P040,FENCOG,1,Pre,2022_Apr_28_1113,N-Back (New Version 2021),2021.1.4,120.0347620667229,
,,,,Conditions/Version_1/twoback(2)_v1.xlsx,New rule: Press 'space' when you see 2-back (i.e. the same letter as the one that appeared 2 letters ago.),r,None,,,,,,,,,0,7,7,7,0,1,1,1,,,,,,,,,,,,,,,,,,,,,,,,,,,,,,,,,,,,,,,,,,,,,,,,,,,,,,,,,,,,,,,,,,,,,1.6362,760.5471981999999,None,None,1,760.5471981999999,None,,P040,FENCOG,1,Pre,2022_Apr_28_1113,N-Back (New Version 2021),2021.1.4,120.0347620667229,
,,,,Conditions/Version_1/twoback(2)_v1.xlsx,New rule: Press 'space' when you see 2-back (i.e. the same letter as the one that appeared 2 letters ago.),q,space,,,,,,,,,0,7,7,7,0,2,2,2,,,,,,,,,,,,,,,,,,,,,,,,,,,,,,,,,,,,,,,,,,,,,,,,,,,,,,,,,,,,,,,,,,,,,1.8842,764.4370284999995,None,space,1,764.4370284999995,None,1.4090412000005017,P040,FENCOG,1,Pre,2022_Apr_28_1113,N-Back (New Version 2021),2021.1.4,120.0347620667229,
,,,,Conditions/Version_1/twoback(2)_v1.xlsx,New rule: Press 'space' when you see 2-back (i.e. the same letter as the one that appeared 2 letters ago.),P,None,,,,,,,,,0,7,7,7,0,3,3,3,,,,,,,,,,,,,,,,,,,,,,,,,,,,,,,,,,,,,,,,,,,,,,,,,,,,,,,,,,,,,,,,,,,,,1.1278,767.5693507999995,None,None,1,767.5693507999995,None,,P040,FENCOG,1,Pre,2022_Apr_28_1113,N-Back (New Version 2021),2021.1.4,120.0347620667229,
,,,,Conditions/Version_1/twoback(2)_v1.xlsx,New rule: Press 'space' when you see 2-back (i.e. the same letter as the one that appeared 2 letters ago.),p,None,,,,,,,,,0,7,7,7,0,4,4,4,,,,,,,,,,,,,,,,,,,,,,,,,,,,,,,,,,,,,,,,,,,,,,,,,,,,,,,,,,,,,,,,,,,,,1.8408,771.4101114999994,None,None,1,771.4101114999994,None,,P040,FENCOG,1,Pre,2022_Apr_28_1113,N-Back (New Version 2021),2021.1.4,120.0347620667229,
,,,,Conditions/Version_1/twoback(2)_v1.xlsx,New rule: Press 'space' when you see 2-back (i.e. the same letter as the one that appeared 2 letters ago.),H,None,,,,,,,,,0,7,7,7,0,5,5,5,,,,,,,,,,,,,,,,,,,,,,,,,,,,,,,,,,,,,,,,,,,,,,,,,,,,,,,,,,,,,,,,,,,,,1.7044,775.1170917,None,None,1,775.1170917,None,,P040,FENCOG,1,Pre,2022_Apr_28_1113,N-Back (New Version 2021),2021.1.4,120.0347620667229,
,,,,Conditions/Version_1/twoback(2)_v1.xlsx,New rule: Press 'space' when you see 2-back (i.e. the same letter as the one that appeared 2 letters ago.),g,None,,,,,,,,,0,7,7,7,0,6,6,6,,,,,,,,,,,,,,,,,,,,,,,,,,,,,,,,,,,,,,,,,,,,,,,,,,,,,,,,,,,,,,,,,,,,,1.9958,779.1198365,None,None,1,779.1198365,None,,P040,FENCOG,1,Pre,2022_Apr_28_1113,N-Back (New Version 2021),2021.1.4,120.0347620667229,
,,,,Conditions/Version_1/twoback(2)_v1.xlsx,New rule: Press 'space' when you see 2-back (i.e. the same letter as the one that appeared 2 letters ago.),j,None,,,,,,,,,0,7,7,7,0,7,7,7,,,,,,,,,,,,,,,,,,,,,,,,,,,,,,,,,,,,,,,,,,,,,,,,,,,,,,,,,,,,,,,,,,,,,1.9214,783.0490061,None,None,1,783.0490061,None,,P040,FENCOG,1,Pre,2022_Apr_28_1113,N-Back (New Version 2021),2021.1.4,120.0347620667229,
,,,,Conditions/Version_1/twoback(2)_v1.xlsx,New rule: Press 'space' when you see 2-back (i.e. the same letter as the one that appeared 2 letters ago.),g,space,,,,,,,,,0,7,7,7,0,8,8,8,,,,,,,,,,,,,,,,,,,,,,,,,,,,,,,,,,,,,,,,,,,,,,,,,,,,,,,,,,,,,,,,,,,,,1.0596,786.1173655000002,None,space,1,786.1173655000002,None,1.448912300000302,P040,FENCOG,1,Pre,2022_Apr_28_1113,N-Back (New Version 2021),2021.1.4,120.0347620667229,
,,,,Conditions/Version_1/twoback(2)_v1.xlsx,New rule: Press 'space' when you see 2-back (i.e. the same letter as the one that appeared 2 letters ago.),G,None,,,,,,,,,0,7,7,7,0,9,9,9,,,,,,,,,,,,,,,,,,,,,,,,,,,,,,,,,,,,,,,,,,,,,,,,,,,,,,,,,,,,,,,,,,,,,1.0658,789.1897658999997,None,None,1,789.1897658999997,None,,P040,FENCOG,1,Pre,2022_Apr_28_1113,N-Back (New Version 2021),2021.1.4,120.0347620667229,
,,,,Conditions/Version_1/twoback(2)_v1.xlsx,New rule: Press 'space' when you see 2-back (i.e. the same letter as the one that appeared 2 letters ago.),,,,,,,,,,,0,7,7,7,,,,,,,,,,,,,,,,,,,,,,,,,,,,,,,,,,,,,,,,,,,,,,,,,,,,,,,,,,,,,,,,,,,,,,,,,,,,,,,,,P040,FENCOG,1,Pre,2022_Apr_28_1113,N-Back (New Version 2021),2021.1.4,120.0347620667229,
,,,,Conditions/Version_1/threeback(3)_v1.xlsx,New rule: Press 'space' when you see 3-back (i.e. the same letter as the one that appeared 3 letters ago.),w,None,,,,,,,,,0,8,8,8,0,0,0,0,,,,,,,,,,,,,,,,,,,,,,,,,,,,,,,,,,,,,,,,,,,,,,,,,,,,,,,,,,,791.2183556,None,794.2052450000001,None,space,3.8886701999999786,794.2052450000001,None,791.2183556,None,1.661,799.7849572999994,None,None,1,799.7849572999994,None,,P040,FENCOG,1,Pre,2022_Apr_28_1113,N-Back (New Version 2021),2021.1.4,120.0347620667229,
,,,,Conditions/Version_1/threeback(3)_v1.xlsx,New rule: Press 'space' when you see 3-back (i.e. the same letter as the one that appeared 3 letters ago.),p,None,,,,,,,,,0,8,8,8,0,1,1,1,,,,,,,,,,,,,,,,,,,,,,,,,,,,,,,,,,,,,,,,,,,,,,,,,,,,,,,,,,,,,,,,,,,,,1.351,803.1420687,None,None,1,803.1420687,None,,P040,FENCOG,1,Pre,2022_Apr_28_1113,N-Back (New Version 2021),2021.1.4,120.0347620667229,
,,,,Conditions/Version_1/threeback(3)_v1.xlsx,New rule: Press 'space' when you see 3-back (i.e. the same letter as the one that appeared 3 letters ago.),P,None,,,,,,,,,0,8,8,8,0,2,2,2,,,,,,,,,,,,,,,,,,,,,,,,,,,,,,,,,,,,,,,,,,,,,,,,,,,,,,,,,,,,,,,,,,,,,1.7602,806.9076015999999,None,None,1,806.9076015999999,None,,P040,FENCOG,1,Pre,2022_Apr_28_1113,N-Back (New Version 2021),2021.1.4,120.0347620667229,
,,,,Conditions/Version_1/threeback(3)_v1.xlsx,New rule: Press 'space' when you see 3-back (i.e. the same letter as the one that appeared 3 letters ago.),i,None,,,,,,,,,0,8,8,8,0,3,3,3,,,,,,,,,,,,,,,,,,,,,,,,,,,,,,,,,,,,,,,,,,,,,,,,,,,,,,,,,,,,,,,,,,,,,1.568,810.4875289000001,None,None,1,810.4875289000001,None,,P040,FENCOG,1,Pre,2022_Apr_28_1113,N-Back (New Version 2021),2021.1.4,120.0347620667229,
,,,,Conditions/Version_1/threeback(3)_v1.xlsx,New rule: Press 'space' when you see 3-back (i.e. the same letter as the one that appeared 3 letters ago.),f,None,,,,,,,,,0,8,8,8,0,4,4,4,,,,,,,,,,,,,,,,,,,,,,,,,,,,,,,,,,,,,,,,,,,,,,,,,,,,,,,,,,,,,,,,,,,,,1.63,814.1231704000002,None,None,1,814.1231704000002,None,,P040,FENCOG,1,Pre,2022_Apr_28_1113,N-Back (New Version 2021),2021.1.4,120.0347620667229,
,,,,Conditions/Version_1/threeback(3)_v1.xlsx,New rule: Press 'space' when you see 3-back (i.e. the same letter as the one that appeared 3 letters ago.),o,None,,,,,,,,,0,8,8,8,0,5,5,5,,,,,,,,,,,,,,,,,,,,,,,,,,,,,,,,,,,,,,,,,,,,,,,,,,,,,,,,,,,,,,,,,,,,,1.4378,817.5723423999998,None,None,1,817.5723423999998,None,,P040,FENCOG,1,Pre,2022_Apr_28_1113,N-Back (New Version 2021),2021.1.4,120.0347620667229,
,,,,Conditions/Version_1/threeback(3)_v1.xlsx,New rule: Press 'space' when you see 3-back (i.e. the same letter as the one that appeared 3 letters ago.),w,None,,,,,,,,,0,8,8,8,0,6,6,6,,,,,,,,,,,,,,,,,,,,,,,,,,,,,,,,,,,,,,,,,,,,,,,,,,,,,,,,,,,,,,,,,,,,,1.506,821.0867564999999,None,None,1,821.0867564999999,None,,P040,FENCOG,1,Pre,2022_Apr_28_1113,N-Back (New Version 2021),2021.1.4,120.0347620667229,
,,,,Conditions/Version_1/threeback(3)_v1.xlsx,New rule: Press 'space' when you see 3-back (i.e. the same letter as the one that appeared 3 letters ago.),F,space,,,,,,,,,0,8,8,8,0,7,7,7,,,,,,,,,,,,,,,,,,,,,,,,,,,,,,,,,,,,,,,,,,,,,,,,,,,,,,,,,,,,,,,,,,,,,1.7788,824.8801684999999,None,space,1,824.8801684999999,None,0.36614879999979166,P040,FENCOG,1,Pre,2022_Apr_28_1113,N-Back (New Version 2021),2021.1.4,120.0347620667229,
,,,,Conditions/Version_1/threeback(3)_v1.xlsx,New rule: Press 'space' when you see 3-back (i.e. the same letter as the one that appeared 3 letters ago.),p,None,,,,,,,,,0,8,8,8,0,8,8,8,,,,,,,,,,,,,,,,,,,,,,,,,,,,,,,,,,,,,,,,,,,,,,,,,,,,,,,,,,,,,,,,,,,,,1.3944,828.2864406999997,None,None,1,828.2864406999997,None,,P040,FENCOG,1,Pre,2022_Apr_28_1113,N-Back (New Version 2021),2021.1.4,120.0347620667229,
,,,,Conditions/Version_1/threeback(3)_v1.xlsx,New rule: Press 'space' when you see 3-back (i.e. the same letter as the one that appeared 3 letters ago.),W,space,,,,,,,,,0,8,8,8,0,9,9,9,,,,,,,,,,,,,,,,,,,,,,,,,,,,,,,,,,,,,,,,,,,,,,,,,,,,,,,,,,,,,,,,,,,,,1.7292,832.0297504,None,space,1,832.0297504,None,1.2800480000005336,P040,FENCOG,1,Pre,2022_Apr_28_1113,N-Back (New Version 2021),2021.1.4,120.0347620667229,
,,,,Conditions/Version_1/threeback(3)_v1.xlsx,New rule: Press 'space' when you see 3-back (i.e. the same letter as the one that appeared 3 letters ago.),,,,,,,,,,,0,8,8,8,,,,,,,,,,,,,,,,,,,,,,,,,,,,,,,,,,,,,,,,,,,,,,,,,,,,,,,,,,,,,,,,,,,,,,,,,,,,,,,,,P040,FENCOG,1,Pre,2022_Apr_28_1113,N-Back (New Version 2021),2021.1.4,120.0347620667229,
,,,,Conditions/Version_1/zeroback(3)_v1.xlsx,New rule: Press 'space' when you see the letter 'x' or 'X'.,X,space,,,,,,,,,0,9,9,9,0,0,0,0,,,,,,,,,,,,,,,,,,,,,,,,,,,,,,,,,,,,,,,,,,,,,,,,,,,,,,,,,,,834.0543723999999,None,837.0424484999994,None,space,0.6995047000000341,837.0424484999994,None,834.0543723999999,None,1.3138,839.0814008999996,None,space,1,839.0814008999996,None,0.36472369999955845,P040,FENCOG,1,Pre,2022_Apr_28_1113,N-Back (New Version 2021),2021.1.4,120.0347620667229,
,,,,Conditions/Version_1/zeroback(3)_v1.xlsx,New rule: Press 'space' when you see the letter 'x' or 'X'.,B,None,,,,,,,,,0,9,9,9,0,1,1,1,,,,,,,,,,,,,,,,,,,,,,,,,,,,,,,,,,,,,,,,,,,,,,,,,,,,,,,,,,,,,,,,,,,,,1.2456,842.3339858999998,None,space,0,842.3339858999998,None,0.3679646999999022,P040,FENCOG,1,Pre,2022_Apr_28_1113,N-Back (New Version 2021),2021.1.4,120.0347620667229,
,,,,Conditions/Version_1/zeroback(3)_v1.xlsx,New rule: Press 'space' when you see the letter 'x' or 'X'.,m,None,,,,,,,,,0,9,9,9,0,2,2,2,,,,,,,,,,,,,,,,,,,,,,,,,,,,,,,,,,,,,,,,,,,,,,,,,,,,,,,,,,,,,,,,,,,,,1.7664,846.1043524999995,None,None,1,846.1043524999995,None,,P040,FENCOG,1,Pre,2022_Apr_28_1113,N-Back (New Version 2021),2021.1.4,120.0347620667229,
,,,,Conditions/Version_1/zeroback(3)_v1.xlsx,New rule: Press 'space' when you see the letter 'x' or 'X'.,m,None,,,,,,,,,0,9,9,9,0,3,3,3,,,,,,,,,,,,,,,,,,,,,,,,,,,,,,,,,,,,,,,,,,,,,,,,,,,,,,,,,,,,,,,,,,,,,1.4688,849.5785934999994,None,None,1,849.5785934999994,None,,P040,FENCOG,1,Pre,2022_Apr_28_1113,N-Back (New Version 2021),2021.1.4,120.0347620667229,
,,,,Conditions/Version_1/zeroback(3)_v1.xlsx,New rule: Press 'space' when you see the letter 'x' or 'X'.,o,None,,,,,,,,,0,9,9,9,0,4,4,4,,,,,,,,,,,,,,,,,,,,,,,,,,,,,,,,,,,,,,,,,,,,,,,,,,,,,,,,,,,,,,,,,,,,,1.8532,853.4365612000001,None,None,1,853.4365612000001,None,,P040,FENCOG,1,Pre,2022_Apr_28_1113,N-Back (New Version 2021),2021.1.4,120.0347620667229,
,,,,Conditions/Version_1/zeroback(3)_v1.xlsx,New rule: Press 'space' when you see the letter 'x' or 'X'.,p,None,,,,,,,,,0,9,9,9,0,5,5,5,,,,,,,,,,,,,,,,,,,,,,,,,,,,,,,,,,,,,,,,,,,,,,,,,,,,,,,,,,,,,,,,,,,,,1.9958,857.4426524999999,None,None,1,857.4426524999999,None,,P040,FENCOG,1,Pre,2022_Apr_28_1113,N-Back (New Version 2021),2021.1.4,120.0347620667229,
,,,,Conditions/Version_1/zeroback(3)_v1.xlsx,New rule: Press 'space' when you see the letter 'x' or 'X'.,G,None,,,,,,,,,0,9,9,9,0,6,6,6,,,,,,,,,,,,,,,,,,,,,,,,,,,,,,,,,,,,,,,,,,,,,,,,,,,,,,,,,,,,,,,,,,,,,1.2208,860.6678756000001,None,None,1,860.6678756000001,None,,P040,FENCOG,1,Pre,2022_Apr_28_1113,N-Back (New Version 2021),2021.1.4,120.0347620667229,
,,,,Conditions/Version_1/zeroback(3)_v1.xlsx,New rule: Press 'space' when you see the letter 'x' or 'X'.,X,space,,,,,,,,,0,9,9,9,0,7,7,7,,,,,,,,,,,,,,,,,,,,,,,,,,,,,,,,,,,,,,,,,,,,,,,,,,,,,,,,,,,,,,,,,,,,,1.8842,864.5693351999998,None,space,1,864.5693351999998,None,0.34865410000020347,P040,FENCOG,1,Pre,2022_Apr_28_1113,N-Back (New Version 2021),2021.1.4,120.0347620667229,
,,,,Conditions/Version_1/zeroback(3)_v1.xlsx,New rule: Press 'space' when you see the letter 'x' or 'X'.,p,None,,,,,,,,,0,9,9,9,0,8,8,8,,,,,,,,,,,,,,,,,,,,,,,,,,,,,,,,,,,,,,,,,,,,,,,,,,,,,,,,,,,,,,,,,,,,,1.6486,868.2227983000002,None,None,1,868.2227983000002,None,,P040,FENCOG,1,Pre,2022_Apr_28_1113,N-Back (New Version 2021),2021.1.4,120.0347620667229,
,,,,Conditions/Version_1/zeroback(3)_v1.xlsx,New rule: Press 'space' when you see the letter 'x' or 'X'.,x,space,,,,,,,,,0,9,9,9,0,9,9,9,,,,,,,,,,,,,,,,,,,,,,,,,,,,,,,,,,,,,,,,,,,,,,,,,,,,,,,,,,,,,,,,,,,,,1.6176,871.8466988,None,space,1,871.8466988,None,0.32718990000012127,P040,FENCOG,1,Pre,2022_Apr_28_1113,N-Back (New Version 2021),2021.1.4,120.0347620667229,
,,,,Conditions/Version_1/zeroback(3)_v1.xlsx,New rule: Press 'space' when you see the letter 'x' or 'X'.,,,,,,,,,,,0,9,9,9,,,,,,,,,,,,,,,,,,,,,,,,,,,,,,,,,,,,,,,,,,,,,,,,,,,,,,,,,,,,,,,,,,,,,,,,,,,,,,,,,P040,FENCOG,1,Pre,2022_Apr_28_1113,N-Back (New Version 2021),2021.1.4,120.0347620667229,
,,,,Conditions/Version_1/twoback(3)_v1.xlsx,New rule: Press 'space' when you see 2-back (i.e. the same letter as the one that appeared 2 letters ago.),e,None,,,,,,,,,0,10,10,10,0,0,0,0,,,,,,,,,,,,,,,,,,,,,,,,,,,,,,,,,,,,,,,,,,,,,,,,,,,,,,,,,,,873.8680257999995,None,876.8559441999996,None,space,9.438395899999705,876.8559441999996,None,873.8680257999995,None,1.4688,887.7995042000002,None,None,1,887.7995042000002,None,,P040,FENCOG,1,Pre,2022_Apr_28_1113,N-Back (New Version 2021),2021.1.4,120.0347620667229,
,,,,Conditions/Version_1/twoback(3)_v1.xlsx,New rule: Press 'space' when you see 2-back (i.e. the same letter as the one that appeared 2 letters ago.),o,None,,,,,,,,,0,10,10,10,0,1,1,1,,,,,,,,,,,,,,,,,,,,,,,,,,,,,,,,,,,,,,,,,,,,,,,,,,,,,,,,,,,,,,,,,,,,,1.1278,890.9369798999996,None,None,1,890.9369798999996,None,,P040,FENCOG,1,Pre,2022_Apr_28_1113,N-Back (New Version 2021),2021.1.4,120.0347620667229,
,,,,Conditions/Version_1/twoback(3)_v1.xlsx,New rule: Press 'space' when you see 2-back (i.e. the same letter as the one that appeared 2 letters ago.),P,None,,,,,,,,,0,10,10,10,0,2,2,2,,,,,,,,,,,,,,,,,,,,,,,,,,,,,,,,,,,,,,,,,,,,,,,,,,,,,,,,,,,,,,,,,,,,,1.6486,894.5899787999997,None,None,1,894.5899787999997,None,,P040,FENCOG,1,Pre,2022_Apr_28_1113,N-Back (New Version 2021),2021.1.4,120.0347620667229,
,,,,Conditions/Version_1/twoback(3)_v1.xlsx,New rule: Press 'space' when you see 2-back (i.e. the same letter as the one that appeared 2 letters ago.),z,None,,,,,,,,,0,10,10,10,0,3,3,3,,,,,,,,,,,,,,,,,,,,,,,,,,,,,,,,,,,,,,,,,,,,,,,,,,,,,,,,,,,,,,,,,,,,,1.6796,898.2840452,None,None,1,898.2840452,None,,P040,FENCOG,1,Pre,2022_Apr_28_1113,N-Back (New Version 2021),2021.1.4,120.0347620667229,
,,,,Conditions/Version_1/twoback(3)_v1.xlsx,New rule: Press 'space' when you see 2-back (i.e. the same letter as the one that appeared 2 letters ago.),X,None,,,,,,,,,0,10,10,10,0,4,4,4,,,,,,,,,,,,,,,,,,,,,,,,,,,,,,,,,,,,,,,,,,,,,,,,,,,,,,,,,,,,,,,,,,,,,1.3386,901.6213735000001,None,None,1,901.6213735000001,None,,P040,FENCOG,1,Pre,2022_Apr_28_1113,N-Back (New Version 2021),2021.1.4,120.0347620667229,
,,,,Conditions/Version_1/twoback(3)_v1.xlsx,New rule: Press 'space' when you see 2-back (i.e. the same letter as the one that appeared 2 letters ago.),z,space,,,,,,,,,0,10,10,10,0,5,5,5,,,,,,,,,,,,,,,,,,,,,,,,,,,,,,,,,,,,,,,,,,,,,,,,,,,,,,,,,,,,,,,,,,,,,1.3014,904.9337544999998,None,space,1,904.9337544999998,None,0.8401001000001997,P040,FENCOG,1,Pre,2022_Apr_28_1113,N-Back (New Version 2021),2021.1.4,120.0347620667229,
,,,,Conditions/Version_1/twoback(3)_v1.xlsx,New rule: Press 'space' when you see 2-back (i.e. the same letter as the one that appeared 2 letters ago.),x,space,,,,,,,,,0,10,10,10,0,6,6,6,,,,,,,,,,,,,,,,,,,,,,,,,,,,,,,,,,,,,,,,,,,,,,,,,,,,,,,,,,,,,,,,,,,,,1.4254,908.3701832999996,None,space,1,908.3701832999996,None,1.3161216000007698,P040,FENCOG,1,Pre,2022_Apr_28_1113,N-Back (New Version 2021),2021.1.4,120.0347620667229,
,,,,Conditions/Version_1/twoback(3)_v1.xlsx,New rule: Press 'space' when you see 2-back (i.e. the same letter as the one that appeared 2 letters ago.),c,None,,,,,,,,,0,10,10,10,0,7,7,7,,,,,,,,,,,,,,,,,,,,,,,,,,,,,,,,,,,,,,,,,,,,,,,,,,,,,,,,,,,,,,,,,,,,,1.2766,911.6598386999995,None,None,1,911.6598386999995,None,,P040,FENCOG,1,Pre,2022_Apr_28_1113,N-Back (New Version 2021),2021.1.4,120.0347620667229,
,,,,Conditions/Version_1/twoback(3)_v1.xlsx,New rule: Press 'space' when you see 2-back (i.e. the same letter as the one that appeared 2 letters ago.),i,None,,,,,,,,,0,10,10,10,0,8,8,8,,,,,,,,,,,,,,,,,,,,,,,,,,,,,,,,,,,,,,,,,,,,,,,,,,,,,,,,,,,,,,,,,,,,,1.5122,915.1776424999998,None,None,1,915.1776424999998,None,,P040,FENCOG,1,Pre,2022_Apr_28_1113,N-Back (New Version 2021),2021.1.4,120.0347620667229,
,,,,Conditions/Version_1/twoback(3)_v1.xlsx,New rule: Press 'space' when you see 2-back (i.e. the same letter as the one that appeared 2 letters ago.),C,space,,,,,,,,,0,10,10,10,0,9,9,9,,,,,,,,,,,,,,,,,,,,,,,,,,,,,,,,,,,,,,,,,,,,,,,,,,,,,,,,,,,,,,,,,,,,,1.4998,918.6829286000002,None,space,1,918.6829286000002,None,0.7312378000005992,P040,FENCOG,1,Pre,2022_Apr_28_1113,N-Back (New Version 2021),2021.1.4,120.0347620667229,
,,,,Conditions/Version_1/twoback(3)_v1.xlsx,New rule: Press 'space' when you see 2-back (i.e. the same letter as the one that appeared 2 letters ago.),,,,,,,,,,,0,10,10,10,,,,,,,,,,,,,,,,,,,,,,,,,,,,,,,,,,,,,,,,,,,,,,,,,,,,,,,,,,,,,,,,,,,,,,,,,,,,,,,,,P040,FENCOG,1,Pre,2022_Apr_28_1113,N-Back (New Version 2021),2021.1.4,120.0347620667229,
,,,,Conditions/Version_1/oneback(3)_v1.xlsx,New rule: Press 'space' when you see 1-back (i.e. the same letter as the one that appeared 1 letter ago.),o,None,,,,,,,,,0,11,11,11,0,0,0,0,,,,,,,,,,,,,,,,,,,,,,,,,,,,,,,,,,,,,,,,,,,,,,,,,,,,,,,,,,,920.7039078999996,None,923.6920611999994,None,space,3.809620399999403,923.6920611999994,None,920.7039078999996,None,1.506,929.0467019999996,None,None,1,929.0467019999996,None,,P040,FENCOG,1,Pre,2022_Apr_28_1113,N-Back (New Version 2021),2021.1.4,120.0347620667229,
,,,,Conditions/Version_1/oneback(3)_v1.xlsx,New rule: Press 'space' when you see 1-back (i.e. the same letter as the one that appeared 1 letter ago.),O,space,,,,,,,,,0,11,11,11,0,1,1,1,,,,,,,,,,,,,,,,,,,,,,,,,,,,,,,,,,,,,,,,,,,,,,,,,,,,,,,,,,,,,,,,,,,,,1.1402,932.1889316999996,None,space,1,932.1889316999996,None,0.7368980999999621,P040,FENCOG,1,Pre,2022_Apr_28_1113,N-Back (New Version 2021),2021.1.4,120.0347620667229,
,,,,Conditions/Version_1/oneback(3)_v1.xlsx,New rule: Press 'space' when you see 1-back (i.e. the same letter as the one that appeared 1 letter ago.),h,None,,,,,,,,,0,11,11,11,0,2,2,2,,,,,,,,,,,,,,,,,,,,,,,,,,,,,,,,,,,,,,,,,,,,,,,,,,,,,,,,,,,,,,,,,,,,,1.6486,935.8442716999998,None,None,1,935.8442716999998,None,,P040,FENCOG,1,Pre,2022_Apr_28_1113,N-Back (New Version 2021),2021.1.4,120.0347620667229,
,,,,Conditions/Version_1/oneback(3)_v1.xlsx,New rule: Press 'space' when you see 1-back (i.e. the same letter as the one that appeared 1 letter ago.),g,None,,,,,,,,,0,11,11,11,0,3,3,3,,,,,,,,,,,,,,,,,,,,,,,,,,,,,,,,,,,,,,,,,,,,,,,,,,,,,,,,,,,,,,,,,,,,,1.5308,939.3793232999997,None,None,1,939.3793232999997,None,,P040,FENCOG,1,Pre,2022_Apr_28_1113,N-Back (New Version 2021),2021.1.4,120.0347620667229,
,,,,Conditions/Version_1/oneback(3)_v1.xlsx,New rule: Press 'space' when you see 1-back (i.e. the same letter as the one that appeared 1 letter ago.),n,None,,,,,,,,,0,11,11,11,0,4,4,4,,,,,,,,,,,,,,,,,,,,,,,,,,,,,,,,,,,,,,,,,,,,,,,,,,,,,,,,,,,,,,,,,,,,,1.6548,943.0446228000001,None,None,1,943.0446228000001,None,,P040,FENCOG,1,Pre,2022_Apr_28_1113,N-Back (New Version 2021),2021.1.4,120.0347620667229,
,,,,Conditions/Version_1/oneback(3)_v1.xlsx,New rule: Press 'space' when you see 1-back (i.e. the same letter as the one that appeared 1 letter ago.),z,None,,,,,,,,,0,11,11,11,0,5,5,5,,,,,,,,,,,,,,,,,,,,,,,,,,,,,,,,,,,,,,,,,,,,,,,,,,,,,,,,,,,,,,,,,,,,,1.5556,946.6079596,None,None,1,946.6079596,None,,P040,FENCOG,1,Pre,2022_Apr_28_1113,N-Back (New Version 2021),2021.1.4,120.0347620667229,
,,,,Conditions/Version_1/oneback(3)_v1.xlsx,New rule: Press 'space' when you see 1-back (i.e. the same letter as the one that appeared 1 letter ago.),X,None,,,,,,,,,0,11,11,11,0,6,6,6,,,,,,,,,,,,,,,,,,,,,,,,,,,,,,,,,,,,,,,,,,,,,,,,,,,,,,,,,,,,,,,,,,,,,1.1154,949.7247933999997,None,None,1,949.7247933999997,None,,P040,FENCOG,1,Pre,2022_Apr_28_1113,N-Back (New Version 2021),2021.1.4,120.0347620667229,
,,,,Conditions/Version_1/oneback(3)_v1.xlsx,New rule: Press 'space' when you see 1-back (i.e. the same letter as the one that appeared 1 letter ago.),r,None,,,,,,,,,0,11,11,11,0,7,7,7,,,,,,,,,,,,,,,,,,,,,,,,,,,,,,,,,,,,,,,,,,,,,,,,,,,,,,,,,,,,,,,,,,,,,1.8966,953.630647,None,None,1,953.630647,None,,P040,FENCOG,1,Pre,2022_Apr_28_1113,N-Back (New Version 2021),2021.1.4,120.0347620667229,
,,,,Conditions/Version_1/oneback(3)_v1.xlsx,New rule: Press 'space' when you see 1-back (i.e. the same letter as the one that appeared 1 letter ago.),r,space,,,,,,,,,0,11,11,11,0,8,8,8,,,,,,,,,,,,,,,,,,,,,,,,,,,,,,,,,,,,,,,,,,,,,,,,,,,,,,,,,,,,,,,,,,,,,1.4998,957.1297542000002,None,space,1,957.1297542000002,None,0.3722530999993978,P040,FENCOG,1,Pre,2022_Apr_28_1113,N-Back (New Version 2021),2021.1.4,120.0347620667229,
,,,,Conditions/Version_1/oneback(3)_v1.xlsx,New rule: Press 'space' when you see 1-back (i.e. the same letter as the one that appeared 1 letter ago.),P,None,,,,,,,,,0,11,11,11,0,9,9,9,,,,,,,,,,,,,,,,,,,,,,,,,,,,,,,,,,,,,,,,,,,,,,,,,,,,,,,,,,,,,,,,,,,,,1.6176,960.7537399000003,None,None,1,960.7537399000003,None,,P040,FENCOG,1,Pre,2022_Apr_28_1113,N-Back (New Version 2021),2021.1.4,120.0347620667229,
,,,,Conditions/Version_1/oneback(3)_v1.xlsx,New rule: Press 'space' when you see 1-back (i.e. the same letter as the one that appeared 1 letter ago.),,,,,,,,,,,0,11,11,11,,,,,,,,,,,,,,,,,,,,,,,,,,,,,,,,,,,,,,,,,,,,,,,,,,,,,,,,,,,,,,,,,,,,,,,,,,,,,,,,,P040,FENCOG,1,Pre,2022_Apr_28_1113,N-Back (New Version 2021),2021.1.4,120.0347620667229,
,,,,Conditions/Version_1/twoback(4)_v1.xlsx,New rule: Press 'space' when you see 2-back (i.e. the same letter as the one that appeared 2 letters ago.),r,None,,,,,,,,,0,12,12,12,0,0,0,0,,,,,,,,,,,,,,,,,,,,,,,,,,,,,,,,,,,,,,,,,,,,,,,,,,,,,,,,,,,962.7747288999999,None,965.7659318999995,None,space,23.10360490000039,965.7659318999995,None,962.7747288999999,None,1.5866,990.5201154999995,None,None,1,990.5201154999995,None,,P040,FENCOG,1,Pre,2022_Apr_28_1113,N-Back (New Version 2021),2021.1.4,120.0347620667229,
,,,,Conditions/Version_1/twoback(4)_v1.xlsx,New rule: Press 'space' when you see 2-back (i.e. the same letter as the one that appeared 2 letters ago.),T,None,,,,,,,,,0,12,12,12,0,1,1,1,,,,,,,,,,,,,,,,,,,,,,,,,,,,,,,,,,,,,,,,,,,,,,,,,,,,,,,,,,,,,,,,,,,,,1.1774,993.7023294,None,None,1,993.7023294,None,,P040,FENCOG,1,Pre,2022_Apr_28_1113,N-Back (New Version 2021),2021.1.4,120.0347620667229,
,,,,Conditions/Version_1/twoback(4)_v1.xlsx,New rule: Press 'space' when you see 2-back (i.e. the same letter as the one that appeared 2 letters ago.),o,None,,,,,,,,,0,12,12,12,0,2,2,2,,,,,,,,,,,,,,,,,,,,,,,,,,,,,,,,,,,,,,,,,,,,,,,,,,,,,,,,,,,,,,,,,,,,,1.9152,997.6197055000002,None,None,1,997.6197055000002,None,,P040,FENCOG,1,Pre,2022_Apr_28_1113,N-Back (New Version 2021),2021.1.4,120.0347620667229,
,,,,Conditions/Version_1/twoback(4)_v1.xlsx,New rule: Press 'space' when you see 2-back (i.e. the same letter as the one that appeared 2 letters ago.),p,None,,,,,,,,,0,12,12,12,0,3,3,3,,,,,,,,,,,,,,,,,,,,,,,,,,,,,,,,,,,,,,,,,,,,,,,,,,,,,,,,,,,,,,,,,,,,,1.9214,1001.5509428999994,None,None,1,1001.5509428999994,None,,P040,FENCOG,1,Pre,2022_Apr_28_1113,N-Back (New Version 2021),2021.1.4,120.0347620667229,
,,,,Conditions/Version_1/twoback(4)_v1.xlsx,New rule: Press 'space' when you see 2-back (i.e. the same letter as the one that appeared 2 letters ago.),p,None,,,,,,,,,0,12,12,12,0,4,4,4,,,,,,,,,,,,,,,,,,,,,,,,,,,,,,,,,,,,,,,,,,,,,,,,,,,,,,,,,,,,,,,,,,,,,1.7912,1005.3490357000001,None,None,1,1005.3490357000001,None,,P040,FENCOG,1,Pre,2022_Apr_28_1113,N-Back (New Version 2021),2021.1.4,120.0347620667229,
,,,,Conditions/Version_1/twoback(4)_v1.xlsx,New rule: Press 'space' when you see 2-back (i.e. the same letter as the one that appeared 2 letters ago.),y,None,,,,,,,,,0,12,12,12,0,5,5,5,,,,,,,,,,,,,,,,,,,,,,,,,,,,,,,,,,,,,,,,,,,,,,,,,,,,,,,,,,,,,,,,,,,,,1.4812,1008.8335428,None,None,1,1008.8335428,None,,P040,FENCOG,1,Pre,2022_Apr_28_1113,N-Back (New Version 2021),2021.1.4,120.0347620667229,
,,,,Conditions/Version_1/twoback(4)_v1.xlsx,New rule: Press 'space' when you see 2-back (i.e. the same letter as the one that appeared 2 letters ago.),P,space,,,,,,,,,0,12,12,12,0,6,6,6,,,,,,,,,,,,,,,,,,,,,,,,,,,,,,,,,,,,,,,,,,,,,,,,,,,,,,,,,,,,,,,,,,,,,1.1216,1011.9666902999998,None,space,1,1011.9666902999998,None,0.5190334000008079,P040,FENCOG,1,Pre,2022_Apr_28_1113,N-Back (New Version 2021),2021.1.4,120.0347620667229,
,,,,Conditions/Version_1/twoback(4)_v1.xlsx,New rule: Press 'space' when you see 2-back (i.e. the same letter as the one that appeared 2 letters ago.),y,None,,,,,,,,,0,12,12,12,0,7,7,7,,,,,,,,,,,,,,,,,,,,,,,,,,,,,,,,,,,,,,,,,,,,,,,,,,,,,,,,,,,,,,,,,,,,,1.3262,1015.3043005999998,None,space,0,1015.3043005999998,None,0.3813860999998724,P040,FENCOG,1,Pre,2022_Apr_28_1113,N-Back (New Version 2021),2021.1.4,120.0347620667229,
,,,,Conditions/Version_1/twoback(4)_v1.xlsx,New rule: Press 'space' when you see 2-back (i.e. the same letter as the one that appeared 2 letters ago.),y,space,,,,,,,,,0,12,12,12,0,8,8,8,,,,,,,,,,,,,,,,,,,,,,,,,,,,,,,,,,,,,,,,,,,,,,,,,,,,,,,,,,,,,,,,,,,,,1.8718,1019.1780847,None,None,0,1019.1780847,None,,P040,FENCOG,1,Pre,2022_Apr_28_1113,N-Back (New Version 2021),2021.1.4,120.0347620667229,
,,,,Conditions/Version_1/twoback(4)_v1.xlsx,New rule: Press 'space' when you see 2-back (i.e. the same letter as the one that appeared 2 letters ago.),,,,,,,,,,,0,12,12,12,,,,,,,,,,,,,,,,,,,,,,,,,,,,,,,,,,,,,,,,,,,,,,,,,,,,,,,,,,,,,,,,,,,,,,,,,,,,,,,,,P040,FENCOG,1,Pre,2022_Apr_28_1113,N-Back (New Version 2021),2021.1.4,120.0347620667229,
,,,,Conditions/Version_1/zeroback(4)_v1.xlsx,New rule: Press 'space' when you see the letter 'x' or 'X'.,o,None,,,,,,,,,0,13,13,13,0,0,0,0,,,,,,,,,,,,,,,,,,,,,,,,,,,,,,,,,,,,,,,,,,,,,,,,,,,,,,,,,,,1021.1973608999997,None,1024.1874464000002,None,space,1.00203429999965,1024.1874464000002,None,1021.1973608999997,None,1.816,1027.0589830999998,None,None,1,1027.0589830999998,None,,P040,FENCOG,1,Pre,2022_Apr_28_1113,N-Back (New Version 2021),2021.1.4,120.0347620667229,
,,,,Conditions/Version_1/zeroback(4)_v1.xlsx,New rule: Press 'space' when you see the letter 'x' or 'X'.,X,space,,,,,,,,,0,13,13,13,0,1,1,1,,,,,,,,,,,,,,,,,,,,,,,,,,,,,,,,,,,,,,,,,,,,,,,,,,,,,,,,,,,,,,,,,,,,,1.568,1030.6332098000003,None,space,1,1030.6332098000003,None,0.412435799999912,P040,FENCOG,1,Pre,2022_Apr_28_1113,N-Back (New Version 2021),2021.1.4,120.0347620667229,
,,,,Conditions/Version_1/zeroback(4)_v1.xlsx,New rule: Press 'space' when you see the letter 'x' or 'X'.,p,None,,,,,,,,,0,13,13,13,0,2,2,2,,,,,,,,,,,,,,,,,,,,,,,,,,,,,,,,,,,,,,,,,,,,,,,,,,,,,,,,,,,,,,,,,,,,,1.1774,1033.8160487999994,None,None,1,1033.8160487999994,None,,P040,FENCOG,1,Pre,2022_Apr_28_1113,N-Back (New Version 2021),2021.1.4,120.0347620667229,
,,,,Conditions/Version_1/zeroback(4)_v1.xlsx,New rule: Press 'space' when you see the letter 'x' or 'X'.,m,None,,,,,,,,,0,13,13,13,0,3,3,3,,,,,,,,,,,,,,,,,,,,,,,,,,,,,,,,,,,,,,,,,,,,,,,,,,,,,,,,,,,,,,,,,,,,,1.1836,1037.0062424999996,None,None,1,1037.0062424999996,None,,P040,FENCOG,1,Pre,2022_Apr_28_1113,N-Back (New Version 2021),2021.1.4,120.0347620667229,
,,,,Conditions/Version_1/zeroback(4)_v1.xlsx,New rule: Press 'space' when you see the letter 'x' or 'X'.,n,None,,,,,,,,,0,13,13,13,0,4,4,4,,,,,,,,,,,,,,,,,,,,,,,,,,,,,,,,,,,,,,,,,,,,,,,,,,,,,,,,,,,,,,,,,,,,,1.2332,1040.2384817000002,None,None,1,1040.2384817000002,None,,P040,FENCOG,1,Pre,2022_Apr_28_1113,N-Back (New Version 2021),2021.1.4,120.0347620667229,
,,,,Conditions/Version_1/zeroback(4)_v1.xlsx,New rule: Press 'space' when you see the letter 'x' or 'X'.,m,None,,,,,,,,,0,13,13,13,0,5,5,5,,,,,,,,,,,,,,,,,,,,,,,,,,,,,,,,,,,,,,,,,,,,,,,,,,,,,,,,,,,,,,,,,,,,,1.8656,1044.1136711999998,None,None,1,1044.1136711999998,None,,P040,FENCOG,1,Pre,2022_Apr_28_1113,N-Back (New Version 2021),2021.1.4,120.0347620667229,
,,,,Conditions/Version_1/zeroback(4)_v1.xlsx,New rule: Press 'space' when you see the letter 'x' or 'X'.,C,None,,,,,,,,,0,13,13,13,0,6,6,6,,,,,,,,,,,,,,,,,,,,,,,,,,,,,,,,,,,,,,,,,,,,,,,,,,,,,,,,,,,,,,,,,,,,,1.5184,1047.6444265999999,None,None,1,1047.6444265999999,None,,P040,FENCOG,1,Pre,2022_Apr_28_1113,N-Back (New Version 2021),2021.1.4,120.0347620667229,
,,,,Conditions/Version_1/zeroback(4)_v1.xlsx,New rule: Press 'space' when you see the letter 'x' or 'X'.,m,None,,,,,,,,,0,13,13,13,0,7,7,7,,,,,,,,,,,,,,,,,,,,,,,,,,,,,,,,,,,,,,,,,,,,,,,,,,,,,,,,,,,,,,,,,,,,,1.2518,1050.9022215999994,None,None,1,1050.9022215999994,None,,P040,FENCOG,1,Pre,2022_Apr_28_1113,N-Back (New Version 2021),2021.1.4,120.0347620667229,
,,,,Conditions/Version_1/zeroback(4)_v1.xlsx,New rule: Press 'space' when you see the letter 'x' or 'X'.,p,None,,,,,,,,,0,13,13,13,0,8,8,8,,,,,,,,,,,,,,,,,,,,,,,,,,,,,,,,,,,,,,,,,,,,,,,,,,,,,,,,,,,,,,,,,,,,,1.7788,1054.6854394000002,None,None,1,1054.6854394000002,None,,P040,FENCOG,1,Pre,2022_Apr_28_1113,N-Back (New Version 2021),2021.1.4,120.0347620667229,
,,,,Conditions/Version_1/zeroback(4)_v1.xlsx,New rule: Press 'space' when you see the letter 'x' or 'X'.,X,space,,,,,,,,,0,13,13,13,0,9,9,9,,,,,,,,,,,,,,,,,,,,,,,,,,,,,,,,,,,,,,,,,,,,,,,,,,,,,,,,,,,,,,,,,,,,,1.0534,1057.7463767,None,space,1,1057.7463767,None,0.4352253000006385,P040,FENCOG,1,Pre,2022_Apr_28_1113,N-Back (New Version 2021),2021.1.4,120.0347620667229,
,,,,Conditions/Version_1/zeroback(4)_v1.xlsx,New rule: Press 'space' when you see the letter 'x' or 'X'.,,,,,,,,,,,0,13,13,13,,,,,,,,,,,,,,,,,,,,,,,,,,,,,,,,,,,,,,,,,,,,,,,,,,,,,,,,,,,,,,,,,,,,,,,,,,,,,,,,,P040,FENCOG,1,Pre,2022_Apr_28_1113,N-Back (New Version 2021),2021.1.4,120.0347620667229,
,,,,Conditions/Version_1/oneback(4)_v1.xlsx,New rule: Press 'space' when you see 1-back (i.e. the same letter as the one that appeared 1 letter ago.),w,None,,,,,,,,,0,14,14,14,0,0,0,0,,,,,,,,,,,,,,,,,,,,,,,,,,,,,,,,,,,,,,,,,,,,,,,,,,,,,,,,,,,1059.7714750999994,None,1062.7588317999998,None,space,0.4146725000000515,1062.7588317999998,None,1059.7714750999994,None,1.7168,1064.9253737,None,None,1,1064.9253737,None,,P040,FENCOG,1,Pre,2022_Apr_28_1113,N-Back (New Version 2021),2021.1.4,120.0347620667229,
,,,,Conditions/Version_1/oneback(4)_v1.xlsx,New rule: Press 'space' when you see 1-back (i.e. the same letter as the one that appeared 1 letter ago.),q,None,,,,,,,,,0,14,14,14,0,1,1,1,,,,,,,,,,,,,,,,,,,,,,,,,,,,,,,,,,,,,,,,,,,,,,,,,,,,,,,,,,,,,,,,,,,,,1.103,1068.0385895,None,None,1,1068.0385895,None,,P040,FENCOG,1,Pre,2022_Apr_28_1113,N-Back (New Version 2021),2021.1.4,120.0347620667229,
,,,,Conditions/Version_1/oneback(4)_v1.xlsx,New rule: Press 'space' when you see 1-back (i.e. the same letter as the one that appeared 1 letter ago.),i,None,,,,,,,,,0,14,14,14,0,2,2,2,,,,,,,,,,,,,,,,,,,,,,,,,,,,,,,,,,,,,,,,,,,,,,,,,,,,,,,,,,,,,,,,,,,,,1.6672,1071.7145853000002,None,None,1,1071.7145853000002,None,,P040,FENCOG,1,Pre,2022_Apr_28_1113,N-Back (New Version 2021),2021.1.4,120.0347620667229,
,,,,Conditions/Version_1/oneback(4)_v1.xlsx,New rule: Press 'space' when you see 1-back (i.e. the same letter as the one that appeared 1 letter ago.),t,None,,,,,,,,,0,14,14,14,0,3,3,3,,,,,,,,,,,,,,,,,,,,,,,,,,,,,,,,,,,,,,,,,,,,,,,,,,,,,,,,,,,,,,,,,,,,,1.8222,1075.5459707,None,None,1,1075.5459707,None,,P040,FENCOG,1,Pre,2022_Apr_28_1113,N-Back (New Version 2021),2021.1.4,120.0347620667229,
,,,,Conditions/Version_1/oneback(4)_v1.xlsx,New rule: Press 'space' when you see 1-back (i.e. the same letter as the one that appeared 1 letter ago.),v,None,,,,,,,,,0,14,14,14,0,4,4,4,,,,,,,,,,,,,,,,,,,,,,,,,,,,,,,,,,,,,,,,,,,,,,,,,,,,,,,,,,,,,,,,,,,,,1.2518,1078.8138938000002,None,None,1,1078.8138938000002,None,,P040,FENCOG,1,Pre,2022_Apr_28_1113,N-Back (New Version 2021),2021.1.4,120.0347620667229,
,,,,Conditions/Version_1/oneback(4)_v1.xlsx,New rule: Press 'space' when you see 1-back (i.e. the same letter as the one that appeared 1 letter ago.),V,space,,,,,,,,,0,14,14,14,0,5,5,5,,,,,,,,,,,,,,,,,,,,,,,,,,,,,,,,,,,,,,,,,,,,,,,,,,,,,,,,,,,,,,,,,,,,,1.6052,1082.4279498999995,None,space,1,1082.4279498999995,None,0.6895147000004727,P040,FENCOG,1,Pre,2022_Apr_28_1113,N-Back (New Version 2021),2021.1.4,120.0347620667229,
,,,,Conditions/Version_1/oneback(4)_v1.xlsx,New rule: Press 'space' when you see 1-back (i.e. the same letter as the one that appeared 1 letter ago.),v,space,,,,,,,,,0,14,14,14,0,6,6,6,,,,,,,,,,,,,,,,,,,,,,,,,,,,,,,,,,,,,,,,,,,,,,,,,,,,,,,,,,,,,,,,,,,,,1.6238,1086.059217,None,space,1,1086.059217,None,0.6582448999997723,P040,FENCOG,1,Pre,2022_Apr_28_1113,N-Back (New Version 2021),2021.1.4,120.0347620667229,
,,,,Conditions/Version_1/oneback(4)_v1.xlsx,New rule: Press 'space' when you see 1-back (i.e. the same letter as the one that appeared 1 letter ago.),p,None,,,,,,,,,0,14,14,14,0,7,7,7,,,,,,,,,,,,,,,,,,,,,,,,,,,,,,,,,,,,,,,,,,,,,,,,,,,,,,,,,,,,,,,,,,,,,1.785,1089.8572921999994,None,None,1,1089.8572921999994,None,,P040,FENCOG,1,Pre,2022_Apr_28_1113,N-Back (New Version 2021),2021.1.4,120.0347620667229,
,,,,Conditions/Version_1/oneback(4)_v1.xlsx,New rule: Press 'space' when you see 1-back (i.e. the same letter as the one that appeared 1 letter ago.),w,None,,,,,,,,,0,14,14,14,0,8,8,8,,,,,,,,,,,,,,,,,,,,,,,,,,,,,,,,,,,,,,,,,,,,,,,,,,,,,,,,,,,,,,,,,,,,,1.2332,1093.0895087,None,None,1,1093.0895087,None,,P040,FENCOG,1,Pre,2022_Apr_28_1113,N-Back (New Version 2021),2021.1.4,120.0347620667229,
,,,,Conditions/Version_1/oneback(4)_v1.xlsx,New rule: Press 'space' when you see 1-back (i.e. the same letter as the one that appeared 1 letter ago.),W,space,,,,,,,,,0,14,14,14,0,9,9,9,,,,,,,,,,,,,,,,,,,,,,,,,,,,,,,,,,,,,,,,,,,,,,,,,,,,,,,,,,,,,,,,,,,,,1.3448,1096.4387803,None,space,1,1096.4387803,None,0.7428546000001006,P040,FENCOG,1,Pre,2022_Apr_28_1113,N-Back (New Version 2021),2021.1.4,120.0347620667229,
,,,,Conditions/Version_1/oneback(4)_v1.xlsx,New rule: Press 'space' when you see 1-back (i.e. the same letter as the one that appeared 1 letter ago.),,,,,,,,,,,0,14,14,14,,,,,,,,,,,,,,,,,,,,,,,,,,,,,,,,,,,,,,,,,,,,,,,,,,,,,,,,,,,,,,,,,,,,,,,,,,,,,,,,,P040,FENCOG,1,Pre,2022_Apr_28_1113,N-Back (New Version 2021),2021.1.4,120.0347620667229,
,,,,Conditions/Version_1/threeback(4)_v1.xlsx,New rule: Press 'space' when you see 3-back (i.e. the same letter as the one that appeared 3 letters ago.),A,None,,,,,,,,,0,15,15,15,0,0,0,0,,,,,,,,,,,,,,,,,,,,,,,,,,,,,,,,,,,,,,,,,,,,,,,,,,,,,,,,,,,1098.4608063999995,None,1101.4478,None,space,5.565744099999392,1101.4478,None,1098.4608063999995,None,1.4378,1108.4895144000002,None,None,1,1108.4895144000002,None,,P040,FENCOG,1,Pre,2022_Apr_28_1113,N-Back (New Version 2021),2021.1.4,120.0347620667229,
,,,,Conditions/Version_1/threeback(4)_v1.xlsx,New rule: Press 'space' when you see 3-back (i.e. the same letter as the one that appeared 3 letters ago.),n,None,,,,,,,,,0,15,15,15,0,1,1,1,,,,,,,,,,,,,,,,,,,,,,,,,,,,,,,,,,,,,,,,,,,,,,,,,,,,,,,,,,,,,,,,,,,,,1.2146,1111.7094975999998,None,None,1,1111.7094975999998,None,,P040,FENCOG,1,Pre,2022_Apr_28_1113,N-Back (New Version 2021),2021.1.4,120.0347620667229,
,,,,Conditions/Version_1/threeback(4)_v1.xlsx,New rule: Press 'space' when you see 3-back (i.e. the same letter as the one that appeared 3 letters ago.),g,None,,,,,,,,,0,15,15,15,0,2,2,2,,,,,,,,,,,,,,,,,,,,,,,,,,,,,,,,,,,,,,,,,,,,,,,,,,,,,,,,,,,,,,,,,,,,,1.6734,1115.3829110999995,None,None,1,1115.3829110999995,None,,P040,FENCOG,1,Pre,2022_Apr_28_1113,N-Back (New Version 2021),2021.1.4,120.0347620667229,
,,,,Conditions/Version_1/threeback(4)_v1.xlsx,New rule: Press 'space' when you see 3-back (i.e. the same letter as the one that appeared 3 letters ago.),A,space,,,,,,,,,0,15,15,15,0,3,3,3,,,,,,,,,,,,,,,,,,,,,,,,,,,,,,,,,,,,,,,,,,,,,,,,,,,,,,,,,,,,,,,,,,,,,1.785,1119.1735870000002,None,space,1,1119.1735870000002,None,0.46390470000005735,P040,FENCOG,1,Pre,2022_Apr_28_1113,N-Back (New Version 2021),2021.1.4,120.0347620667229,
,,,,Conditions/Version_1/threeback(4)_v1.xlsx,New rule: Press 'space' when you see 3-back (i.e. the same letter as the one that appeared 3 letters ago.),p,None,,,,,,,,,0,15,15,15,0,4,4,4,,,,,,,,,,,,,,,,,,,,,,,,,,,,,,,,,,,,,,,,,,,,,,,,,,,,,,,,,,,,,,,,,,,,,1.072,1122.2479769000001,None,None,1,1122.2479769000001,None,,P040,FENCOG,1,Pre,2022_Apr_28_1113,N-Back (New Version 2021),2021.1.4,120.0347620667229,
,,,,Conditions/Version_1/threeback(4)_v1.xlsx,New rule: Press 'space' when you see 3-back (i.e. the same letter as the one that appeared 3 letters ago.),O,None,,,,,,,,,0,15,15,15,0,5,5,5,,,,,,,,,,,,,,,,,,,,,,,,,,,,,,,,,,,,,,,,,,,,,,,,,,,,,,,,,,,,,,,,,,,,,1.2518,1125.5052951999996,None,None,1,1125.5052951999996,None,,P040,FENCOG,1,Pre,2022_Apr_28_1113,N-Back (New Version 2021),2021.1.4,120.0347620667229,
,,,,Conditions/Version_1/threeback(4)_v1.xlsx,New rule: Press 'space' when you see 3-back (i.e. the same letter as the one that appeared 3 letters ago.),a,space,,,,,,,,,0,15,15,15,0,6,6,6,,,,,,,,,,,,,,,,,,,,,,,,,,,,,,,,,,,,,,,,,,,,,,,,,,,,,,,,,,,,,,,,,,,,,1.4874,1128.9955381999998,None,space,1,1128.9955381999998,None,0.5938843999992969,P040,FENCOG,1,Pre,2022_Apr_28_1113,N-Back (New Version 2021),2021.1.4,120.0347620667229,
,,,,Conditions/Version_1/threeback(4)_v1.xlsx,New rule: Press 'space' when you see 3-back (i.e. the same letter as the one that appeared 3 letters ago.),p,space,,,,,,,,,0,15,15,15,0,7,7,7,,,,,,,,,,,,,,,,,,,,,,,,,,,,,,,,,,,,,,,,,,,,,,,,,,,,,,,,,,,,,,,,,,,,,1.661,1132.6751231999997,None,space,1,1132.6751231999997,None,0.8901882999998634,P040,FENCOG,1,Pre,2022_Apr_28_1113,N-Back (New Version 2021),2021.1.4,120.0347620667229,
,,,,Conditions/Version_1/threeback(4)_v1.xlsx,New rule: Press 'space' when you see 3-back (i.e. the same letter as the one that appeared 3 letters ago.),x,None,,,,,,,,,0,15,15,15,0,8,8,8,,,,,,,,,,,,,,,,,,,,,,,,,,,,,,,,,,,,,,,,,,,,,,,,,,,,,,,,,,,,,,,,,,,,,1.7788,1136.4706805999995,None,None,1,1136.4706805999995,None,,P040,FENCOG,1,Pre,2022_Apr_28_1113,N-Back (New Version 2021),2021.1.4,120.0347620667229,
,,,,Conditions/Version_1/threeback(4)_v1.xlsx,New rule: Press 'space' when you see 3-back (i.e. the same letter as the one that appeared 3 letters ago.),X,None,,,,,,,,,0,15,15,15,0,9,9,9,,,,,,,,,,,,,,,,,,,,,,,,,,,,,,,,,,,,,,,,,,,,,,,,,,,,,,,,,,,,,,,,,,,,,1.9834,1140.4587751,None,None,1,1140.4587751,None,,P040,FENCOG,1,Pre,2022_Apr_28_1113,N-Back (New Version 2021),2021.1.4,120.0347620667229,
,,,,Conditions/Version_1/threeback(4)_v1.xlsx,New rule: Press 'space' when you see 3-back (i.e. the same letter as the one that appeared 3 letters ago.),,,,,,,,,,,0,15,15,15,,,,,,,,,,,,,,,,,,,,,,,,,,,,,,,,,,,,,,,,,,,,,,,,,,,,,,,,,,,,,,,,,,,,,,,,,,,,,,,,,P040,FENCOG,1,Pre,2022_Apr_28_1113,N-Back (New Version 2021),2021.1.4,120.0347620667229,
