CondFileP,InstructionsP,LettersDisplayedP,CorrectnessP,CondFile,Instructions,LettersDisplayed,Correctness,practicetrials.thisRepN,practicetrials.thisTrialN,practicetrials.thisN,practicetrials.thisIndex,InnerLoopPractice.thisRepN,InnerLoopPractice.thisTrialN,InnerLoopPractice.thisN,InnerLoopPractice.thisIndex,trials.thisRepN,trials.thisTrialN,trials.thisN,trials.thisIndex,InnerLoop.thisRepN,InnerLoop.thisTrialN,InnerLoop.thisN,InnerLoop.thisIndex,TaskVersionText.started,TaskVersionText.stopped,InstrKey1.keys,InstrKey1.rt,InstrKey1.started,InstrKey1.stopped,text.started,text.stopped,key_resp_4.keys,key_resp_4.rt,key_resp_4.started,key_resp_4.stopped,text_2.started,text_2.stopped,key_resp_3.keys,key_resp_3.rt,key_resp_3.started,key_resp_3.stopped,text_3.started,text_3.stopped,key_resp_2.keys,key_resp_2.rt,key_resp_2.started,key_resp_2.stopped,PractIn1.started,PractIn1.stopped,PractIn2.started,PractIn2.stopped,PractInstructionPass.keys,PractInstructionPass.rt,PractInstructionPass.started,PractInstructionPass.stopped,PractBlock1.started,PractBlock1.stopped,ISIjitterPractice,ISI_Pract_Fixation.started,ISI_Pract_Fixation.stopped,N_backP.started,N_backP.stopped,KeyPractice.keys,KeyPractice.corr,KeyPractice.rt,KeyPractice.started,KeyPractice.stopped,text_4.started,text_4.stopped,TransitionText.started,TransitionText.stopped,key_resp_6.keys,key_resp_6.rt,key_resp_6.started,key_resp_6.stopped,text_5.started,text_5.stopped,key_resp_5.keys,key_resp_5.rt,key_resp_5.started,key_resp_5.stopped,MainInt1.started,MainInt1.stopped,MainInt2.started,MainInt2.stopped,InstructionPass.keys,InstructionPass.rt,InstructionPass.started,InstructionPass.stopped,Blocks1.started,Blocks1.stopped,ISIjitter,N_backD.started,N_backD.stopped,key_resp.keys,key_resp.corr,key_resp.started,key_resp.stopped,key_resp.rt,participant,Study Name,Task Version (required to run),PRE/POST,date,expName,psychopyVersion,frameRate
,,,,,,,,,,,,,,,,,,,,,,,,19.6429552,None,space,17.4390723,20.1375196,None,,,,,,,,,,,,,,,,,,,,,,,,,,,,,,,,,,,,,,,,,,,,,,,,,,,,,,,,,,,,,,,,,,,,,,,P040,fencog,2,Post,2022_May_05_1201,N-Back (New Version 2021),2021.1.4,120.010849
,,,,,,,,,,,,,,,,,,,,,,,,,,,,,,37.6132832,None,space,2.5851569,38.0991798,None,,,,,,,,,,,,,,,,,,,,,,,,,,,,,,,,,,,,,,,,,,,,,,,,,,,,,,,,,,,,,,,,,P040,fencog,2,Post,2022_May_05_1201,N-Back (New Version 2021),2021.1.4,120.010849
,,,,,,,,,,,,,,,,,,,,,,,,,,,,,,,,,,,,40.719357,None,space,1.2530163,41.2152917,None,,,,,,,,,,,,,,,,,,,,,,,,,,,,,,,,,,,,,,,,,,,,,,,,,,,,,,,,,,,P040,fencog,2,Post,2022_May_05_1201,N-Back (New Version 2021),2021.1.4,120.010849
,,,,,,,,,,,,,,,,,,,,,,,,,,,,,,,,,,,,,,,,,,42.4987042,None,space,1.3191045,42.9891833,None,,,,,,,,,,,,,,,,,,,,,,,,,,,,,,,,,,,,,,,,,,,,,,,,,,,,,P040,fencog,2,Post,2022_May_05_1201,N-Back (New Version 2021),2021.1.4,120.010849
Conditions/Version_2Pr/zeroback(1)_v2.xlsx,Rule: Press 'space' when you see the letter 'x' or 'X'.,x,space,,,,,0,0,0,0,0,0,0,0,,,,,,,,,,,,,,,,,,,,,,,,,,,,,,,,,45.6783431,None,48.6629638,None,space,0.925252,48.6629638,None,45.6783431,None,1.115,49.6176652,None,50.7386094,None,space,1,0.3856557,50.7386094,None,51.1389588,None,,,,,,,,,,,,,,,,,,,,,,,,,,,,,,,P040,fencog,2,Post,2022_May_05_1201,N-Back (New Version 2021),2021.1.4,120.010849
Conditions/Version_2Pr/zeroback(1)_v2.xlsx,Rule: Press 'space' when you see the letter 'x' or 'X'.,R,None,,,,,0,0,0,0,0,1,1,1,,,,,,,,,,,,,,,,,,,,,,,,,,,,,,,,,,,,,,,,,,,1.765,52.6438027,None,54.4110685,None,None,1,,54.4110685,None,56.4177232,None,,,,,,,,,,,,,,,,,,,,,,,,,,,,,,,P040,fencog,2,Post,2022_May_05_1201,N-Back (New Version 2021),2021.1.4,120.010849
Conditions/Version_2Pr/zeroback(1)_v2.xlsx,Rule: Press 'space' when you see the letter 'x' or 'X'.,p,None,,,,,0,0,0,0,0,2,2,2,,,,,,,,,,,,,,,,,,,,,,,,,,,,,,,,,,,,,,,,,,,1.89,57.9174644,None,59.8090995,None,None,1,,59.8090995,None,61.8080594,None,,,,,,,,,,,,,,,,,,,,,,,,,,,,,,,P040,fencog,2,Post,2022_May_05_1201,N-Back (New Version 2021),2021.1.4,120.010849
Conditions/Version_2Pr/zeroback(1)_v2.xlsx,Rule: Press 'space' when you see the letter 'x' or 'X'.,O,None,,,,,0,0,0,0,0,3,3,3,,,,,,,,,,,,,,,,,,,,,,,,,,,,,,,,,,,,,,,,,,,1.665,63.3088373,None,64.9737189,None,None,1,,64.9737189,None,66.9781443,None,,,,,,,,,,,,,,,,,,,,,,,,,,,,,,,P040,fencog,2,Post,2022_May_05_1201,N-Back (New Version 2021),2021.1.4,120.010849
Conditions/Version_2Pr/zeroback(1)_v2.xlsx,Rule: Press 'space' when you see the letter 'x' or 'X'.,i,None,,,,,0,0,0,0,0,4,4,4,,,,,,,,,,,,,,,,,,,,,,,,,,,,,,,,,,,,,,,,,,,1.94,68.4811727,None,70.4265399,None,None,1,,70.4265399,None,72.4280778,None,,,,,,,,,,,,,,,,,,,,,,,,,,,,,,,P040,fencog,2,Post,2022_May_05_1201,N-Back (New Version 2021),2021.1.4,120.010849
Conditions/Version_2Pr/zeroback(1)_v2.xlsx,Rule: Press 'space' when you see the letter 'x' or 'X'.,U,None,,,,,0,0,0,0,0,5,5,5,,,,,,,,,,,,,,,,,,,,,,,,,,,,,,,,,,,,,,,,,,,1.415,73.9295387,None,75.3478402,None,None,1,,75.3478402,None,77.3521133,None,,,,,,,,,,,,,,,,,,,,,,,,,,,,,,,P040,fencog,2,Post,2022_May_05_1201,N-Back (New Version 2021),2021.1.4,120.010849
Conditions/Version_2Pr/zeroback(1)_v2.xlsx,Rule: Press 'space' when you see the letter 'x' or 'X'.,N,None,,,,,0,0,0,0,0,6,6,6,,,,,,,,,,,,,,,,,,,,,,,,,,,,,,,,,,,,,,,,,,,1.915,78.8531138,None,80.7718142,None,None,1,,80.7718142,None,82.776794,None,,,,,,,,,,,,,,,,,,,,,,,,,,,,,,,P040,fencog,2,Post,2022_May_05_1201,N-Back (New Version 2021),2021.1.4,120.010849
Conditions/Version_2Pr/zeroback(1)_v2.xlsx,Rule: Press 'space' when you see the letter 'x' or 'X'.,m,None,,,,,0,0,0,0,0,7,7,7,,,,,,,,,,,,,,,,,,,,,,,,,,,,,,,,,,,,,,,,,,,1.69,84.2764646,None,85.9720672,None,None,1,,85.9720672,None,87.9744467,None,,,,,,,,,,,,,,,,,,,,,,,,,,,,,,,P040,fencog,2,Post,2022_May_05_1201,N-Back (New Version 2021),2021.1.4,120.010849
Conditions/Version_2Pr/zeroback(1)_v2.xlsx,Rule: Press 'space' when you see the letter 'x' or 'X'.,x,space,,,,,0,0,0,0,0,8,8,8,,,,,,,,,,,,,,,,,,,,,,,,,,,,,,,,,,,,,,,,,,,1.515,89.4749824,None,90.9943333,None,space,1,0.3379962,90.9943333,None,91.3424416,None,,,,,,,,,,,,,,,,,,,,,,,,,,,,,,,P040,fencog,2,Post,2022_May_05_1201,N-Back (New Version 2021),2021.1.4,120.010849
Conditions/Version_2Pr/zeroback(1)_v2.xlsx,Rule: Press 'space' when you see the letter 'x' or 'X'.,X,space,,,,,0,0,0,0,0,9,9,9,,,,,,,,,,,,,,,,,,,,,,,,,,,,,,,,,,,,,,,,,,,1.14,92.848804,None,93.9901296,None,space,1,0.7661106,93.9901296,None,94.7651671,None,,,,,,,,,,,,,,,,,,,,,,,,,,,,,,,P040,fencog,2,Post,2022_May_05_1201,N-Back (New Version 2021),2021.1.4,120.010849
Conditions/Version_2Pr/zeroback(1)_v2.xlsx,Rule: Press 'space' when you see the letter 'x' or 'X'.,,,,,,,0,0,0,0,,,,,,,,,,,,,,,,,,,,,,,,,,,,,,,,,,,,,,,,,,,,,,,,,,,,,,,,,,,,,,,,,,,,,,,,,,,,,,,,,,,,,,,,,P040,fencog,2,Post,2022_May_05_1201,N-Back (New Version 2021),2021.1.4,120.010849
Conditions/Version_2Pr/oneback(1)_v2.xlsx,New rule: Press 'space' when you see 1-back (i.e. the same letter as the one that appeared 1 letter ago.),r,None,,,,,0,1,1,1,0,0,0,0,,,,,,,,,,,,,,,,,,,,,,,,,,,,,,,,,96.285736,None,99.273799,None,space,8.9625965,99.273799,None,96.285736,None,1.565,108.2605306,None,109.8274902,None,None,1,,109.8274902,None,111.8345977,None,,,,,,,,,,,,,,,,,,,,,,,,,,,,,,,P040,fencog,2,Post,2022_May_05_1201,N-Back (New Version 2021),2021.1.4,120.010849
Conditions/Version_2Pr/oneback(1)_v2.xlsx,New rule: Press 'space' when you see 1-back (i.e. the same letter as the one that appeared 1 letter ago.),t,None,,,,,0,1,1,1,0,1,1,1,,,,,,,,,,,,,,,,,,,,,,,,,,,,,,,,,,,,,,,,,,,1.89,113.3341765,None,115.2255226,None,None,1,,115.2255226,None,117.2248136,None,,,,,,,,,,,,,,,,,,,,,,,,,,,,,,,P040,fencog,2,Post,2022_May_05_1201,N-Back (New Version 2021),2021.1.4,120.010849
Conditions/Version_2Pr/oneback(1)_v2.xlsx,New rule: Press 'space' when you see 1-back (i.e. the same letter as the one that appeared 1 letter ago.),Y,None,,,,,0,1,1,1,0,2,2,2,,,,,,,,,,,,,,,,,,,,,,,,,,,,,,,,,,,,,,,,,,,1.39,118.724243,None,120.1163466,None,None,1,,120.1163466,None,122.1232216,None,,,,,,,,,,,,,,,,,,,,,,,,,,,,,,,P040,fencog,2,Post,2022_May_05_1201,N-Back (New Version 2021),2021.1.4,120.010849
Conditions/Version_2Pr/oneback(1)_v2.xlsx,New rule: Press 'space' when you see 1-back (i.e. the same letter as the one that appeared 1 letter ago.),y,space,,,,,0,1,1,1,0,3,3,3,,,,,,,,,,,,,,,,,,,,,,,,,,,,,,,,,,,,,,,,,,,1.19,123.6227729,None,124.814506,None,space,1,0.2935682,124.814506,None,125.1223783,None,,,,,,,,,,,,,,,,,,,,,,,,,,,,,,,P040,fencog,2,Post,2022_May_05_1201,N-Back (New Version 2021),2021.1.4,120.010849
Conditions/Version_2Pr/oneback(1)_v2.xlsx,New rule: Press 'space' when you see 1-back (i.e. the same letter as the one that appeared 1 letter ago.),p,None,,,,,0,1,1,1,0,4,4,4,,,,,,,,,,,,,,,,,,,,,,,,,,,,,,,,,,,,,,,,,,,1.065,126.6218614,None,127.688292,None,None,1,,127.688292,None,129.6877569,None,,,,,,,,,,,,,,,,,,,,,,,,,,,,,,,P040,fencog,2,Post,2022_May_05_1201,N-Back (New Version 2021),2021.1.4,120.010849
Conditions/Version_2Pr/oneback(1)_v2.xlsx,New rule: Press 'space' when you see 1-back (i.e. the same letter as the one that appeared 1 letter ago.),P,space,,,,,0,1,1,1,0,5,5,5,,,,,,,,,,,,,,,,,,,,,,,,,,,,,,,,,,,,,,,,,,,1.765,131.1872204,None,132.9540231,None,space,1,0.9300738,132.9540231,None,133.895552,None,,,,,,,,,,,,,,,,,,,,,,,,,,,,,,,P040,fencog,2,Post,2022_May_05_1201,N-Back (New Version 2021),2021.1.4,120.010849
Conditions/Version_2Pr/oneback(1)_v2.xlsx,New rule: Press 'space' when you see 1-back (i.e. the same letter as the one that appeared 1 letter ago.),e,None,,,,,0,1,1,1,0,6,6,6,,,,,,,,,,,,,,,,,,,,,,,,,,,,,,,,,,,,,,,,,,,1.64,135.4026538,None,137.0438943,None,None,1,,137.0438943,None,139.0432941,None,,,,,,,,,,,,,,,,,,,,,,,,,,,,,,,P040,fencog,2,Post,2022_May_05_1201,N-Back (New Version 2021),2021.1.4,120.010849
Conditions/Version_2Pr/oneback(1)_v2.xlsx,New rule: Press 'space' when you see 1-back (i.e. the same letter as the one that appeared 1 letter ago.),r,None,,,,,0,1,1,1,0,7,7,7,,,,,,,,,,,,,,,,,,,,,,,,,,,,,,,,,,,,,,,,,,,1.965,140.5427576,None,142.5088241,None,None,1,,142.5088241,None,144.5082349,None,,,,,,,,,,,,,,,,,,,,,,,,,,,,,,,P040,fencog,2,Post,2022_May_05_1201,N-Back (New Version 2021),2021.1.4,120.010849
Conditions/Version_2Pr/oneback(1)_v2.xlsx,New rule: Press 'space' when you see 1-back (i.e. the same letter as the one that appeared 1 letter ago.),R,space,,,,,0,1,1,1,0,8,8,8,,,,,,,,,,,,,,,,,,,,,,,,,,,,,,,,,,,,,,,,,,,1.815,146.0078066,None,147.824114,None,space,1,0.7879963,147.824114,None,148.6240904,None,,,,,,,,,,,,,,,,,,,,,,,,,,,,,,,P040,fencog,2,Post,2022_May_05_1201,N-Back (New Version 2021),2021.1.4,120.010849
Conditions/Version_2Pr/oneback(1)_v2.xlsx,New rule: Press 'space' when you see 1-back (i.e. the same letter as the one that appeared 1 letter ago.),p,None,,,,,0,1,1,1,0,9,9,9,,,,,,,,,,,,,,,,,,,,,,,,,,,,,,,,,,,,,,,,,,,1.315,150.1232632,None,151.4395206,None,None,1,,151.4395206,None,153.4389571,None,,,,,,,,,,,,,,,,,,,,,,,,,,,,,,,P040,fencog,2,Post,2022_May_05_1201,N-Back (New Version 2021),2021.1.4,120.010849
Conditions/Version_2Pr/oneback(1)_v2.xlsx,New rule: Press 'space' when you see 1-back (i.e. the same letter as the one that appeared 1 letter ago.),,,,,,,0,1,1,1,,,,,,,,,,,,,,,,,,,,,,,,,,,,,,,,,,,,,,,,,,,,,,,,,,,,,,,,,,,,,,,,,,,,,,,,,,,,,,,,,,,,,,,,,P040,fencog,2,Post,2022_May_05_1201,N-Back (New Version 2021),2021.1.4,120.010849
Conditions/Version_2Pr/twoback(1)_v2.xlsx,New rule: Press 'space' when you see 2-back (i.e. the same letter as the one that appeared 2 letters ago.),r,None,,,,,0,2,2,2,0,0,0,0,,,,,,,,,,,,,,,,,,,,,,,,,,,,,,,,,154.9603297,None,157.947909,None,space,0.4723046,157.947909,None,154.9603297,None,1.965,158.4449532,None,160.4118577,None,None,1,,160.4118577,None,162.4113171,None,,,,,,,,,,,,,,,,,,,,,,,,,,,,,,,P040,fencog,2,Post,2022_May_05_1201,N-Back (New Version 2021),2021.1.4,120.010849
Conditions/Version_2Pr/twoback(1)_v2.xlsx,New rule: Press 'space' when you see 2-back (i.e. the same letter as the one that appeared 2 letters ago.),P,None,,,,,0,2,2,2,0,1,1,1,,,,,,,,,,,,,,,,,,,,,,,,,,,,,,,,,,,,,,,,,,,1.24,163.9110339,None,165.1521773,None,None,1,,165.1521773,None,167.1515835,None,,,,,,,,,,,,,,,,,,,,,,,,,,,,,,,P040,fencog,2,Post,2022_May_05_1201,N-Back (New Version 2021),2021.1.4,120.010849
Conditions/Version_2Pr/twoback(1)_v2.xlsx,New rule: Press 'space' when you see 2-back (i.e. the same letter as the one that appeared 2 letters ago.),o,None,,,,,0,2,2,2,0,2,2,2,,,,,,,,,,,,,,,,,,,,,,,,,,,,,,,,,,,,,,,,,,,1.215,168.6510684,None,169.8681759,None,None,1,,169.8681759,None,171.8751794,None,,,,,,,,,,,,,,,,,,,,,,,,,,,,,,,P040,fencog,2,Post,2022_May_05_1201,N-Back (New Version 2021),2021.1.4,120.010849
Conditions/Version_2Pr/twoback(1)_v2.xlsx,New rule: Press 'space' when you see 2-back (i.e. the same letter as the one that appeared 2 letters ago.),p,space,,,,,0,2,2,2,0,3,3,3,,,,,,,,,,,,,,,,,,,,,,,,,,,,,,,,,,,,,,,,,,,1.29,173.3747566,None,174.6660579,None,space,1,0.305849,174.6660579,None,174.9828688,None,,,,,,,,,,,,,,,,,,,,,,,,,,,,,,,P040,fencog,2,Post,2022_May_05_1201,N-Back (New Version 2021),2021.1.4,120.010849
Conditions/Version_2Pr/twoback(1)_v2.xlsx,New rule: Press 'space' when you see 2-back (i.e. the same letter as the one that appeared 2 letters ago.),Y,None,,,,,0,2,2,2,0,4,4,4,,,,,,,,,,,,,,,,,,,,,,,,,,,,,,,,,,,,,,,,,,,1.115,176.4822476,None,177.5984637,None,None,1,,177.5984637,None,179.5979042,None,,,,,,,,,,,,,,,,,,,,,,,,,,,,,,,P040,fencog,2,Post,2022_May_05_1201,N-Back (New Version 2021),2021.1.4,120.010849
Conditions/Version_2Pr/twoback(1)_v2.xlsx,New rule: Press 'space' when you see 2-back (i.e. the same letter as the one that appeared 2 letters ago.),q,None,,,,,0,2,2,2,0,5,5,5,,,,,,,,,,,,,,,,,,,,,,,,,,,,,,,,,,,,,,,,,,,1.565,181.0974134,None,182.6640447,None,None,1,,182.6640447,None,184.6630838,None,,,,,,,,,,,,,,,,,,,,,,,,,,,,,,,P040,fencog,2,Post,2022_May_05_1201,N-Back (New Version 2021),2021.1.4,120.010849
Conditions/Version_2Pr/twoback(1)_v2.xlsx,New rule: Press 'space' when you see 2-back (i.e. the same letter as the one that appeared 2 letters ago.),m,None,,,,,0,2,2,2,0,6,6,6,,,,,,,,,,,,,,,,,,,,,,,,,,,,,,,,,,,,,,,,,,,1.615,186.1626212,None,187.7790299,None,None,1,,187.7790299,None,189.7781967,None,,,,,,,,,,,,,,,,,,,,,,,,,,,,,,,P040,fencog,2,Post,2022_May_05_1201,N-Back (New Version 2021),2021.1.4,120.010849
Conditions/Version_2Pr/twoback(1)_v2.xlsx,New rule: Press 'space' when you see 2-back (i.e. the same letter as the one that appeared 2 letters ago.),Q,space,,,,,0,2,2,2,0,7,7,7,,,,,,,,,,,,,,,,,,,,,,,,,,,,,,,,,,,,,,,,,,,1.14,191.2777176,None,192.4226286,None,space,1,0.2933058,192.4226286,None,192.7300366,None,,,,,,,,,,,,,,,,,,,,,,,,,,,,,,,P040,fencog,2,Post,2022_May_05_1201,N-Back (New Version 2021),2021.1.4,120.010849
Conditions/Version_2Pr/twoback(1)_v2.xlsx,New rule: Press 'space' when you see 2-back (i.e. the same letter as the one that appeared 2 letters ago.),L,None,,,,,0,2,2,2,0,8,8,8,,,,,,,,,,,,,,,,,,,,,,,,,,,,,,,,,,,,,,,,,,,1.89,194.2354484,None,196.1293465,None,None,1,,196.1293465,None,198.1345019,None,,,,,,,,,,,,,,,,,,,,,,,,,,,,,,,P040,fencog,2,Post,2022_May_05_1201,N-Back (New Version 2021),2021.1.4,120.010849
Conditions/Version_2Pr/twoback(1)_v2.xlsx,New rule: Press 'space' when you see 2-back (i.e. the same letter as the one that appeared 2 letters ago.),q,space,,,,,0,2,2,2,0,9,9,9,,,,,,,,,,,,,,,,,,,,,,,,,,,,,,,,,,,,,,,,,,,1.465,199.6340338,None,201.1000054,None,space,1,1.1841671,201.1000054,None,202.2942638,None,,,,,,,,,,,,,,,,,,,,,,,,,,,,,,,P040,fencog,2,Post,2022_May_05_1201,N-Back (New Version 2021),2021.1.4,120.010849
Conditions/Version_2Pr/twoback(1)_v2.xlsx,New rule: Press 'space' when you see 2-back (i.e. the same letter as the one that appeared 2 letters ago.),,,,,,,0,2,2,2,,,,,,,,,,,,,,,,,,,,,,,,,,,,,,,,,,,,,,,,,,,,,,,,,,,,,,,,,,,,,,,,,,,,,,,,,,,,,,,,,,,,,,,,,P040,fencog,2,Post,2022_May_05_1201,N-Back (New Version 2021),2021.1.4,120.010849
Conditions/Version_2Pr/threeback(1)_v2.xlsx,New rule: Press 'space' when you see 3-back (i.e. the same letter as the one that appeared 3 letters ago.),u,None,,,,,0,3,3,3,0,0,0,0,,,,,,,,,,,,,,,,,,,,,,,,,,,,,,,,,203.8239068,None,206.80934,None,space,0.4908519,206.80934,None,203.8239068,None,1.965,207.3246004,None,209.2923542,None,None,1,,209.2923542,None,211.2972365,None,,,,,,,,,,,,,,,,,,,,,,,,,,,,,,,P040,fencog,2,Post,2022_May_05_1201,N-Back (New Version 2021),2021.1.4,120.010849
Conditions/Version_2Pr/threeback(1)_v2.xlsx,New rule: Press 'space' when you see 3-back (i.e. the same letter as the one that appeared 3 letters ago.),U,None,,,,,0,3,3,3,0,1,1,1,,,,,,,,,,,,,,,,,,,,,,,,,,,,,,,,,,,,,,,,,,,1.24,212.7983188,None,214.0414936,None,None,1,,214.0414936,None,216.041103,None,,,,,,,,,,,,,,,,,,,,,,,,,,,,,,,P040,fencog,2,Post,2022_May_05_1201,N-Back (New Version 2021),2021.1.4,120.010849
Conditions/Version_2Pr/threeback(1)_v2.xlsx,New rule: Press 'space' when you see 3-back (i.e. the same letter as the one that appeared 3 letters ago.),p,None,,,,,0,3,3,3,0,2,2,2,,,,,,,,,,,,,,,,,,,,,,,,,,,,,,,,,,,,,,,,,,,2.015,217.5453485,None,219.5611659,None,None,1,,219.5611659,None,221.5608568,None,,,,,,,,,,,,,,,,,,,,,,,,,,,,,,,P040,fencog,2,Post,2022_May_05_1201,N-Back (New Version 2021),2021.1.4,120.010849
Conditions/Version_2Pr/threeback(1)_v2.xlsx,New rule: Press 'space' when you see 3-back (i.e. the same letter as the one that appeared 3 letters ago.),U,space,,,,,0,3,3,3,0,3,3,3,,,,,,,,,,,,,,,,,,,,,,,,,,,,,,,,,,,,,,,,,,,1.565,223.0603571,None,224.6273177,None,space,1,0.456782,224.6273177,None,225.1013249,None,,,,,,,,,,,,,,,,,,,,,,,,,,,,,,,P040,fencog,2,Post,2022_May_05_1201,N-Back (New Version 2021),2021.1.4,120.010849
Conditions/Version_2Pr/threeback(1)_v2.xlsx,New rule: Press 'space' when you see 3-back (i.e. the same letter as the one that appeared 3 letters ago.),e,None,,,,,0,3,3,3,0,4,4,4,,,,,,,,,,,,,,,,,,,,,,,,,,,,,,,,,,,,,,,,,,,1.09,226.6007418,None,227.693624,None,None,1,,227.693624,None,229.7001545,None,,,,,,,,,,,,,,,,,,,,,,,,,,,,,,,P040,fencog,2,Post,2022_May_05_1201,N-Back (New Version 2021),2021.1.4,120.010849
Conditions/Version_2Pr/threeback(1)_v2.xlsx,New rule: Press 'space' when you see 3-back (i.e. the same letter as the one that appeared 3 letters ago.),R,None,,,,,0,3,3,3,0,5,5,5,,,,,,,,,,,,,,,,,,,,,,,,,,,,,,,,,,,,,,,,,,,1.84,231.1995835,None,233.0414436,None,None,1,,233.0414436,None,235.0485239,None,,,,,,,,,,,,,,,,,,,,,,,,,,,,,,,P040,fencog,2,Post,2022_May_05_1201,N-Back (New Version 2021),2021.1.4,120.010849
Conditions/Version_2Pr/threeback(1)_v2.xlsx,New rule: Press 'space' when you see 3-back (i.e. the same letter as the one that appeared 3 letters ago.),p,None,,,,,0,3,3,3,0,6,6,6,,,,,,,,,,,,,,,,,,,,,,,,,,,,,,,,,,,,,,,,,,,1.14,236.5480603,None,237.6926379,None,space,0,0.3672833,237.6926379,None,238.0771914,None,,,,,,,,,,,,,,,,,,,,,,,,,,,,,,,P040,fencog,2,Post,2022_May_05_1201,N-Back (New Version 2021),2021.1.4,120.010849
Conditions/Version_2Pr/threeback(1)_v2.xlsx,New rule: Press 'space' when you see 3-back (i.e. the same letter as the one that appeared 3 letters ago.),E,space,,,,,0,3,3,3,0,7,7,7,,,,,,,,,,,,,,,,,,,,,,,,,,,,,,,,,,,,,,,,,,,1.44,239.5804331,None,241.0234558,None,space,1,0.9485311,241.0234558,None,241.9896748,None,,,,,,,,,,,,,,,,,,,,,,,,,,,,,,,P040,fencog,2,Post,2022_May_05_1201,N-Back (New Version 2021),2021.1.4,120.010849
Conditions/Version_2Pr/threeback(1)_v2.xlsx,New rule: Press 'space' when you see 3-back (i.e. the same letter as the one that appeared 3 letters ago.),k,None,,,,,0,3,3,3,0,8,8,8,,,,,,,,,,,,,,,,,,,,,,,,,,,,,,,,,,,,,,,,,,,1.715,243.4962863,None,245.2172028,None,None,1,,245.2172028,None,247.2198589,None,,,,,,,,,,,,,,,,,,,,,,,,,,,,,,,P040,fencog,2,Post,2022_May_05_1201,N-Back (New Version 2021),2021.1.4,120.010849
Conditions/Version_2Pr/threeback(1)_v2.xlsx,New rule: Press 'space' when you see 3-back (i.e. the same letter as the one that appeared 3 letters ago.),m,None,,,,,0,3,3,3,0,9,9,9,,,,,,,,,,,,,,,,,,,,,,,,,,,,,,,,,,,,,,,,,,,1.99,248.7193718,None,250.7103764,None,None,1,,250.7103764,None,252.7096965,None,,,,,,,,,,,,,,,,,,,,,,,,,,,,,,,P040,fencog,2,Post,2022_May_05_1201,N-Back (New Version 2021),2021.1.4,120.010849
Conditions/Version_2Pr/threeback(1)_v2.xlsx,New rule: Press 'space' when you see 3-back (i.e. the same letter as the one that appeared 3 letters ago.),,,,,,,0,3,3,3,,,,,,,,,,,,,,,,,,,,,,,,,,,,,,,,,,,,,,,,,,,,,,,,,,,,,,,,,,,,,,,,,,,,,,,,,,,,,,,,,,,,,,,,,P040,fencog,2,Post,2022_May_05_1201,N-Back (New Version 2021),2021.1.4,120.010849
,,,,,,,,,,,,,,,,,,,,,,,,,,,,,,,,,,,,,,,,,,,,,,,,,,,,,,,,,,,,,,,,,,,,,,254.2342768,None,space,0.389846,254.726194,None,,,,,,,,,,,,,,,,,,,,,,,,,P040,fencog,2,Post,2022_May_05_1201,N-Back (New Version 2021),2021.1.4,120.010849
,,,,,,,,,,,,,,,,,,,,,,,,,,,,,,,,,,,,,,,,,,,,,,,,,,,,,,,,,,,,,,,,,,,,,,,,,,,,255.1548589,None,space,0.801194,255.6428915,None,,,,,,,,,,,,,,,,,,,P040,fencog,2,Post,2022_May_05_1201,N-Back (New Version 2021),2021.1.4,120.010849
,,,,Conditions/Version_1/zeroback(1)_v1.xlsx,Rule: Press 'space' when you see the letter 'x' or 'X'.,b,None,,,,,,,,,0,0,0,0,0,0,0,0,,,,,,,,,,,,,,,,,,,,,,,,,,,,,,,,,,,,,,,,,,,,,,,,,,,,,,,,,,,256.5653818,None,259.5515004,None,space,0.6123807,259.5515004,None,256.5653818,None,1.9462,262.1500262,None,None,1,262.1500262,None,,P040,fencog,2,Post,2022_May_05_1201,N-Back (New Version 2021),2021.1.4,120.010849
,,,,Conditions/Version_1/zeroback(1)_v1.xlsx,Rule: Press 'space' when you see the letter 'x' or 'X'.,T,None,,,,,,,,,0,0,0,0,0,1,1,1,,,,,,,,,,,,,,,,,,,,,,,,,,,,,,,,,,,,,,,,,,,,,,,,,,,,,,,,,,,,,,,,,,,,,1.4502,265.6067809,None,None,1,265.6067809,None,,P040,fencog,2,Post,2022_May_05_1201,N-Back (New Version 2021),2021.1.4,120.010849
,,,,Conditions/Version_1/zeroback(1)_v1.xlsx,Rule: Press 'space' when you see the letter 'x' or 'X'.,L,None,,,,,,,,,0,0,0,0,0,2,2,2,,,,,,,,,,,,,,,,,,,,,,,,,,,,,,,,,,,,,,,,,,,,,,,,,,,,,,,,,,,,,,,,,,,,,1.8036,269.4213875,None,None,1,269.4213875,None,,P040,fencog,2,Post,2022_May_05_1201,N-Back (New Version 2021),2021.1.4,120.010849
,,,,Conditions/Version_1/zeroback(1)_v1.xlsx,Rule: Press 'space' when you see the letter 'x' or 'X'.,x,space,,,,,,,,,0,0,0,0,0,3,3,3,,,,,,,,,,,,,,,,,,,,,,,,,,,,,,,,,,,,,,,,,,,,,,,,,,,,,,,,,,,,,,,,,,,,,1.8842,273.3140403,None,space,1,273.3140403,None,0.2819687,P040,fencog,2,Post,2022_May_05_1201,N-Back (New Version 2021),2021.1.4,120.010849
,,,,Conditions/Version_1/zeroback(1)_v1.xlsx,Rule: Press 'space' when you see the letter 'x' or 'X'.,o,None,,,,,,,,,0,0,0,0,0,4,4,4,,,,,,,,,,,,,,,,,,,,,,,,,,,,,,,,,,,,,,,,,,,,,,,,,,,,,,,,,,,,,,,,,,,,,1.1588,276.4822814,None,None,1,276.4822814,None,,P040,fencog,2,Post,2022_May_05_1201,N-Back (New Version 2021),2021.1.4,120.010849
,,,,Conditions/Version_1/zeroback(1)_v1.xlsx,Rule: Press 'space' when you see the letter 'x' or 'X'.,P,None,,,,,,,,,0,0,0,0,0,5,5,5,,,,,,,,,,,,,,,,,,,,,,,,,,,,,,,,,,,,,,,,,,,,,,,,,,,,,,,,,,,,,,,,,,,,,1.7726,280.2609152,None,None,1,280.2609152,None,,P040,fencog,2,Post,2022_May_05_1201,N-Back (New Version 2021),2021.1.4,120.010849
,,,,Conditions/Version_1/zeroback(1)_v1.xlsx,Rule: Press 'space' when you see the letter 'x' or 'X'.,X,space,,,,,,,,,0,0,0,0,0,6,6,6,,,,,,,,,,,,,,,,,,,,,,,,,,,,,,,,,,,,,,,,,,,,,,,,,,,,,,,,,,,,,,,,,,,,,1.1526,283.4260713,None,space,1,283.4260713,None,0.3302249,P040,fencog,2,Post,2022_May_05_1201,N-Back (New Version 2021),2021.1.4,120.010849
,,,,Conditions/Version_1/zeroback(1)_v1.xlsx,Rule: Press 'space' when you see the letter 'x' or 'X'.,n,None,,,,,,,,,0,0,0,0,0,7,7,7,,,,,,,,,,,,,,,,,,,,,,,,,,,,,,,,,,,,,,,,,,,,,,,,,,,,,,,,,,,,,,,,,,,,,1.3448,286.7763269,None,None,1,286.7763269,None,,P040,fencog,2,Post,2022_May_05_1201,N-Back (New Version 2021),2021.1.4,120.010849
,,,,Conditions/Version_1/zeroback(1)_v1.xlsx,Rule: Press 'space' when you see the letter 'x' or 'X'.,M,None,,,,,,,,,0,0,0,0,0,8,8,8,,,,,,,,,,,,,,,,,,,,,,,,,,,,,,,,,,,,,,,,,,,,,,,,,,,,,,,,,,,,,,,,,,,,,1.2952,290.0897417,None,space,0,290.0897417,None,0.3222837,P040,fencog,2,Post,2022_May_05_1201,N-Back (New Version 2021),2021.1.4,120.010849
,,,,Conditions/Version_1/zeroback(1)_v1.xlsx,Rule: Press 'space' when you see the letter 'x' or 'X'.,a,None,,,,,,,,,0,0,0,0,0,9,9,9,,,,,,,,,,,,,,,,,,,,,,,,,,,,,,,,,,,,,,,,,,,,,,,,,,,,,,,,,,,,,,,,,,,,,1.5308,293.6233981,None,None,1,293.6233981,None,,P040,fencog,2,Post,2022_May_05_1201,N-Back (New Version 2021),2021.1.4,120.010849
,,,,Conditions/Version_1/zeroback(1)_v1.xlsx,Rule: Press 'space' when you see the letter 'x' or 'X'.,,,,,,,,,,,0,0,0,0,,,,,,,,,,,,,,,,,,,,,,,,,,,,,,,,,,,,,,,,,,,,,,,,,,,,,,,,,,,,,,,,,,,,,,,,,,,,,,,,,P040,fencog,2,Post,2022_May_05_1201,N-Back (New Version 2021),2021.1.4,120.010849
,,,,Conditions/Version_1/oneback(1)_v1.xlsx,New rule: Press 'space' when you see 1-back (i.e. the same letter as the one that appeared 1 letter ago.),b,None,,,,,,,,,0,1,1,1,0,0,0,0,,,,,,,,,,,,,,,,,,,,,,,,,,,,,,,,,,,,,,,,,,,,,,,,,,,,,,,,,,,295.651643,None,298.6397239,None,space,0.3481038,298.6397239,None,295.651643,None,1.1278,300.1453928,None,None,1,300.1453928,None,,P040,fencog,2,Post,2022_May_05_1201,N-Back (New Version 2021),2021.1.4,120.010849
,,,,Conditions/Version_1/oneback(1)_v1.xlsx,New rule: Press 'space' when you see 1-back (i.e. the same letter as the one that appeared 1 letter ago.),p,None,,,,,,,,,0,1,1,1,0,1,1,1,,,,,,,,,,,,,,,,,,,,,,,,,,,,,,,,,,,,,,,,,,,,,,,,,,,,,,,,,,,,,,,,,,,,,1.8842,304.0359361,None,None,1,304.0359361,None,,P040,fencog,2,Post,2022_May_05_1201,N-Back (New Version 2021),2021.1.4,120.010849
,,,,Conditions/Version_1/oneback(1)_v1.xlsx,New rule: Press 'space' when you see 1-back (i.e. the same letter as the one that appeared 1 letter ago.),M,None,,,,,,,,,0,1,1,1,0,2,2,2,,,,,,,,,,,,,,,,,,,,,,,,,,,,,,,,,,,,,,,,,,,,,,,,,,,,,,,,,,,,,,,,,,,,,1.8036,307.8452725,None,None,1,307.8452725,None,,P040,fencog,2,Post,2022_May_05_1201,N-Back (New Version 2021),2021.1.4,120.010849
,,,,Conditions/Version_1/oneback(1)_v1.xlsx,New rule: Press 'space' when you see 1-back (i.e. the same letter as the one that appeared 1 letter ago.),M,space,,,,,,,,,0,1,1,1,0,3,3,3,,,,,,,,,,,,,,,,,,,,,,,,,,,,,,,,,,,,,,,,,,,,,,,,,,,,,,,,,,,,,,,,,,,,,1.6982,311.5592208,None,space,1,311.5592208,None,0.3247206,P040,fencog,2,Post,2022_May_05_1201,N-Back (New Version 2021),2021.1.4,120.010849
,,,,Conditions/Version_1/oneback(1)_v1.xlsx,New rule: Press 'space' when you see 1-back (i.e. the same letter as the one that appeared 1 letter ago.),n,None,,,,,,,,,0,1,1,1,0,4,4,4,,,,,,,,,,,,,,,,,,,,,,,,,,,,,,,,,,,,,,,,,,,,,,,,,,,,,,,,,,,,,,,,,,,,,1.754,315.3167801,None,None,1,315.3167801,None,,P040,fencog,2,Post,2022_May_05_1201,N-Back (New Version 2021),2021.1.4,120.010849
,,,,Conditions/Version_1/oneback(1)_v1.xlsx,New rule: Press 'space' when you see 1-back (i.e. the same letter as the one that appeared 1 letter ago.),g,None,,,,,,,,,0,1,1,1,0,5,5,5,,,,,,,,,,,,,,,,,,,,,,,,,,,,,,,,,,,,,,,,,,,,,,,,,,,,,,,,,,,,,,,,,,,,,1.4006,318.7254151,None,None,1,318.7254151,None,,P040,fencog,2,Post,2022_May_05_1201,N-Back (New Version 2021),2021.1.4,120.010849
,,,,Conditions/Version_1/oneback(1)_v1.xlsx,New rule: Press 'space' when you see 1-back (i.e. the same letter as the one that appeared 1 letter ago.),P,None,,,,,,,,,0,1,1,1,0,6,6,6,,,,,,,,,,,,,,,,,,,,,,,,,,,,,,,,,,,,,,,,,,,,,,,,,,,,,,,,,,,,,,,,,,,,,1.7788,322.514047,None,None,1,322.514047,None,,P040,fencog,2,Post,2022_May_05_1201,N-Back (New Version 2021),2021.1.4,120.010849
,,,,Conditions/Version_1/oneback(1)_v1.xlsx,New rule: Press 'space' when you see 1-back (i.e. the same letter as the one that appeared 1 letter ago.),o,None,,,,,,,,,0,1,1,1,0,7,7,7,,,,,,,,,,,,,,,,,,,,,,,,,,,,,,,,,,,,,,,,,,,,,,,,,,,,,,,,,,,,,,,,,,,,,1.8408,326.3591152,None,None,1,326.3591152,None,,P040,fencog,2,Post,2022_May_05_1201,N-Back (New Version 2021),2021.1.4,120.010849
,,,,Conditions/Version_1/oneback(1)_v1.xlsx,New rule: Press 'space' when you see 1-back (i.e. the same letter as the one that appeared 1 letter ago.),f,None,,,,,,,,,0,1,1,1,0,8,8,8,,,,,,,,,,,,,,,,,,,,,,,,,,,,,,,,,,,,,,,,,,,,,,,,,,,,,,,,,,,,,,,,,,,,,1.165,329.5290095,None,None,1,329.5290095,None,,P040,fencog,2,Post,2022_May_05_1201,N-Back (New Version 2021),2021.1.4,120.010849
,,,,Conditions/Version_1/oneback(1)_v1.xlsx,New rule: Press 'space' when you see 1-back (i.e. the same letter as the one that appeared 1 letter ago.),F,space,,,,,,,,,0,1,1,1,0,9,9,9,,,,,,,,,,,,,,,,,,,,,,,,,,,,,,,,,,,,,,,,,,,,,,,,,,,,,,,,,,,,,,,,,,,,,1.475,333.0047093,None,space,1,333.0047093,None,0.3191201,P040,fencog,2,Post,2022_May_05_1201,N-Back (New Version 2021),2021.1.4,120.010849
,,,,Conditions/Version_1/oneback(1)_v1.xlsx,New rule: Press 'space' when you see 1-back (i.e. the same letter as the one that appeared 1 letter ago.),,,,,,,,,,,0,1,1,1,,,,,,,,,,,,,,,,,,,,,,,,,,,,,,,,,,,,,,,,,,,,,,,,,,,,,,,,,,,,,,,,,,,,,,,,,,,,,,,,,P040,fencog,2,Post,2022_May_05_1201,N-Back (New Version 2021),2021.1.4,120.010849
,,,,Conditions/Version_1/twoback(1)_v1.xlsx,New rule: Press 'space' when you see 2-back (i.e. the same letter as the one that appeared 2 letters ago.),b,None,,,,,,,,,0,2,2,2,0,0,0,0,,,,,,,,,,,,,,,,,,,,,,,,,,,,,,,,,,,,,,,,,,,,,,,,,,,,,,,,,,,335.0397918,None,338.0197323,None,space,0.4719602,338.0197323,None,335.0397918,None,1.0968,339.6255654,None,None,1,339.6255654,None,,P040,fencog,2,Post,2022_May_05_1201,N-Back (New Version 2021),2021.1.4,120.010849
,,,,Conditions/Version_1/twoback(1)_v1.xlsx,New rule: Press 'space' when you see 2-back (i.e. the same letter as the one that appeared 2 letters ago.),h,None,,,,,,,,,0,2,2,2,0,1,1,1,,,,,,,,,,,,,,,,,,,,,,,,,,,,,,,,,,,,,,,,,,,,,,,,,,,,,,,,,,,,,,,,,,,,,1.2332,342.8583921,None,None,1,342.8583921,None,,P040,fencog,2,Post,2022_May_05_1201,N-Back (New Version 2021),2021.1.4,120.010849
,,,,Conditions/Version_1/twoback(1)_v1.xlsx,New rule: Press 'space' when you see 2-back (i.e. the same letter as the one that appeared 2 letters ago.),j,None,,,,,,,,,0,2,2,2,0,2,2,2,,,,,,,,,,,,,,,,,,,,,,,,,,,,,,,,,,,,,,,,,,,,,,,,,,,,,,,,,,,,,,,,,,,,,1.599,346.4625246,None,None,1,346.4625246,None,,P040,fencog,2,Post,2022_May_05_1201,N-Back (New Version 2021),2021.1.4,120.010849
,,,,Conditions/Version_1/twoback(1)_v1.xlsx,New rule: Press 'space' when you see 2-back (i.e. the same letter as the one that appeared 2 letters ago.),H,space,,,,,,,,,0,2,2,2,0,3,3,3,,,,,,,,,,,,,,,,,,,,,,,,,,,,,,,,,,,,,,,,,,,,,,,,,,,,,,,,,,,,,,,,,,,,,1.5184,349.9826406,None,space,1,349.9826406,None,0.365193,P040,fencog,2,Post,2022_May_05_1201,N-Back (New Version 2021),2021.1.4,120.010849
,,,,Conditions/Version_1/twoback(1)_v1.xlsx,New rule: Press 'space' when you see 2-back (i.e. the same letter as the one that appeared 2 letters ago.),p,None,,,,,,,,,0,2,2,2,0,4,4,4,,,,,,,,,,,,,,,,,,,,,,,,,,,,,,,,,,,,,,,,,,,,,,,,,,,,,,,,,,,,,,,,,,,,,1.3758,353.3727913,None,None,1,353.3727913,None,,P040,fencog,2,Post,2022_May_05_1201,N-Back (New Version 2021),2021.1.4,120.010849
,,,,Conditions/Version_1/twoback(1)_v1.xlsx,New rule: Press 'space' when you see 2-back (i.e. the same letter as the one that appeared 2 letters ago.),p,None,,,,,,,,,0,2,2,2,0,5,5,5,,,,,,,,,,,,,,,,,,,,,,,,,,,,,,,,,,,,,,,,,,,,,,,,,,,,,,,,,,,,,,,,,,,,,1.9028,357.2870586,None,None,1,357.2870586,None,,P040,fencog,2,Post,2022_May_05_1201,N-Back (New Version 2021),2021.1.4,120.010849
,,,,Conditions/Version_1/twoback(1)_v1.xlsx,New rule: Press 'space' when you see 2-back (i.e. the same letter as the one that appeared 2 letters ago.),w,None,,,,,,,,,0,2,2,2,0,6,6,6,,,,,,,,,,,,,,,,,,,,,,,,,,,,,,,,,,,,,,,,,,,,,,,,,,,,,,,,,,,,,,,,,,,,,1.537,360.829828,None,None,1,360.829828,None,,P040,fencog,2,Post,2022_May_05_1201,N-Back (New Version 2021),2021.1.4,120.010849
,,,,Conditions/Version_1/twoback(1)_v1.xlsx,New rule: Press 'space' when you see 2-back (i.e. the same letter as the one that appeared 2 letters ago.),R,None,,,,,,,,,0,2,2,2,0,7,7,7,,,,,,,,,,,,,,,,,,,,,,,,,,,,,,,,,,,,,,,,,,,,,,,,,,,,,,,,,,,,,,,,,,,,,1.1278,363.9683777,None,None,1,363.9683777,None,,P040,fencog,2,Post,2022_May_05_1201,N-Back (New Version 2021),2021.1.4,120.010849
,,,,Conditions/Version_1/twoback(1)_v1.xlsx,New rule: Press 'space' when you see 2-back (i.e. the same letter as the one that appeared 2 letters ago.),a,None,,,,,,,,,0,2,2,2,0,8,8,8,,,,,,,,,,,,,,,,,,,,,,,,,,,,,,,,,,,,,,,,,,,,,,,,,,,,,,,,,,,,,,,,,,,,,1.8532,367.8253572,None,None,1,367.8253572,None,,P040,fencog,2,Post,2022_May_05_1201,N-Back (New Version 2021),2021.1.4,120.010849
,,,,Conditions/Version_1/twoback(1)_v1.xlsx,New rule: Press 'space' when you see 2-back (i.e. the same letter as the one that appeared 2 letters ago.),r,space,,,,,,,,,0,2,2,2,0,9,9,9,,,,,,,,,,,,,,,,,,,,,,,,,,,,,,,,,,,,,,,,,,,,,,,,,,,,,,,,,,,,,,,,,,,,,1.3386,371.1677945,None,space,1,371.1677945,None,0.3399372,P040,fencog,2,Post,2022_May_05_1201,N-Back (New Version 2021),2021.1.4,120.010849
,,,,Conditions/Version_1/twoback(1)_v1.xlsx,New rule: Press 'space' when you see 2-back (i.e. the same letter as the one that appeared 2 letters ago.),,,,,,,,,,,0,2,2,2,,,,,,,,,,,,,,,,,,,,,,,,,,,,,,,,,,,,,,,,,,,,,,,,,,,,,,,,,,,,,,,,,,,,,,,,,,,,,,,,,P040,fencog,2,Post,2022_May_05_1201,N-Back (New Version 2021),2021.1.4,120.010849
,,,,Conditions/Version_1/threeback(1)_v1.xlsx,New rule: Press 'space' when you see 3-back (i.e. the same letter as the one that appeared 3 letters ago.),r,None,,,,,,,,,0,3,3,3,0,0,0,0,,,,,,,,,,,,,,,,,,,,,,,,,,,,,,,,,,,,,,,,,,,,,,,,,,,,,,,,,,,373.1961199,None,376.1830339,None,space,0.3488064,376.1830339,None,373.1961199,None,1.6548,378.2153577,None,None,1,378.2153577,None,,P040,fencog,2,Post,2022_May_05_1201,N-Back (New Version 2021),2021.1.4,120.010849
,,,,Conditions/Version_1/threeback(1)_v1.xlsx,New rule: Press 'space' when you see 3-back (i.e. the same letter as the one that appeared 3 letters ago.),o,None,,,,,,,,,0,3,3,3,0,1,1,1,,,,,,,,,,,,,,,,,,,,,,,,,,,,,,,,,,,,,,,,,,,,,,,,,,,,,,,,,,,,,,,,,,,,,1.4502,381.6725215,None,None,1,381.6725215,None,,P040,fencog,2,Post,2022_May_05_1201,N-Back (New Version 2021),2021.1.4,120.010849
,,,,Conditions/Version_1/threeback(1)_v1.xlsx,New rule: Press 'space' when you see 3-back (i.e. the same letter as the one that appeared 3 letters ago.),P,None,,,,,,,,,0,3,3,3,0,2,2,2,,,,,,,,,,,,,,,,,,,,,,,,,,,,,,,,,,,,,,,,,,,,,,,,,,,,,,,,,,,,,,,,,,,,,1.537,385.2204768,None,None,1,385.2204768,None,,P040,fencog,2,Post,2022_May_05_1201,N-Back (New Version 2021),2021.1.4,120.010849
,,,,Conditions/Version_1/threeback(1)_v1.xlsx,New rule: Press 'space' when you see 3-back (i.e. the same letter as the one that appeared 3 letters ago.),R,space,,,,,,,,,0,3,3,3,0,3,3,3,,,,,,,,,,,,,,,,,,,,,,,,,,,,,,,,,,,,,,,,,,,,,,,,,,,,,,,,,,,,,,,,,,,,,1.6238,388.8444726,None,space,1,388.8444726,None,0.6794335,P040,fencog,2,Post,2022_May_05_1201,N-Back (New Version 2021),2021.1.4,120.010849
,,,,Conditions/Version_1/threeback(1)_v1.xlsx,New rule: Press 'space' when you see 3-back (i.e. the same letter as the one that appeared 3 letters ago.),p,None,,,,,,,,,0,3,3,3,0,4,4,4,,,,,,,,,,,,,,,,,,,,,,,,,,,,,,,,,,,,,,,,,,,,,,,,,,,,,,,,,,,,,,,,,,,,,1.2766,392.1273241,None,None,1,392.1273241,None,,P040,fencog,2,Post,2022_May_05_1201,N-Back (New Version 2021),2021.1.4,120.010849
,,,,Conditions/Version_1/threeback(1)_v1.xlsx,New rule: Press 'space' when you see 3-back (i.e. the same letter as the one that appeared 3 letters ago.),E,None,,,,,,,,,0,3,3,3,0,5,5,5,,,,,,,,,,,,,,,,,,,,,,,,,,,,,,,,,,,,,,,,,,,,,,,,,,,,,,,,,,,,,,,,,,,,,1.041,395.1675319,None,None,1,395.1675319,None,,P040,fencog,2,Post,2022_May_05_1201,N-Back (New Version 2021),2021.1.4,120.010849
,,,,Conditions/Version_1/threeback(1)_v1.xlsx,New rule: Press 'space' when you see 3-back (i.e. the same letter as the one that appeared 3 letters ago.),e,None,,,,,,,,,0,3,3,3,0,6,6,6,,,,,,,,,,,,,,,,,,,,,,,,,,,,,,,,,,,,,,,,,,,,,,,,,,,,,,,,,,,,,,,,,,,,,1.8036,398.9849728,None,space,0,398.9849728,None,0.4187516,P040,fencog,2,Post,2022_May_05_1201,N-Back (New Version 2021),2021.1.4,120.010849
,,,,Conditions/Version_1/threeback(1)_v1.xlsx,New rule: Press 'space' when you see 3-back (i.e. the same letter as the one that appeared 3 letters ago.),m,None,,,,,,,,,0,3,3,3,0,7,7,7,,,,,,,,,,,,,,,,,,,,,,,,,,,,,,,,,,,,,,,,,,,,,,,,,,,,,,,,,,,,,,,,,,,,,1.8656,402.8579062,None,None,1,402.8579062,None,,P040,fencog,2,Post,2022_May_05_1201,N-Back (New Version 2021),2021.1.4,120.010849
,,,,Conditions/Version_1/threeback(1)_v1.xlsx,New rule: Press 'space' when you see 3-back (i.e. the same letter as the one that appeared 3 letters ago.),n,None,,,,,,,,,0,3,3,3,0,8,8,8,,,,,,,,,,,,,,,,,,,,,,,,,,,,,,,,,,,,,,,,,,,,,,,,,,,,,,,,,,,,,,,,,,,,,1.785,406.6583104,None,None,1,406.6583104,None,,P040,fencog,2,Post,2022_May_05_1201,N-Back (New Version 2021),2021.1.4,120.010849
,,,,Conditions/Version_1/threeback(1)_v1.xlsx,New rule: Press 'space' when you see 3-back (i.e. the same letter as the one that appeared 3 letters ago.),e,space,,,,,,,,,0,3,3,3,0,9,9,9,,,,,,,,,,,,,,,,,,,,,,,,,,,,,,,,,,,,,,,,,,,,,,,,,,,,,,,,,,,,,,,,,,,,,1.0224,409.6881661,None,space,1,409.6881661,None,0.6433862,P040,fencog,2,Post,2022_May_05_1201,N-Back (New Version 2021),2021.1.4,120.010849
,,,,Conditions/Version_1/threeback(1)_v1.xlsx,New rule: Press 'space' when you see 3-back (i.e. the same letter as the one that appeared 3 letters ago.),,,,,,,,,,,0,3,3,3,,,,,,,,,,,,,,,,,,,,,,,,,,,,,,,,,,,,,,,,,,,,,,,,,,,,,,,,,,,,,,,,,,,,,,,,,,,,,,,,,P040,fencog,2,Post,2022_May_05_1201,N-Back (New Version 2021),2021.1.4,120.010849
,,,,Conditions/Version_1/oneback(2)_v1.xlsx,New rule: Press 'space' when you see 1-back (i.e. the same letter as the one that appeared 1 letter ago.),q,None,,,,,,,,,0,4,4,4,0,0,0,0,,,,,,,,,,,,,,,,,,,,,,,,,,,,,,,,,,,,,,,,,,,,,,,,,,,,,,,,,,,411.7254457,None,414.7139801,None,space,2.881703,414.7139801,None,411.7254457,None,1.9586,419.5851922,None,None,1,419.5851922,None,,P040,fencog,2,Post,2022_May_05_1201,N-Back (New Version 2021),2021.1.4,120.010849
,,,,Conditions/Version_1/oneback(2)_v1.xlsx,New rule: Press 'space' when you see 1-back (i.e. the same letter as the one that appeared 1 letter ago.),Q,space,,,,,,,,,0,4,4,4,0,1,1,1,,,,,,,,,,,,,,,,,,,,,,,,,,,,,,,,,,,,,,,,,,,,,,,,,,,,,,,,,,,,,,,,,,,,,1.0348,422.6270518,None,space,1,422.6270518,None,1.0405754,P040,fencog,2,Post,2022_May_05_1201,N-Back (New Version 2021),2021.1.4,120.010849
,,,,Conditions/Version_1/oneback(2)_v1.xlsx,New rule: Press 'space' when you see 1-back (i.e. the same letter as the one that appeared 1 letter ago.),P,None,,,,,,,,,0,4,4,4,0,2,2,2,,,,,,,,,,,,,,,,,,,,,,,,,,,,,,,,,,,,,,,,,,,,,,,,,,,,,,,,,,,,,,,,,,,,,1.165,425.8001075,None,None,1,425.8001075,None,,P040,fencog,2,Post,2022_May_05_1201,N-Back (New Version 2021),2021.1.4,120.010849
,,,,Conditions/Version_1/oneback(2)_v1.xlsx,New rule: Press 'space' when you see 1-back (i.e. the same letter as the one that appeared 1 letter ago.),o,None,,,,,,,,,0,4,4,4,0,3,3,3,,,,,,,,,,,,,,,,,,,,,,,,,,,,,,,,,,,,,,,,,,,,,,,,,,,,,,,,,,,,,,,,,,,,,1.1278,428.9330748,None,None,1,428.9330748,None,,P040,fencog,2,Post,2022_May_05_1201,N-Back (New Version 2021),2021.1.4,120.010849
,,,,Conditions/Version_1/oneback(2)_v1.xlsx,New rule: Press 'space' when you see 1-back (i.e. the same letter as the one that appeared 1 letter ago.),m,None,,,,,,,,,0,4,4,4,0,4,4,4,,,,,,,,,,,,,,,,,,,,,,,,,,,,,,,,,,,,,,,,,,,,,,,,,,,,,,,,,,,,,,,,,,,,,1.1402,432.0862026,None,None,1,432.0862026,None,,P040,fencog,2,Post,2022_May_05_1201,N-Back (New Version 2021),2021.1.4,120.010849
,,,,Conditions/Version_1/oneback(2)_v1.xlsx,New rule: Press 'space' when you see 1-back (i.e. the same letter as the one that appeared 1 letter ago.),Z,None,,,,,,,,,0,4,4,4,0,5,5,5,,,,,,,,,,,,,,,,,,,,,,,,,,,,,,,,,,,,,,,,,,,,,,,,,,,,,,,,,,,,,,,,,,,,,1.9524,436.0493443,None,None,1,436.0493443,None,,P040,fencog,2,Post,2022_May_05_1201,N-Back (New Version 2021),2021.1.4,120.010849
,,,,Conditions/Version_1/oneback(2)_v1.xlsx,New rule: Press 'space' when you see 1-back (i.e. the same letter as the one that appeared 1 letter ago.),c,None,,,,,,,,,0,4,4,4,0,6,6,6,,,,,,,,,,,,,,,,,,,,,,,,,,,,,,,,,,,,,,,,,,,,,,,,,,,,,,,,,,,,,,,,,,,,,1.041,439.0967366,None,None,1,439.0967366,None,,P040,fencog,2,Post,2022_May_05_1201,N-Back (New Version 2021),2021.1.4,120.010849
,,,,Conditions/Version_1/oneback(2)_v1.xlsx,New rule: Press 'space' when you see 1-back (i.e. the same letter as the one that appeared 1 letter ago.),c,space,,,,,,,,,0,4,4,4,0,7,7,7,,,,,,,,,,,,,,,,,,,,,,,,,,,,,,,,,,,,,,,,,,,,,,,,,,,,,,,,,,,,,,,,,,,,,1.8842,442.9949248,None,space,1,442.9949248,None,0.3447705,P040,fencog,2,Post,2022_May_05_1201,N-Back (New Version 2021),2021.1.4,120.010849
,,,,Conditions/Version_1/oneback(2)_v1.xlsx,New rule: Press 'space' when you see 1-back (i.e. the same letter as the one that appeared 1 letter ago.),P,None,,,,,,,,,0,4,4,4,0,8,8,8,,,,,,,,,,,,,,,,,,,,,,,,,,,,,,,,,,,,,,,,,,,,,,,,,,,,,,,,,,,,,,,,,,,,,1.7416,446.737424,None,None,1,446.737424,None,,P040,fencog,2,Post,2022_May_05_1201,N-Back (New Version 2021),2021.1.4,120.010849
,,,,Conditions/Version_1/oneback(2)_v1.xlsx,New rule: Press 'space' when you see 1-back (i.e. the same letter as the one that appeared 1 letter ago.),p,space,,,,,,,,,0,4,4,4,0,9,9,9,,,,,,,,,,,,,,,,,,,,,,,,,,,,,,,,,,,,,,,,,,,,,,,,,,,,,,,,,,,,,,,,,,,,,1.5742,450.3197535,None,space,1,450.3197535,None,0.379871,P040,fencog,2,Post,2022_May_05_1201,N-Back (New Version 2021),2021.1.4,120.010849
,,,,Conditions/Version_1/oneback(2)_v1.xlsx,New rule: Press 'space' when you see 1-back (i.e. the same letter as the one that appeared 1 letter ago.),,,,,,,,,,,0,4,4,4,,,,,,,,,,,,,,,,,,,,,,,,,,,,,,,,,,,,,,,,,,,,,,,,,,,,,,,,,,,,,,,,,,,,,,,,,,,,,,,,,P040,fencog,2,Post,2022_May_05_1201,N-Back (New Version 2021),2021.1.4,120.010849
,,,,Conditions/Version_1/zeroback(2)_v1.xlsx,New rule: Press 'space' when you see the letter 'x' or 'X'.,p,None,,,,,,,,,0,5,5,5,0,0,0,0,,,,,,,,,,,,,,,,,,,,,,,,,,,,,,,,,,,,,,,,,,,,,,,,,,,,,,,,,,,452.3436307,None,455.3277929,None,space,1.011808,455.3277929,None,452.3436307,None,1.227,457.5991894,None,None,1,457.5991894,None,,P040,fencog,2,Post,2022_May_05_1201,N-Back (New Version 2021),2021.1.4,120.010849
,,,,Conditions/Version_1/zeroback(2)_v1.xlsx,New rule: Press 'space' when you see the letter 'x' or 'X'.,L,None,,,,,,,,,0,5,5,5,0,1,1,1,,,,,,,,,,,,,,,,,,,,,,,,,,,,,,,,,,,,,,,,,,,,,,,,,,,,,,,,,,,,,,,,,,,,,1.1092,460.722805,None,None,1,460.722805,None,,P040,fencog,2,Post,2022_May_05_1201,N-Back (New Version 2021),2021.1.4,120.010849
,,,,Conditions/Version_1/zeroback(2)_v1.xlsx,New rule: Press 'space' when you see the letter 'x' or 'X'.,G,None,,,,,,,,,0,5,5,5,0,2,2,2,,,,,,,,,,,,,,,,,,,,,,,,,,,,,,,,,,,,,,,,,,,,,,,,,,,,,,,,,,,,,,,,,,,,,1.0844,463.8072482,None,None,1,463.8072482,None,,P040,fencog,2,Post,2022_May_05_1201,N-Back (New Version 2021),2021.1.4,120.010849
,,,,Conditions/Version_1/zeroback(2)_v1.xlsx,New rule: Press 'space' when you see the letter 'x' or 'X'.,y,None,,,,,,,,,0,5,5,5,0,3,3,3,,,,,,,,,,,,,,,,,,,,,,,,,,,,,,,,,,,,,,,,,,,,,,,,,,,,,,,,,,,,,,,,,,,,,1.2704,467.0988254,None,None,1,467.0988254,None,,P040,fencog,2,Post,2022_May_05_1201,N-Back (New Version 2021),2021.1.4,120.010849
,,,,Conditions/Version_1/zeroback(2)_v1.xlsx,New rule: Press 'space' when you see the letter 'x' or 'X'.,Y,None,,,,,,,,,0,5,5,5,0,4,4,4,,,,,,,,,,,,,,,,,,,,,,,,,,,,,,,,,,,,,,,,,,,,,,,,,,,,,,,,,,,,,,,,,,,,,1.103,470.2118686,None,None,1,470.2118686,None,,P040,fencog,2,Post,2022_May_05_1201,N-Back (New Version 2021),2021.1.4,120.010849
,,,,Conditions/Version_1/zeroback(2)_v1.xlsx,New rule: Press 'space' when you see the letter 'x' or 'X'.,W,None,,,,,,,,,0,5,5,5,0,5,5,5,,,,,,,,,,,,,,,,,,,,,,,,,,,,,,,,,,,,,,,,,,,,,,,,,,,,,,,,,,,,,,,,,,,,,1.382,473.5956679,None,None,1,473.5956679,None,,P040,fencog,2,Post,2022_May_05_1201,N-Back (New Version 2021),2021.1.4,120.010849
,,,,Conditions/Version_1/zeroback(2)_v1.xlsx,New rule: Press 'space' when you see the letter 'x' or 'X'.,x,space,,,,,,,,,0,5,5,5,0,6,6,6,,,,,,,,,,,,,,,,,,,,,,,,,,,,,,,,,,,,,,,,,,,,,,,,,,,,,,,,,,,,,,,,,,,,,1.2022,476.8122717,None,space,1,476.8122717,None,0.5591733,P040,fencog,2,Post,2022_May_05_1201,N-Back (New Version 2021),2021.1.4,120.010849
,,,,Conditions/Version_1/zeroback(2)_v1.xlsx,New rule: Press 'space' when you see the letter 'x' or 'X'.,X,space,,,,,,,,,0,5,5,5,0,7,7,7,,,,,,,,,,,,,,,,,,,,,,,,,,,,,,,,,,,,,,,,,,,,,,,,,,,,,,,,,,,,,,,,,,,,,1.9772,480.8015688,None,space,1,480.8015688,None,0.9858913,P040,fencog,2,Post,2022_May_05_1201,N-Back (New Version 2021),2021.1.4,120.010849
,,,,Conditions/Version_1/zeroback(2)_v1.xlsx,New rule: Press 'space' when you see the letter 'x' or 'X'.,p,None,,,,,,,,,0,5,5,5,0,8,8,8,,,,,,,,,,,,,,,,,,,,,,,,,,,,,,,,,,,,,,,,,,,,,,,,,,,,,,,,,,,,,,,,,,,,,1.3324,484.1411109,None,None,1,484.1411109,None,,P040,fencog,2,Post,2022_May_05_1201,N-Back (New Version 2021),2021.1.4,120.010849
,,,,Conditions/Version_1/zeroback(2)_v1.xlsx,New rule: Press 'space' when you see the letter 'x' or 'X'.,h,None,,,,,,,,,0,5,5,5,0,9,9,9,,,,,,,,,,,,,,,,,,,,,,,,,,,,,,,,,,,,,,,,,,,,,,,,,,,,,,,,,,,,,,,,,,,,,1.6548,487.801801,None,None,1,487.801801,None,,P040,fencog,2,Post,2022_May_05_1201,N-Back (New Version 2021),2021.1.4,120.010849
,,,,Conditions/Version_1/zeroback(2)_v1.xlsx,New rule: Press 'space' when you see the letter 'x' or 'X'.,,,,,,,,,,,0,5,5,5,,,,,,,,,,,,,,,,,,,,,,,,,,,,,,,,,,,,,,,,,,,,,,,,,,,,,,,,,,,,,,,,,,,,,,,,,,,,,,,,,P040,fencog,2,Post,2022_May_05_1201,N-Back (New Version 2021),2021.1.4,120.010849
,,,,Conditions/Version_1/threeback(2)_v1.xlsx,New rule: Press 'space' when you see 3-back (i.e. the same letter as the one that appeared 3 letters ago.),q,None,,,,,,,,,0,6,6,6,0,0,0,0,,,,,,,,,,,,,,,,,,,,,,,,,,,,,,,,,,,,,,,,,,,,,,,,,,,,,,,,,,,489.8288299,None,492.8174106,None,space,0.2980799,492.8174106,None,489.8288299,None,1.103,494.254727,None,None,1,494.254727,None,,P040,fencog,2,Post,2022_May_05_1201,N-Back (New Version 2021),2021.1.4,120.010849
,,,,Conditions/Version_1/threeback(2)_v1.xlsx,New rule: Press 'space' when you see 3-back (i.e. the same letter as the one that appeared 3 letters ago.),Y,None,,,,,,,,,0,6,6,6,0,1,1,1,,,,,,,,,,,,,,,,,,,,,,,,,,,,,,,,,,,,,,,,,,,,,,,,,,,,,,,,,,,,,,,,,,,,,1.4254,497.6879659,None,None,1,497.6879659,None,,P040,fencog,2,Post,2022_May_05_1201,N-Back (New Version 2021),2021.1.4,120.010849
,,,,Conditions/Version_1/threeback(2)_v1.xlsx,New rule: Press 'space' when you see 3-back (i.e. the same letter as the one that appeared 3 letters ago.),p,None,,,,,,,,,0,6,6,6,0,2,2,2,,,,,,,,,,,,,,,,,,,,,,,,,,,,,,,,,,,,,,,,,,,,,,,,,,,,,,,,,,,,,,,,,,,,,1.196,500.8945063,None,None,1,500.8945063,None,,P040,fencog,2,Post,2022_May_05_1201,N-Back (New Version 2021),2021.1.4,120.010849
,,,,Conditions/Version_1/threeback(2)_v1.xlsx,New rule: Press 'space' when you see 3-back (i.e. the same letter as the one that appeared 3 letters ago.),p,None,,,,,,,,,0,6,6,6,0,3,3,3,,,,,,,,,,,,,,,,,,,,,,,,,,,,,,,,,,,,,,,,,,,,,,,,,,,,,,,,,,,,,,,,,,,,,1.4068,504.3020043,None,None,1,504.3020043,None,,P040,fencog,2,Post,2022_May_05_1201,N-Back (New Version 2021),2021.1.4,120.010849
,,,,Conditions/Version_1/threeback(2)_v1.xlsx,New rule: Press 'space' when you see 3-back (i.e. the same letter as the one that appeared 3 letters ago.),y,space,,,,,,,,,0,6,6,6,0,4,4,4,,,,,,,,,,,,,,,,,,,,,,,,,,,,,,,,,,,,,,,,,,,,,,,,,,,,,,,,,,,,,,,,,,,,,1.3758,507.6914469,None,space,1,507.6914469,None,0.303935,P040,fencog,2,Post,2022_May_05_1201,N-Back (New Version 2021),2021.1.4,120.010849
,,,,Conditions/Version_1/threeback(2)_v1.xlsx,New rule: Press 'space' when you see 3-back (i.e. the same letter as the one that appeared 3 letters ago.),u,None,,,,,,,,,0,6,6,6,0,5,5,5,,,,,,,,,,,,,,,,,,,,,,,,,,,,,,,,,,,,,,,,,,,,,,,,,,,,,,,,,,,,,,,,,,,,,1.7168,511.4086762,None,None,1,511.4086762,None,,P040,fencog,2,Post,2022_May_05_1201,N-Back (New Version 2021),2021.1.4,120.010849
,,,,Conditions/Version_1/threeback(2)_v1.xlsx,New rule: Press 'space' when you see 3-back (i.e. the same letter as the one that appeared 3 letters ago.),P,space,,,,,,,,,0,6,6,6,0,6,6,6,,,,,,,,,,,,,,,,,,,,,,,,,,,,,,,,,,,,,,,,,,,,,,,,,,,,,,,,,,,,,,,,,,,,,1.5122,514.9357422,None,space,1,514.9357422,None,0.3237566,P040,fencog,2,Post,2022_May_05_1201,N-Back (New Version 2021),2021.1.4,120.010849
,,,,Conditions/Version_1/threeback(2)_v1.xlsx,New rule: Press 'space' when you see 3-back (i.e. the same letter as the one that appeared 3 letters ago.),a,None,,,,,,,,,0,6,6,6,0,7,7,7,,,,,,,,,,,,,,,,,,,,,,,,,,,,,,,,,,,,,,,,,,,,,,,,,,,,,,,,,,,,,,,,,,,,,1.3634,518.3059814,None,None,1,518.3059814,None,,P040,fencog,2,Post,2022_May_05_1201,N-Back (New Version 2021),2021.1.4,120.010849
,,,,Conditions/Version_1/threeback(2)_v1.xlsx,New rule: Press 'space' when you see 3-back (i.e. the same letter as the one that appeared 3 letters ago.),U,space,,,,,,,,,0,6,6,6,0,8,8,8,,,,,,,,,,,,,,,,,,,,,,,,,,,,,,,,,,,,,,,,,,,,,,,,,,,,,,,,,,,,,,,,,,,,,1.1774,521.4883521,None,space,1,521.4883521,None,0.3953934,P040,fencog,2,Post,2022_May_05_1201,N-Back (New Version 2021),2021.1.4,120.010849
,,,,Conditions/Version_1/threeback(2)_v1.xlsx,New rule: Press 'space' when you see 3-back (i.e. the same letter as the one that appeared 3 letters ago.),q,None,,,,,,,,,0,6,6,6,0,9,9,9,,,,,,,,,,,,,,,,,,,,,,,,,,,,,,,,,,,,,,,,,,,,,,,,,,,,,,,,,,,,,,,,,,,,,1.6548,525.1586308,None,None,1,525.1586308,None,,P040,fencog,2,Post,2022_May_05_1201,N-Back (New Version 2021),2021.1.4,120.010849
,,,,Conditions/Version_1/threeback(2)_v1.xlsx,New rule: Press 'space' when you see 3-back (i.e. the same letter as the one that appeared 3 letters ago.),,,,,,,,,,,0,6,6,6,,,,,,,,,,,,,,,,,,,,,,,,,,,,,,,,,,,,,,,,,,,,,,,,,,,,,,,,,,,,,,,,,,,,,,,,,,,,,,,,,P040,fencog,2,Post,2022_May_05_1201,N-Back (New Version 2021),2021.1.4,120.010849
,,,,Conditions/Version_1/twoback(2)_v1.xlsx,New rule: Press 'space' when you see 2-back (i.e. the same letter as the one that appeared 2 letters ago.),q,None,,,,,,,,,0,7,7,7,0,0,0,0,,,,,,,,,,,,,,,,,,,,,,,,,,,,,,,,,,,,,,,,,,,,,,,,,,,,,,,,,,,527.1851311,None,530.1713679,None,space,4.248121,530.1713679,None,527.1851311,None,1.6796,536.1259557,None,None,1,536.1259557,None,,P040,fencog,2,Post,2022_May_05_1201,N-Back (New Version 2021),2021.1.4,120.010849
,,,,Conditions/Version_1/twoback(2)_v1.xlsx,New rule: Press 'space' when you see 2-back (i.e. the same letter as the one that appeared 2 letters ago.),r,None,,,,,,,,,0,7,7,7,0,1,1,1,,,,,,,,,,,,,,,,,,,,,,,,,,,,,,,,,,,,,,,,,,,,,,,,,,,,,,,,,,,,,,,,,,,,,1.6176,539.7554609,None,None,1,539.7554609,None,,P040,fencog,2,Post,2022_May_05_1201,N-Back (New Version 2021),2021.1.4,120.010849
,,,,Conditions/Version_1/twoback(2)_v1.xlsx,New rule: Press 'space' when you see 2-back (i.e. the same letter as the one that appeared 2 letters ago.),q,space,,,,,,,,,0,7,7,7,0,2,2,2,,,,,,,,,,,,,,,,,,,,,,,,,,,,,,,,,,,,,,,,,,,,,,,,,,,,,,,,,,,,,,,,,,,,,1.4998,543.2604704,None,space,1,543.2604704,None,0.6468653,P040,fencog,2,Post,2022_May_05_1201,N-Back (New Version 2021),2021.1.4,120.010849
,,,,Conditions/Version_1/twoback(2)_v1.xlsx,New rule: Press 'space' when you see 2-back (i.e. the same letter as the one that appeared 2 letters ago.),P,None,,,,,,,,,0,7,7,7,0,3,3,3,,,,,,,,,,,,,,,,,,,,,,,,,,,,,,,,,,,,,,,,,,,,,,,,,,,,,,,,,,,,,,,,,,,,,1.0596,546.3311226,None,None,1,546.3311226,None,,P040,fencog,2,Post,2022_May_05_1201,N-Back (New Version 2021),2021.1.4,120.010849
,,,,Conditions/Version_1/twoback(2)_v1.xlsx,New rule: Press 'space' when you see 2-back (i.e. the same letter as the one that appeared 2 letters ago.),p,None,,,,,,,,,0,7,7,7,0,4,4,4,,,,,,,,,,,,,,,,,,,,,,,,,,,,,,,,,,,,,,,,,,,,,,,,,,,,,,,,,,,,,,,,,,,,,1.2208,549.5550931,None,None,1,549.5550931,None,,P040,fencog,2,Post,2022_May_05_1201,N-Back (New Version 2021),2021.1.4,120.010849
,,,,Conditions/Version_1/twoback(2)_v1.xlsx,New rule: Press 'space' when you see 2-back (i.e. the same letter as the one that appeared 2 letters ago.),H,None,,,,,,,,,0,7,7,7,0,5,5,5,,,,,,,,,,,,,,,,,,,,,,,,,,,,,,,,,,,,,,,,,,,,,,,,,,,,,,,,,,,,,,,,,,,,,1.9772,553.5382684,None,None,1,553.5382684,None,,P040,fencog,2,Post,2022_May_05_1201,N-Back (New Version 2021),2021.1.4,120.010849
,,,,Conditions/Version_1/twoback(2)_v1.xlsx,New rule: Press 'space' when you see 2-back (i.e. the same letter as the one that appeared 2 letters ago.),g,None,,,,,,,,,0,7,7,7,0,6,6,6,,,,,,,,,,,,,,,,,,,,,,,,,,,,,,,,,,,,,,,,,,,,,,,,,,,,,,,,,,,,,,,,,,,,,1.0906,556.6280908,None,None,1,556.6280908,None,,P040,fencog,2,Post,2022_May_05_1201,N-Back (New Version 2021),2021.1.4,120.010849
,,,,Conditions/Version_1/twoback(2)_v1.xlsx,New rule: Press 'space' when you see 2-back (i.e. the same letter as the one that appeared 2 letters ago.),j,None,,,,,,,,,0,7,7,7,0,7,7,7,,,,,,,,,,,,,,,,,,,,,,,,,,,,,,,,,,,,,,,,,,,,,,,,,,,,,,,,,,,,,,,,,,,,,1.4254,560.0530623,None,None,1,560.0530623,None,,P040,fencog,2,Post,2022_May_05_1201,N-Back (New Version 2021),2021.1.4,120.010849
,,,,Conditions/Version_1/twoback(2)_v1.xlsx,New rule: Press 'space' when you see 2-back (i.e. the same letter as the one that appeared 2 letters ago.),g,space,,,,,,,,,0,7,7,7,0,8,8,8,,,,,,,,,,,,,,,,,,,,,,,,,,,,,,,,,,,,,,,,,,,,,,,,,,,,,,,,,,,,,,,,,,,,,1.1898,563.2519966,None,space,1,563.2519966,None,0.3433213,P040,fencog,2,Post,2022_May_05_1201,N-Back (New Version 2021),2021.1.4,120.010849
,,,,Conditions/Version_1/twoback(2)_v1.xlsx,New rule: Press 'space' when you see 2-back (i.e. the same letter as the one that appeared 2 letters ago.),G,None,,,,,,,,,0,7,7,7,0,9,9,9,,,,,,,,,,,,,,,,,,,,,,,,,,,,,,,,,,,,,,,,,,,,,,,,,,,,,,,,,,,,,,,,,,,,,1.5494,566.8123531,None,None,1,566.8123531,None,,P040,fencog,2,Post,2022_May_05_1201,N-Back (New Version 2021),2021.1.4,120.010849
,,,,Conditions/Version_1/twoback(2)_v1.xlsx,New rule: Press 'space' when you see 2-back (i.e. the same letter as the one that appeared 2 letters ago.),,,,,,,,,,,0,7,7,7,,,,,,,,,,,,,,,,,,,,,,,,,,,,,,,,,,,,,,,,,,,,,,,,,,,,,,,,,,,,,,,,,,,,,,,,,,,,,,,,,P040,fencog,2,Post,2022_May_05_1201,N-Back (New Version 2021),2021.1.4,120.010849
,,,,Conditions/Version_1/threeback(3)_v1.xlsx,New rule: Press 'space' when you see 3-back (i.e. the same letter as the one that appeared 3 letters ago.),w,None,,,,,,,,,0,8,8,8,0,0,0,0,,,,,,,,,,,,,,,,,,,,,,,,,,,,,,,,,,,,,,,,,,,,,,,,,,,,,,,,,,,568.8470867,None,571.8334139,None,space,1.6500955,571.8334139,None,568.8470867,None,1.413,574.9243406,None,None,1,574.9243406,None,,P040,fencog,2,Post,2022_May_05_1201,N-Back (New Version 2021),2021.1.4,120.010849
,,,,Conditions/Version_1/threeback(3)_v1.xlsx,New rule: Press 'space' when you see 3-back (i.e. the same letter as the one that appeared 3 letters ago.),p,None,,,,,,,,,0,8,8,8,0,1,1,1,,,,,,,,,,,,,,,,,,,,,,,,,,,,,,,,,,,,,,,,,,,,,,,,,,,,,,,,,,,,,,,,,,,,,1.4502,578.3799599,None,None,1,578.3799599,None,,P040,fencog,2,Post,2022_May_05_1201,N-Back (New Version 2021),2021.1.4,120.010849
,,,,Conditions/Version_1/threeback(3)_v1.xlsx,New rule: Press 'space' when you see 3-back (i.e. the same letter as the one that appeared 3 letters ago.),P,None,,,,,,,,,0,8,8,8,0,2,2,2,,,,,,,,,,,,,,,,,,,,,,,,,,,,,,,,,,,,,,,,,,,,,,,,,,,,,,,,,,,,,,,,,,,,,1.9896,582.3719125,None,None,1,582.3719125,None,,P040,fencog,2,Post,2022_May_05_1201,N-Back (New Version 2021),2021.1.4,120.010849
,,,,Conditions/Version_1/threeback(3)_v1.xlsx,New rule: Press 'space' when you see 3-back (i.e. the same letter as the one that appeared 3 letters ago.),i,None,,,,,,,,,0,8,8,8,0,3,3,3,,,,,,,,,,,,,,,,,,,,,,,,,,,,,,,,,,,,,,,,,,,,,,,,,,,,,,,,,,,,,,,,,,,,,1.7416,586.1191378,None,None,1,586.1191378,None,,P040,fencog,2,Post,2022_May_05_1201,N-Back (New Version 2021),2021.1.4,120.010849
,,,,Conditions/Version_1/threeback(3)_v1.xlsx,New rule: Press 'space' when you see 3-back (i.e. the same letter as the one that appeared 3 letters ago.),f,None,,,,,,,,,0,8,8,8,0,4,4,4,,,,,,,,,,,,,,,,,,,,,,,,,,,,,,,,,,,,,,,,,,,,,,,,,,,,,,,,,,,,,,,,,,,,,1.4068,589.5292278,None,None,1,589.5292278,None,,P040,fencog,2,Post,2022_May_05_1201,N-Back (New Version 2021),2021.1.4,120.010849
,,,,Conditions/Version_1/threeback(3)_v1.xlsx,New rule: Press 'space' when you see 3-back (i.e. the same letter as the one that appeared 3 letters ago.),o,None,,,,,,,,,0,8,8,8,0,5,5,5,,,,,,,,,,,,,,,,,,,,,,,,,,,,,,,,,,,,,,,,,,,,,,,,,,,,,,,,,,,,,,,,,,,,,1.7354,593.2767032,None,None,1,593.2767032,None,,P040,fencog,2,Post,2022_May_05_1201,N-Back (New Version 2021),2021.1.4,120.010849
,,,,Conditions/Version_1/threeback(3)_v1.xlsx,New rule: Press 'space' when you see 3-back (i.e. the same letter as the one that appeared 3 letters ago.),w,None,,,,,,,,,0,8,8,8,0,6,6,6,,,,,,,,,,,,,,,,,,,,,,,,,,,,,,,,,,,,,,,,,,,,,,,,,,,,,,,,,,,,,,,,,,,,,1.9276,597.2171361,None,None,1,597.2171361,None,,P040,fencog,2,Post,2022_May_05_1201,N-Back (New Version 2021),2021.1.4,120.010849
,,,,Conditions/Version_1/threeback(3)_v1.xlsx,New rule: Press 'space' when you see 3-back (i.e. the same letter as the one that appeared 3 letters ago.),F,space,,,,,,,,,0,8,8,8,0,7,7,7,,,,,,,,,,,,,,,,,,,,,,,,,,,,,,,,,,,,,,,,,,,,,,,,,,,,,,,,,,,,,,,,,,,,,1.0534,600.2851805,None,space,1,600.2851805,None,0.3420634,P040,fencog,2,Post,2022_May_05_1201,N-Back (New Version 2021),2021.1.4,120.010849
,,,,Conditions/Version_1/threeback(3)_v1.xlsx,New rule: Press 'space' when you see 3-back (i.e. the same letter as the one that appeared 3 letters ago.),p,None,,,,,,,,,0,8,8,8,0,8,8,8,,,,,,,,,,,,,,,,,,,,,,,,,,,,,,,,,,,,,,,,,,,,,,,,,,,,,,,,,,,,,,,,,,,,,1.5742,603.8638686,None,None,1,603.8638686,None,,P040,fencog,2,Post,2022_May_05_1201,N-Back (New Version 2021),2021.1.4,120.010849
,,,,Conditions/Version_1/threeback(3)_v1.xlsx,New rule: Press 'space' when you see 3-back (i.e. the same letter as the one that appeared 3 letters ago.),W,space,,,,,,,,,0,8,8,8,0,9,9,9,,,,,,,,,,,,,,,,,,,,,,,,,,,,,,,,,,,,,,,,,,,,,,,,,,,,,,,,,,,,,,,,,,,,,1.754,607.6238185,None,space,1,607.6238185,None,0.699605,P040,fencog,2,Post,2022_May_05_1201,N-Back (New Version 2021),2021.1.4,120.010849
,,,,Conditions/Version_1/threeback(3)_v1.xlsx,New rule: Press 'space' when you see 3-back (i.e. the same letter as the one that appeared 3 letters ago.),,,,,,,,,,,0,8,8,8,,,,,,,,,,,,,,,,,,,,,,,,,,,,,,,,,,,,,,,,,,,,,,,,,,,,,,,,,,,,,,,,,,,,,,,,,,,,,,,,,P040,fencog,2,Post,2022_May_05_1201,N-Back (New Version 2021),2021.1.4,120.010849
,,,,Conditions/Version_1/zeroback(3)_v1.xlsx,New rule: Press 'space' when you see the letter 'x' or 'X'.,X,space,,,,,,,,,0,9,9,9,0,0,0,0,,,,,,,,,,,,,,,,,,,,,,,,,,,,,,,,,,,,,,,,,,,,,,,,,,,,,,,,,,,609.6473767,None,612.6377089,None,space,0.2776146,612.6377089,None,609.6473767,None,1.0472,614.0016773,None,space,1,614.0016773,None,0.36975,P040,fencog,2,Post,2022_May_05_1201,N-Back (New Version 2021),2021.1.4,120.010849
,,,,Conditions/Version_1/zeroback(3)_v1.xlsx,New rule: Press 'space' when you see the letter 'x' or 'X'.,B,None,,,,,,,,,0,9,9,9,0,1,1,1,,,,,,,,,,,,,,,,,,,,,,,,,,,,,,,,,,,,,,,,,,,,,,,,,,,,,,,,,,,,,,,,,,,,,1.475,617.4864689,None,None,1,617.4864689,None,,P040,fencog,2,Post,2022_May_05_1201,N-Back (New Version 2021),2021.1.4,120.010849
,,,,Conditions/Version_1/zeroback(3)_v1.xlsx,New rule: Press 'space' when you see the letter 'x' or 'X'.,m,None,,,,,,,,,0,9,9,9,0,2,2,2,,,,,,,,,,,,,,,,,,,,,,,,,,,,,,,,,,,,,,,,,,,,,,,,,,,,,,,,,,,,,,,,,,,,,1.5308,621.0291709,None,None,1,621.0291709,None,,P040,fencog,2,Post,2022_May_05_1201,N-Back (New Version 2021),2021.1.4,120.010849
,,,,Conditions/Version_1/zeroback(3)_v1.xlsx,New rule: Press 'space' when you see the letter 'x' or 'X'.,m,None,,,,,,,,,0,9,9,9,0,3,3,3,,,,,,,,,,,,,,,,,,,,,,,,,,,,,,,,,,,,,,,,,,,,,,,,,,,,,,,,,,,,,,,,,,,,,1.4316,624.4754094,None,None,1,624.4754094,None,,P040,fencog,2,Post,2022_May_05_1201,N-Back (New Version 2021),2021.1.4,120.010849
,,,,Conditions/Version_1/zeroback(3)_v1.xlsx,New rule: Press 'space' when you see the letter 'x' or 'X'.,o,None,,,,,,,,,0,9,9,9,0,4,4,4,,,,,,,,,,,,,,,,,,,,,,,,,,,,,,,,,,,,,,,,,,,,,,,,,,,,,,,,,,,,,,,,,,,,,1.7106,628.20245,None,None,1,628.20245,None,,P040,fencog,2,Post,2022_May_05_1201,N-Back (New Version 2021),2021.1.4,120.010849
,,,,Conditions/Version_1/zeroback(3)_v1.xlsx,New rule: Press 'space' when you see the letter 'x' or 'X'.,p,None,,,,,,,,,0,9,9,9,0,5,5,5,,,,,,,,,,,,,,,,,,,,,,,,,,,,,,,,,,,,,,,,,,,,,,,,,,,,,,,,,,,,,,,,,,,,,1.6486,631.8566543,None,None,1,631.8566543,None,,P040,fencog,2,Post,2022_May_05_1201,N-Back (New Version 2021),2021.1.4,120.010849
,,,,Conditions/Version_1/zeroback(3)_v1.xlsx,New rule: Press 'space' when you see the letter 'x' or 'X'.,G,None,,,,,,,,,0,9,9,9,0,6,6,6,,,,,,,,,,,,,,,,,,,,,,,,,,,,,,,,,,,,,,,,,,,,,,,,,,,,,,,,,,,,,,,,,,,,,1.3076,635.1711699,None,None,1,635.1711699,None,,P040,fencog,2,Post,2022_May_05_1201,N-Back (New Version 2021),2021.1.4,120.010849
,,,,Conditions/Version_1/zeroback(3)_v1.xlsx,New rule: Press 'space' when you see the letter 'x' or 'X'.,X,space,,,,,,,,,0,9,9,9,0,7,7,7,,,,,,,,,,,,,,,,,,,,,,,,,,,,,,,,,,,,,,,,,,,,,,,,,,,,,,,,,,,,,,,,,,,,,1.9462,639.1202982,None,space,1,639.1202982,None,0.4190849,P040,fencog,2,Post,2022_May_05_1201,N-Back (New Version 2021),2021.1.4,120.010849
,,,,Conditions/Version_1/zeroback(3)_v1.xlsx,New rule: Press 'space' when you see the letter 'x' or 'X'.,p,None,,,,,,,,,0,9,9,9,0,8,8,8,,,,,,,,,,,,,,,,,,,,,,,,,,,,,,,,,,,,,,,,,,,,,,,,,,,,,,,,,,,,,,,,,,,,,1.8718,642.996831,None,None,1,642.996831,None,,P040,fencog,2,Post,2022_May_05_1201,N-Back (New Version 2021),2021.1.4,120.010849
,,,,Conditions/Version_1/zeroback(3)_v1.xlsx,New rule: Press 'space' when you see the letter 'x' or 'X'.,x,space,,,,,,,,,0,9,9,9,0,9,9,9,,,,,,,,,,,,,,,,,,,,,,,,,,,,,,,,,,,,,,,,,,,,,,,,,,,,,,,,,,,,,,,,,,,,,1.816,646.817866,None,space,1,646.817866,None,0.5452906,P040,fencog,2,Post,2022_May_05_1201,N-Back (New Version 2021),2021.1.4,120.010849
,,,,Conditions/Version_1/zeroback(3)_v1.xlsx,New rule: Press 'space' when you see the letter 'x' or 'X'.,,,,,,,,,,,0,9,9,9,,,,,,,,,,,,,,,,,,,,,,,,,,,,,,,,,,,,,,,,,,,,,,,,,,,,,,,,,,,,,,,,,,,,,,,,,,,,,,,,,P040,fencog,2,Post,2022_May_05_1201,N-Back (New Version 2021),2021.1.4,120.010849
,,,,Conditions/Version_1/twoback(3)_v1.xlsx,New rule: Press 'space' when you see 2-back (i.e. the same letter as the one that appeared 2 letters ago.),e,None,,,,,,,,,0,10,10,10,0,0,0,0,,,,,,,,,,,,,,,,,,,,,,,,,,,,,,,,,,,,,,,,,,,,,,,,,,,,,,,,,,,648.8522779,None,651.8284427,None,space,1.4708365,651.8284427,None,648.8522779,None,1.382,654.7157609,None,None,1,654.7157609,None,,P040,fencog,2,Post,2022_May_05_1201,N-Back (New Version 2021),2021.1.4,120.010849
,,,,Conditions/Version_1/twoback(3)_v1.xlsx,New rule: Press 'space' when you see 2-back (i.e. the same letter as the one that appeared 2 letters ago.),o,None,,,,,,,,,0,10,10,10,0,1,1,1,,,,,,,,,,,,,,,,,,,,,,,,,,,,,,,,,,,,,,,,,,,,,,,,,,,,,,,,,,,,,,,,,,,,,1.9028,658.6356093,None,None,1,658.6356093,None,,P040,fencog,2,Post,2022_May_05_1201,N-Back (New Version 2021),2021.1.4,120.010849
,,,,Conditions/Version_1/twoback(3)_v1.xlsx,New rule: Press 'space' when you see 2-back (i.e. the same letter as the one that appeared 2 letters ago.),P,None,,,,,,,,,0,10,10,10,0,2,2,2,,,,,,,,,,,,,,,,,,,,,,,,,,,,,,,,,,,,,,,,,,,,,,,,,,,,,,,,,,,,,,,,,,,,,1.289,661.9310296,None,None,1,661.9310296,None,,P040,fencog,2,Post,2022_May_05_1201,N-Back (New Version 2021),2021.1.4,120.010849
,,,,Conditions/Version_1/twoback(3)_v1.xlsx,New rule: Press 'space' when you see 2-back (i.e. the same letter as the one that appeared 2 letters ago.),z,None,,,,,,,,,0,10,10,10,0,3,3,3,,,,,,,,,,,,,,,,,,,,,,,,,,,,,,,,,,,,,,,,,,,,,,,,,,,,,,,,,,,,,,,,,,,,,1.94,665.8895555,None,None,1,665.8895555,None,,P040,fencog,2,Post,2022_May_05_1201,N-Back (New Version 2021),2021.1.4,120.010849
,,,,Conditions/Version_1/twoback(3)_v1.xlsx,New rule: Press 'space' when you see 2-back (i.e. the same letter as the one that appeared 2 letters ago.),X,None,,,,,,,,,0,10,10,10,0,4,4,4,,,,,,,,,,,,,,,,,,,,,,,,,,,,,,,,,,,,,,,,,,,,,,,,,,,,,,,,,,,,,,,,,,,,,1.3634,669.2619955,None,None,1,669.2619955,None,,P040,fencog,2,Post,2022_May_05_1201,N-Back (New Version 2021),2021.1.4,120.010849
,,,,Conditions/Version_1/twoback(3)_v1.xlsx,New rule: Press 'space' when you see 2-back (i.e. the same letter as the one that appeared 2 letters ago.),z,space,,,,,,,,,0,10,10,10,0,5,5,5,,,,,,,,,,,,,,,,,,,,,,,,,,,,,,,,,,,,,,,,,,,,,,,,,,,,,,,,,,,,,,,,,,,,,1.9958,673.2684856,None,space,1,673.2684856,None,0.3827252,P040,fencog,2,Post,2022_May_05_1201,N-Back (New Version 2021),2021.1.4,120.010849
,,,,Conditions/Version_1/twoback(3)_v1.xlsx,New rule: Press 'space' when you see 2-back (i.e. the same letter as the one that appeared 2 letters ago.),x,space,,,,,,,,,0,10,10,10,0,6,6,6,,,,,,,,,,,,,,,,,,,,,,,,,,,,,,,,,,,,,,,,,,,,,,,,,,,,,,,,,,,,,,,,,,,,,1.4006,676.6840586,None,space,1,676.6840586,None,0.6714622,P040,fencog,2,Post,2022_May_05_1201,N-Back (New Version 2021),2021.1.4,120.010849
,,,,Conditions/Version_1/twoback(3)_v1.xlsx,New rule: Press 'space' when you see 2-back (i.e. the same letter as the one that appeared 2 letters ago.),c,None,,,,,,,,,0,10,10,10,0,7,7,7,,,,,,,,,,,,,,,,,,,,,,,,,,,,,,,,,,,,,,,,,,,,,,,,,,,,,,,,,,,,,,,,,,,,,1.6052,680.2933423,None,None,1,680.2933423,None,,P040,fencog,2,Post,2022_May_05_1201,N-Back (New Version 2021),2021.1.4,120.010849
,,,,Conditions/Version_1/twoback(3)_v1.xlsx,New rule: Press 'space' when you see 2-back (i.e. the same letter as the one that appeared 2 letters ago.),i,None,,,,,,,,,0,10,10,10,0,8,8,8,,,,,,,,,,,,,,,,,,,,,,,,,,,,,,,,,,,,,,,,,,,,,,,,,,,,,,,,,,,,,,,,,,,,,1.5432,683.8526752,None,None,1,683.8526752,None,,P040,fencog,2,Post,2022_May_05_1201,N-Back (New Version 2021),2021.1.4,120.010849
,,,,Conditions/Version_1/twoback(3)_v1.xlsx,New rule: Press 'space' when you see 2-back (i.e. the same letter as the one that appeared 2 letters ago.),C,space,,,,,,,,,0,10,10,10,0,9,9,9,,,,,,,,,,,,,,,,,,,,,,,,,,,,,,,,,,,,,,,,,,,,,,,,,,,,,,,,,,,,,,,,,,,,,1.7974,687.6676785,None,space,1,687.6676785,None,0.3995534,P040,fencog,2,Post,2022_May_05_1201,N-Back (New Version 2021),2021.1.4,120.010849
,,,,Conditions/Version_1/twoback(3)_v1.xlsx,New rule: Press 'space' when you see 2-back (i.e. the same letter as the one that appeared 2 letters ago.),,,,,,,,,,,0,10,10,10,,,,,,,,,,,,,,,,,,,,,,,,,,,,,,,,,,,,,,,,,,,,,,,,,,,,,,,,,,,,,,,,,,,,,,,,,,,,,,,,,P040,fencog,2,Post,2022_May_05_1201,N-Back (New Version 2021),2021.1.4,120.010849
,,,,Conditions/Version_1/oneback(3)_v1.xlsx,New rule: Press 'space' when you see 1-back (i.e. the same letter as the one that appeared 1 letter ago.),o,None,,,,,,,,,0,11,11,11,0,0,0,0,,,,,,,,,,,,,,,,,,,,,,,,,,,,,,,,,,,,,,,,,,,,,,,,,,,,,,,,,,,689.7009706,None,692.6810681,None,space,0.4821061,692.6810681,None,689.7009706,None,1.4378,694.6286646,None,None,1,694.6286646,None,,P040,fencog,2,Post,2022_May_05_1201,N-Back (New Version 2021),2021.1.4,120.010849
,,,,Conditions/Version_1/oneback(3)_v1.xlsx,New rule: Press 'space' when you see 1-back (i.e. the same letter as the one that appeared 1 letter ago.),O,space,,,,,,,,,0,11,11,11,0,1,1,1,,,,,,,,,,,,,,,,,,,,,,,,,,,,,,,,,,,,,,,,,,,,,,,,,,,,,,,,,,,,,,,,,,,,,1.9152,698.5487488,None,space,1,698.5487488,None,0.3265521,P040,fencog,2,Post,2022_May_05_1201,N-Back (New Version 2021),2021.1.4,120.010849
,,,,Conditions/Version_1/oneback(3)_v1.xlsx,New rule: Press 'space' when you see 1-back (i.e. the same letter as the one that appeared 1 letter ago.),h,None,,,,,,,,,0,11,11,11,0,2,2,2,,,,,,,,,,,,,,,,,,,,,,,,,,,,,,,,,,,,,,,,,,,,,,,,,,,,,,,,,,,,,,,,,,,,,1.134,701.6978622,None,None,1,701.6978622,None,,P040,fencog,2,Post,2022_May_05_1201,N-Back (New Version 2021),2021.1.4,120.010849
,,,,Conditions/Version_1/oneback(3)_v1.xlsx,New rule: Press 'space' when you see 1-back (i.e. the same letter as the one that appeared 1 letter ago.),g,None,,,,,,,,,0,11,11,11,0,3,3,3,,,,,,,,,,,,,,,,,,,,,,,,,,,,,,,,,,,,,,,,,,,,,,,,,,,,,,,,,,,,,,,,,,,,,1.3014,705.0100225,None,None,1,705.0100225,None,,P040,fencog,2,Post,2022_May_05_1201,N-Back (New Version 2021),2021.1.4,120.010849
,,,,Conditions/Version_1/oneback(3)_v1.xlsx,New rule: Press 'space' when you see 1-back (i.e. the same letter as the one that appeared 1 letter ago.),n,None,,,,,,,,,0,11,11,11,0,4,4,4,,,,,,,,,,,,,,,,,,,,,,,,,,,,,,,,,,,,,,,,,,,,,,,,,,,,,,,,,,,,,,,,,,,,,1.3634,708.382937,None,None,1,708.382937,None,,P040,fencog,2,Post,2022_May_05_1201,N-Back (New Version 2021),2021.1.4,120.010849
,,,,Conditions/Version_1/oneback(3)_v1.xlsx,New rule: Press 'space' when you see 1-back (i.e. the same letter as the one that appeared 1 letter ago.),z,None,,,,,,,,,0,11,11,11,0,5,5,5,,,,,,,,,,,,,,,,,,,,,,,,,,,,,,,,,,,,,,,,,,,,,,,,,,,,,,,,,,,,,,,,,,,,,1.2518,711.6404524,None,None,1,711.6404524,None,,P040,fencog,2,Post,2022_May_05_1201,N-Back (New Version 2021),2021.1.4,120.010849
,,,,Conditions/Version_1/oneback(3)_v1.xlsx,New rule: Press 'space' when you see 1-back (i.e. the same letter as the one that appeared 1 letter ago.),X,None,,,,,,,,,0,11,11,11,0,6,6,6,,,,,,,,,,,,,,,,,,,,,,,,,,,,,,,,,,,,,,,,,,,,,,,,,,,,,,,,,,,,,,,,,,,,,1.4626,715.1074085,None,None,1,715.1074085,None,,P040,fencog,2,Post,2022_May_05_1201,N-Back (New Version 2021),2021.1.4,120.010849
,,,,Conditions/Version_1/oneback(3)_v1.xlsx,New rule: Press 'space' when you see 1-back (i.e. the same letter as the one that appeared 1 letter ago.),r,None,,,,,,,,,0,11,11,11,0,7,7,7,,,,,,,,,,,,,,,,,,,,,,,,,,,,,,,,,,,,,,,,,,,,,,,,,,,,,,,,,,,,,,,,,,,,,1.1836,718.2989822,None,None,1,718.2989822,None,,P040,fencog,2,Post,2022_May_05_1201,N-Back (New Version 2021),2021.1.4,120.010849
,,,,Conditions/Version_1/oneback(3)_v1.xlsx,New rule: Press 'space' when you see 1-back (i.e. the same letter as the one that appeared 1 letter ago.),r,space,,,,,,,,,0,11,11,11,0,8,8,8,,,,,,,,,,,,,,,,,,,,,,,,,,,,,,,,,,,,,,,,,,,,,,,,,,,,,,,,,,,,,,,,,,,,,1.5246,721.8288932,None,space,1,721.8288932,None,0.366204,P040,fencog,2,Post,2022_May_05_1201,N-Back (New Version 2021),2021.1.4,120.010849
,,,,Conditions/Version_1/oneback(3)_v1.xlsx,New rule: Press 'space' when you see 1-back (i.e. the same letter as the one that appeared 1 letter ago.),P,None,,,,,,,,,0,11,11,11,0,9,9,9,,,,,,,,,,,,,,,,,,,,,,,,,,,,,,,,,,,,,,,,,,,,,,,,,,,,,,,,,,,,,,,,,,,,,1.2704,725.1408774,None,None,1,725.1408774,None,,P040,fencog,2,Post,2022_May_05_1201,N-Back (New Version 2021),2021.1.4,120.010849
,,,,Conditions/Version_1/oneback(3)_v1.xlsx,New rule: Press 'space' when you see 1-back (i.e. the same letter as the one that appeared 1 letter ago.),,,,,,,,,,,0,11,11,11,,,,,,,,,,,,,,,,,,,,,,,,,,,,,,,,,,,,,,,,,,,,,,,,,,,,,,,,,,,,,,,,,,,,,,,,,,,,,,,,,P040,fencog,2,Post,2022_May_05_1201,N-Back (New Version 2021),2021.1.4,120.010849
,,,,Conditions/Version_1/twoback(4)_v1.xlsx,New rule: Press 'space' when you see 2-back (i.e. the same letter as the one that appeared 2 letters ago.),r,None,,,,,,,,,0,12,12,12,0,0,0,0,,,,,,,,,,,,,,,,,,,,,,,,,,,,,,,,,,,,,,,,,,,,,,,,,,,,,,,,,,,727.132607,None,730.1202126,None,space,0.4987236,730.1202126,None,727.132607,None,1.4812,732.1258941,None,None,1,732.1258941,None,,P040,fencog,2,Post,2022_May_05_1201,N-Back (New Version 2021),2021.1.4,120.010849
,,,,Conditions/Version_1/twoback(4)_v1.xlsx,New rule: Press 'space' when you see 2-back (i.e. the same letter as the one that appeared 2 letters ago.),T,None,,,,,,,,,0,12,12,12,0,1,1,1,,,,,,,,,,,,,,,,,,,,,,,,,,,,,,,,,,,,,,,,,,,,,,,,,,,,,,,,,,,,,,,,,,,,,1.7416,735.8672493,None,None,1,735.8672493,None,,P040,fencog,2,Post,2022_May_05_1201,N-Back (New Version 2021),2021.1.4,120.010849
,,,,Conditions/Version_1/twoback(4)_v1.xlsx,New rule: Press 'space' when you see 2-back (i.e. the same letter as the one that appeared 2 letters ago.),o,None,,,,,,,,,0,12,12,12,0,2,2,2,,,,,,,,,,,,,,,,,,,,,,,,,,,,,,,,,,,,,,,,,,,,,,,,,,,,,,,,,,,,,,,,,,,,,1.8036,739.6847205,None,None,1,739.6847205,None,,P040,fencog,2,Post,2022_May_05_1201,N-Back (New Version 2021),2021.1.4,120.010849
,,,,Conditions/Version_1/twoback(4)_v1.xlsx,New rule: Press 'space' when you see 2-back (i.e. the same letter as the one that appeared 2 letters ago.),p,None,,,,,,,,,0,12,12,12,0,3,3,3,,,,,,,,,,,,,,,,,,,,,,,,,,,,,,,,,,,,,,,,,,,,,,,,,,,,,,,,,,,,,,,,,,,,,1.8098,743.5058188,None,None,1,743.5058188,None,,P040,fencog,2,Post,2022_May_05_1201,N-Back (New Version 2021),2021.1.4,120.010849
,,,,Conditions/Version_1/twoback(4)_v1.xlsx,New rule: Press 'space' when you see 2-back (i.e. the same letter as the one that appeared 2 letters ago.),p,None,,,,,,,,,0,12,12,12,0,4,4,4,,,,,,,,,,,,,,,,,,,,,,,,,,,,,,,,,,,,,,,,,,,,,,,,,,,,,,,,,,,,,,,,,,,,,1.1092,746.6217815,None,None,1,746.6217815,None,,P040,fencog,2,Post,2022_May_05_1201,N-Back (New Version 2021),2021.1.4,120.010849
,,,,Conditions/Version_1/twoback(4)_v1.xlsx,New rule: Press 'space' when you see 2-back (i.e. the same letter as the one that appeared 2 letters ago.),y,None,,,,,,,,,0,12,12,12,0,5,5,5,,,,,,,,,,,,,,,,,,,,,,,,,,,,,,,,,,,,,,,,,,,,,,,,,,,,,,,,,,,,,,,,,,,,,1.3758,750.0066031,None,None,1,750.0066031,None,,P040,fencog,2,Post,2022_May_05_1201,N-Back (New Version 2021),2021.1.4,120.010849
,,,,Conditions/Version_1/twoback(4)_v1.xlsx,New rule: Press 'space' when you see 2-back (i.e. the same letter as the one that appeared 2 letters ago.),P,space,,,,,,,,,0,12,12,12,0,6,6,6,,,,,,,,,,,,,,,,,,,,,,,,,,,,,,,,,,,,,,,,,,,,,,,,,,,,,,,,,,,,,,,,,,,,,1.6238,753.6406672,None,None,0,753.6406672,None,,P040,fencog,2,Post,2022_May_05_1201,N-Back (New Version 2021),2021.1.4,120.010849
,,,,Conditions/Version_1/twoback(4)_v1.xlsx,New rule: Press 'space' when you see 2-back (i.e. the same letter as the one that appeared 2 letters ago.),y,None,,,,,,,,,0,12,12,12,0,7,7,7,,,,,,,,,,,,,,,,,,,,,,,,,,,,,,,,,,,,,,,,,,,,,,,,,,,,,,,,,,,,,,,,,,,,,1.3262,756.9792239,None,space,0,756.9792239,None,0.4079002,P040,fencog,2,Post,2022_May_05_1201,N-Back (New Version 2021),2021.1.4,120.010849
,,,,Conditions/Version_1/twoback(4)_v1.xlsx,New rule: Press 'space' when you see 2-back (i.e. the same letter as the one that appeared 2 letters ago.),y,space,,,,,,,,,0,12,12,12,0,8,8,8,,,,,,,,,,,,,,,,,,,,,,,,,,,,,,,,,,,,,,,,,,,,,,,,,,,,,,,,,,,,,,,,,,,,,1.3076,760.2927386,None,None,0,760.2927386,None,,P040,fencog,2,Post,2022_May_05_1201,N-Back (New Version 2021),2021.1.4,120.010849
,,,,Conditions/Version_1/twoback(4)_v1.xlsx,New rule: Press 'space' when you see 2-back (i.e. the same letter as the one that appeared 2 letters ago.),,,,,,,,,,,0,12,12,12,,,,,,,,,,,,,,,,,,,,,,,,,,,,,,,,,,,,,,,,,,,,,,,,,,,,,,,,,,,,,,,,,,,,,,,,,,,,,,,,,P040,fencog,2,Post,2022_May_05_1201,N-Back (New Version 2021),2021.1.4,120.010849
,,,,Conditions/Version_1/zeroback(4)_v1.xlsx,New rule: Press 'space' when you see the letter 'x' or 'X'.,o,None,,,,,,,,,0,13,13,13,0,0,0,0,,,,,,,,,,,,,,,,,,,,,,,,,,,,,,,,,,,,,,,,,,,,,,,,,,,,,,,,,,,762.3231366,None,765.309799,None,space,0.5013207,765.309799,None,762.3231366,None,1.3634,767.2072285,None,None,1,767.2072285,None,,P040,fencog,2,Post,2022_May_05_1201,N-Back (New Version 2021),2021.1.4,120.010849
,,,,Conditions/Version_1/zeroback(4)_v1.xlsx,New rule: Press 'space' when you see the letter 'x' or 'X'.,X,space,,,,,,,,,0,13,13,13,0,1,1,1,,,,,,,,,,,,,,,,,,,,,,,,,,,,,,,,,,,,,,,,,,,,,,,,,,,,,,,,,,,,,,,,,,,,,1.4068,770.6153584,None,space,1,770.6153584,None,0.507601,P040,fencog,2,Post,2022_May_05_1201,N-Back (New Version 2021),2021.1.4,120.010849
,,,,Conditions/Version_1/zeroback(4)_v1.xlsx,New rule: Press 'space' when you see the letter 'x' or 'X'.,p,None,,,,,,,,,0,13,13,13,0,2,2,2,,,,,,,,,,,,,,,,,,,,,,,,,,,,,,,,,,,,,,,,,,,,,,,,,,,,,,,,,,,,,,,,,,,,,1.8842,774.5133761,None,None,1,774.5133761,None,,P040,fencog,2,Post,2022_May_05_1201,N-Back (New Version 2021),2021.1.4,120.010849
,,,,Conditions/Version_1/zeroback(4)_v1.xlsx,New rule: Press 'space' when you see the letter 'x' or 'X'.,m,None,,,,,,,,,0,13,13,13,0,3,3,3,,,,,,,,,,,,,,,,,,,,,,,,,,,,,,,,,,,,,,,,,,,,,,,,,,,,,,,,,,,,,,,,,,,,,1.909,778.4298969,None,None,1,778.4298969,None,,P040,fencog,2,Post,2022_May_05_1201,N-Back (New Version 2021),2021.1.4,120.010849
,,,,Conditions/Version_1/zeroback(4)_v1.xlsx,New rule: Press 'space' when you see the letter 'x' or 'X'.,n,None,,,,,,,,,0,13,13,13,0,4,4,4,,,,,,,,,,,,,,,,,,,,,,,,,,,,,,,,,,,,,,,,,,,,,,,,,,,,,,,,,,,,,,,,,,,,,1.7974,782.2360579,None,None,1,782.2360579,None,,P040,fencog,2,Post,2022_May_05_1201,N-Back (New Version 2021),2021.1.4,120.010849
,,,,Conditions/Version_1/zeroback(4)_v1.xlsx,New rule: Press 'space' when you see the letter 'x' or 'X'.,m,None,,,,,,,,,0,13,13,13,0,5,5,5,,,,,,,,,,,,,,,,,,,,,,,,,,,,,,,,,,,,,,,,,,,,,,,,,,,,,,,,,,,,,,,,,,,,,1.5432,785.7856358,None,None,1,785.7856358,None,,P040,fencog,2,Post,2022_May_05_1201,N-Back (New Version 2021),2021.1.4,120.010849
,,,,Conditions/Version_1/zeroback(4)_v1.xlsx,New rule: Press 'space' when you see the letter 'x' or 'X'.,C,None,,,,,,,,,0,13,13,13,0,6,6,6,,,,,,,,,,,,,,,,,,,,,,,,,,,,,,,,,,,,,,,,,,,,,,,,,,,,,,,,,,,,,,,,,,,,,1.2828,789.0757319,None,None,1,789.0757319,None,,P040,fencog,2,Post,2022_May_05_1201,N-Back (New Version 2021),2021.1.4,120.010849
,,,,Conditions/Version_1/zeroback(4)_v1.xlsx,New rule: Press 'space' when you see the letter 'x' or 'X'.,m,None,,,,,,,,,0,13,13,13,0,7,7,7,,,,,,,,,,,,,,,,,,,,,,,,,,,,,,,,,,,,,,,,,,,,,,,,,,,,,,,,,,,,,,,,,,,,,1.9834,793.0578346,None,None,1,793.0578346,None,,P040,fencog,2,Post,2022_May_05_1201,N-Back (New Version 2021),2021.1.4,120.010849
,,,,Conditions/Version_1/zeroback(4)_v1.xlsx,New rule: Press 'space' when you see the letter 'x' or 'X'.,p,None,,,,,,,,,0,13,13,13,0,8,8,8,,,,,,,,,,,,,,,,,,,,,,,,,,,,,,,,,,,,,,,,,,,,,,,,,,,,,,,,,,,,,,,,,,,,,1.1526,796.2153443,None,None,1,796.2153443,None,,P040,fencog,2,Post,2022_May_05_1201,N-Back (New Version 2021),2021.1.4,120.010849
,,,,Conditions/Version_1/zeroback(4)_v1.xlsx,New rule: Press 'space' when you see the letter 'x' or 'X'.,X,space,,,,,,,,,0,13,13,13,0,9,9,9,,,,,,,,,,,,,,,,,,,,,,,,,,,,,,,,,,,,,,,,,,,,,,,,,,,,,,,,,,,,,,,,,,,,,1.01,799.2311836,None,space,1,799.2311836,None,0.4918015,P040,fencog,2,Post,2022_May_05_1201,N-Back (New Version 2021),2021.1.4,120.010849
,,,,Conditions/Version_1/zeroback(4)_v1.xlsx,New rule: Press 'space' when you see the letter 'x' or 'X'.,,,,,,,,,,,0,13,13,13,,,,,,,,,,,,,,,,,,,,,,,,,,,,,,,,,,,,,,,,,,,,,,,,,,,,,,,,,,,,,,,,,,,,,,,,,,,,,,,,,P040,fencog,2,Post,2022_May_05_1201,N-Back (New Version 2021),2021.1.4,120.010849
,,,,Conditions/Version_1/oneback(4)_v1.xlsx,New rule: Press 'space' when you see 1-back (i.e. the same letter as the one that appeared 1 letter ago.),w,None,,,,,,,,,0,14,14,14,0,0,0,0,,,,,,,,,,,,,,,,,,,,,,,,,,,,,,,,,,,,,,,,,,,,,,,,,,,,,,,,,,,801.2532017,None,804.2407414,None,space,0.4423245,804.2407414,None,801.2532017,None,1.9214,806.6287623,None,None,1,806.6287623,None,,P040,fencog,2,Post,2022_May_05_1201,N-Back (New Version 2021),2021.1.4,120.010849
,,,,Conditions/Version_1/oneback(4)_v1.xlsx,New rule: Press 'space' when you see 1-back (i.e. the same letter as the one that appeared 1 letter ago.),q,None,,,,,,,,,0,14,14,14,0,1,1,1,,,,,,,,,,,,,,,,,,,,,,,,,,,,,,,,,,,,,,,,,,,,,,,,,,,,,,,,,,,,,,,,,,,,,1.8594,810.4968731,None,None,1,810.4968731,None,,P040,fencog,2,Post,2022_May_05_1201,N-Back (New Version 2021),2021.1.4,120.010849
,,,,Conditions/Version_1/oneback(4)_v1.xlsx,New rule: Press 'space' when you see 1-back (i.e. the same letter as the one that appeared 1 letter ago.),i,None,,,,,,,,,0,14,14,14,0,2,2,2,,,,,,,,,,,,,,,,,,,,,,,,,,,,,,,,,,,,,,,,,,,,,,,,,,,,,,,,,,,,,,,,,,,,,1.2518,813.7601011,None,None,1,813.7601011,None,,P040,fencog,2,Post,2022_May_05_1201,N-Back (New Version 2021),2021.1.4,120.010849
,,,,Conditions/Version_1/oneback(4)_v1.xlsx,New rule: Press 'space' when you see 1-back (i.e. the same letter as the one that appeared 1 letter ago.),t,None,,,,,,,,,0,14,14,14,0,3,3,3,,,,,,,,,,,,,,,,,,,,,,,,,,,,,,,,,,,,,,,,,,,,,,,,,,,,,,,,,,,,,,,,,,,,,1.7106,817.4841612,None,None,1,817.4841612,None,,P040,fencog,2,Post,2022_May_05_1201,N-Back (New Version 2021),2021.1.4,120.010849
,,,,Conditions/Version_1/oneback(4)_v1.xlsx,New rule: Press 'space' when you see 1-back (i.e. the same letter as the one that appeared 1 letter ago.),v,None,,,,,,,,,0,14,14,14,0,4,4,4,,,,,,,,,,,,,,,,,,,,,,,,,,,,,,,,,,,,,,,,,,,,,,,,,,,,,,,,,,,,,,,,,,,,,1.661,821.1683431,None,None,1,821.1683431,None,,P040,fencog,2,Post,2022_May_05_1201,N-Back (New Version 2021),2021.1.4,120.010849
,,,,Conditions/Version_1/oneback(4)_v1.xlsx,New rule: Press 'space' when you see 1-back (i.e. the same letter as the one that appeared 1 letter ago.),V,space,,,,,,,,,0,14,14,14,0,5,5,5,,,,,,,,,,,,,,,,,,,,,,,,,,,,,,,,,,,,,,,,,,,,,,,,,,,,,,,,,,,,,,,,,,,,,1.2952,824.4664594,None,space,1,824.4664594,None,0.4166854,P040,fencog,2,Post,2022_May_05_1201,N-Back (New Version 2021),2021.1.4,120.010849
,,,,Conditions/Version_1/oneback(4)_v1.xlsx,New rule: Press 'space' when you see 1-back (i.e. the same letter as the one that appeared 1 letter ago.),v,space,,,,,,,,,0,14,14,14,0,6,6,6,,,,,,,,,,,,,,,,,,,,,,,,,,,,,,,,,,,,,,,,,,,,,,,,,,,,,,,,,,,,,,,,,,,,,1.4998,827.9748146,None,space,1,827.9748146,None,1.1562085,P040,fencog,2,Post,2022_May_05_1201,N-Back (New Version 2021),2021.1.4,120.010849
,,,,Conditions/Version_1/oneback(4)_v1.xlsx,New rule: Press 'space' when you see 1-back (i.e. the same letter as the one that appeared 1 letter ago.),p,None,,,,,,,,,0,14,14,14,0,7,7,7,,,,,,,,,,,,,,,,,,,,,,,,,,,,,,,,,,,,,,,,,,,,,,,,,,,,,,,,,,,,,,,,,,,,,1.01,831.0020316,None,None,1,831.0020316,None,,P040,fencog,2,Post,2022_May_05_1201,N-Back (New Version 2021),2021.1.4,120.010849
,,,,Conditions/Version_1/oneback(4)_v1.xlsx,New rule: Press 'space' when you see 1-back (i.e. the same letter as the one that appeared 1 letter ago.),w,None,,,,,,,,,0,14,14,14,0,8,8,8,,,,,,,,,,,,,,,,,,,,,,,,,,,,,,,,,,,,,,,,,,,,,,,,,,,,,,,,,,,,,,,,,,,,,1.971,834.9788482,None,None,1,834.9788482,None,,P040,fencog,2,Post,2022_May_05_1201,N-Back (New Version 2021),2021.1.4,120.010849
,,,,Conditions/Version_1/oneback(4)_v1.xlsx,New rule: Press 'space' when you see 1-back (i.e. the same letter as the one that appeared 1 letter ago.),W,space,,,,,,,,,0,14,14,14,0,9,9,9,,,,,,,,,,,,,,,,,,,,,,,,,,,,,,,,,,,,,,,,,,,,,,,,,,,,,,,,,,,,,,,,,,,,,1.1898,838.1777654,None,space,1,838.1777654,None,0.5132003,P040,fencog,2,Post,2022_May_05_1201,N-Back (New Version 2021),2021.1.4,120.010849
,,,,Conditions/Version_1/oneback(4)_v1.xlsx,New rule: Press 'space' when you see 1-back (i.e. the same letter as the one that appeared 1 letter ago.),,,,,,,,,,,0,14,14,14,,,,,,,,,,,,,,,,,,,,,,,,,,,,,,,,,,,,,,,,,,,,,,,,,,,,,,,,,,,,,,,,,,,,,,,,,,,,,,,,,P040,fencog,2,Post,2022_May_05_1201,N-Back (New Version 2021),2021.1.4,120.010849
,,,,Conditions/Version_1/threeback(4)_v1.xlsx,New rule: Press 'space' when you see 3-back (i.e. the same letter as the one that appeared 3 letters ago.),A,None,,,,,,,,,0,15,15,15,0,0,0,0,,,,,,,,,,,,,,,,,,,,,,,,,,,,,,,,,,,,,,,,,,,,,,,,,,,,,,,,,,,840.2000787,None,843.1992816,None,space,0.307471,843.1992816,None,840.2000787,None,1.8098,845.3544564,None,None,1,845.3544564,None,,P040,fencog,2,Post,2022_May_05_1201,N-Back (New Version 2021),2021.1.4,120.010849
,,,,Conditions/Version_1/threeback(4)_v1.xlsx,New rule: Press 'space' when you see 3-back (i.e. the same letter as the one that appeared 3 letters ago.),n,None,,,,,,,,,0,15,15,15,0,1,1,1,,,,,,,,,,,,,,,,,,,,,,,,,,,,,,,,,,,,,,,,,,,,,,,,,,,,,,,,,,,,,,,,,,,,,1.4874,848.8495707,None,None,1,848.8495707,None,,P040,fencog,2,Post,2022_May_05_1201,N-Back (New Version 2021),2021.1.4,120.010849
,,,,Conditions/Version_1/threeback(4)_v1.xlsx,New rule: Press 'space' when you see 3-back (i.e. the same letter as the one that appeared 3 letters ago.),g,None,,,,,,,,,0,15,15,15,0,2,2,2,,,,,,,,,,,,,,,,,,,,,,,,,,,,,,,,,,,,,,,,,,,,,,,,,,,,,,,,,,,,,,,,,,,,,1.3262,852.1819574,None,None,1,852.1819574,None,,P040,fencog,2,Post,2022_May_05_1201,N-Back (New Version 2021),2021.1.4,120.010849
,,,,Conditions/Version_1/threeback(4)_v1.xlsx,New rule: Press 'space' when you see 3-back (i.e. the same letter as the one that appeared 3 letters ago.),A,space,,,,,,,,,0,15,15,15,0,3,3,3,,,,,,,,,,,,,,,,,,,,,,,,,,,,,,,,,,,,,,,,,,,,,,,,,,,,,,,,,,,,,,,,,,,,,1.4626,855.6499829,None,space,1,855.6499829,None,0.488887,P040,fencog,2,Post,2022_May_05_1201,N-Back (New Version 2021),2021.1.4,120.010849
,,,,Conditions/Version_1/threeback(4)_v1.xlsx,New rule: Press 'space' when you see 3-back (i.e. the same letter as the one that appeared 3 letters ago.),p,None,,,,,,,,,0,15,15,15,0,4,4,4,,,,,,,,,,,,,,,,,,,,,,,,,,,,,,,,,,,,,,,,,,,,,,,,,,,,,,,,,,,,,,,,,,,,,1.3014,858.964398,None,None,1,858.964398,None,,P040,fencog,2,Post,2022_May_05_1201,N-Back (New Version 2021),2021.1.4,120.010849
,,,,Conditions/Version_1/threeback(4)_v1.xlsx,New rule: Press 'space' when you see 3-back (i.e. the same letter as the one that appeared 3 letters ago.),O,None,,,,,,,,,0,15,15,15,0,5,5,5,,,,,,,,,,,,,,,,,,,,,,,,,,,,,,,,,,,,,,,,,,,,,,,,,,,,,,,,,,,,,,,,,,,,,1.0348,862.0041783,None,None,1,862.0041783,None,,P040,fencog,2,Post,2022_May_05_1201,N-Back (New Version 2021),2021.1.4,120.010849
,,,,Conditions/Version_1/threeback(4)_v1.xlsx,New rule: Press 'space' when you see 3-back (i.e. the same letter as the one that appeared 3 letters ago.),a,space,,,,,,,,,0,15,15,15,0,6,6,6,,,,,,,,,,,,,,,,,,,,,,,,,,,,,,,,,,,,,,,,,,,,,,,,,,,,,,,,,,,,,,,,,,,,,1.63,865.6415302,None,space,1,865.6415302,None,0.4171846,P040,fencog,2,Post,2022_May_05_1201,N-Back (New Version 2021),2021.1.4,120.010849
,,,,Conditions/Version_1/threeback(4)_v1.xlsx,New rule: Press 'space' when you see 3-back (i.e. the same letter as the one that appeared 3 letters ago.),p,space,,,,,,,,,0,15,15,15,0,7,7,7,,,,,,,,,,,,,,,,,,,,,,,,,,,,,,,,,,,,,,,,,,,,,,,,,,,,,,,,,,,,,,,,,,,,,1.6486,869.2978752,None,space,1,869.2978752,None,0.4889318,P040,fencog,2,Post,2022_May_05_1201,N-Back (New Version 2021),2021.1.4,120.010849
,,,,Conditions/Version_1/threeback(4)_v1.xlsx,New rule: Press 'space' when you see 3-back (i.e. the same letter as the one that appeared 3 letters ago.),x,None,,,,,,,,,0,15,15,15,0,8,8,8,,,,,,,,,,,,,,,,,,,,,,,,,,,,,,,,,,,,,,,,,,,,,,,,,,,,,,,,,,,,,,,,,,,,,1.8532,873.1659209,None,None,1,873.1659209,None,,P040,fencog,2,Post,2022_May_05_1201,N-Back (New Version 2021),2021.1.4,120.010849
,,,,Conditions/Version_1/threeback(4)_v1.xlsx,New rule: Press 'space' when you see 3-back (i.e. the same letter as the one that appeared 3 letters ago.),X,None,,,,,,,,,0,15,15,15,0,9,9,9,,,,,,,,,,,,,,,,,,,,,,,,,,,,,,,,,,,,,,,,,,,,,,,,,,,,,,,,,,,,,,,,,,,,,1.7044,876.8773667,None,None,1,876.8773667,None,,P040,fencog,2,Post,2022_May_05_1201,N-Back (New Version 2021),2021.1.4,120.010849
,,,,Conditions/Version_1/threeback(4)_v1.xlsx,New rule: Press 'space' when you see 3-back (i.e. the same letter as the one that appeared 3 letters ago.),,,,,,,,,,,0,15,15,15,,,,,,,,,,,,,,,,,,,,,,,,,,,,,,,,,,,,,,,,,,,,,,,,,,,,,,,,,,,,,,,,,,,,,,,,,,,,,,,,,P040,fencog,2,Post,2022_May_05_1201,N-Back (New Version 2021),2021.1.4,120.010849
