CondFileP,InstructionsP,LettersDisplayedP,CorrectnessP,CondFile,Instructions,LettersDisplayed,Correctness,practicetrials.thisRepN,practicetrials.thisTrialN,practicetrials.thisN,practicetrials.thisIndex,InnerLoopPractice.thisRepN,InnerLoopPractice.thisTrialN,InnerLoopPractice.thisN,InnerLoopPractice.thisIndex,trials.thisRepN,trials.thisTrialN,trials.thisN,trials.thisIndex,InnerLoop.thisRepN,InnerLoop.thisTrialN,InnerLoop.thisN,InnerLoop.thisIndex,TaskVersionText.started,TaskVersionText.stopped,InstrKey1.keys,InstrKey1.rt,InstrKey1.started,InstrKey1.stopped,text.started,text.stopped,key_resp_4.keys,key_resp_4.rt,key_resp_4.started,key_resp_4.stopped,text_2.started,text_2.stopped,key_resp_3.keys,key_resp_3.rt,key_resp_3.started,key_resp_3.stopped,text_3.started,text_3.stopped,key_resp_2.keys,key_resp_2.rt,key_resp_2.started,key_resp_2.stopped,PractIn1.started,PractIn1.stopped,PractIn2.started,PractIn2.stopped,PractInstructionPass.keys,PractInstructionPass.rt,PractInstructionPass.started,PractInstructionPass.stopped,PractBlock1.started,PractBlock1.stopped,ISIjitterPractice,ISI_Pract_Fixation.started,ISI_Pract_Fixation.stopped,N_backP.started,N_backP.stopped,KeyPractice.keys,KeyPractice.corr,KeyPractice.started,KeyPractice.stopped,text_4.started,text_4.stopped,KeyPractice.rt,TransitionText.started,TransitionText.stopped,key_resp_6.keys,key_resp_6.rt,key_resp_6.started,key_resp_6.stopped,text_5.started,text_5.stopped,key_resp_5.keys,key_resp_5.rt,key_resp_5.started,key_resp_5.stopped,MainInt1.started,MainInt1.stopped,MainInt2.started,MainInt2.stopped,InstructionPass.keys,InstructionPass.rt,InstructionPass.started,InstructionPass.stopped,Blocks1.started,Blocks1.stopped,ISIjitter,N_backD.started,N_backD.stopped,key_resp.keys,key_resp.corr,key_resp.started,key_resp.stopped,key_resp.rt,participant,Study Name,Task Version (required to run),PRE/POST,date,expName,psychopyVersion,frameRate
,,,,,,,,,,,,,,,,,,,,,,,,107.3332579,None,space,26.855987,107.8297348,None,,,,,,,,,,,,,,,,,,,,,,,,,,,,,,,,,,,,,,,,,,,,,,,,,,,,,,,,,,,,,,,,,,,,,,,P041,FENCOG,1,Post,2022_May_16_1217,N-Back (New Version 2021),2021.1.4,119.9531224
,,,,,,,,,,,,,,,,,,,,,,,,,,,,,,134.7191041,None,space,3.2644499,135.2136963,None,,,,,,,,,,,,,,,,,,,,,,,,,,,,,,,,,,,,,,,,,,,,,,,,,,,,,,,,,,,,,,,,,P041,FENCOG,1,Post,2022_May_16_1217,N-Back (New Version 2021),2021.1.4,119.9531224
,,,,,,,,,,,,,,,,,,,,,,,,,,,,,,,,,,,,138.5220643,None,space,1.5847356,139.0128523,None,,,,,,,,,,,,,,,,,,,,,,,,,,,,,,,,,,,,,,,,,,,,,,,,,,,,,,,,,,,P041,FENCOG,1,Post,2022_May_16_1217,N-Back (New Version 2021),2021.1.4,119.9531224
,,,,,,,,,,,,,,,,,,,,,,,,,,,,,,,,,,,,,,,,,,140.6253948,None,space,3.0457201,141.1120191,None,,,,,,,,,,,,,,,,,,,,,,,,,,,,,,,,,,,,,,,,,,,,,,,,,,,,,P041,FENCOG,1,Post,2022_May_16_1217,N-Back (New Version 2021),2021.1.4,119.9531224
Conditions/Version_1Pr/zeroback(1)_v1.xlsx,Rule: Press 'space' when you see the letter 'x' or 'X'.,Z,None,,,,,0,0,0,0,0,0,0,0,,,,,,,,,,,,,,,,,,,,,,,,,,,,,,,,,145.5609425,None,148.5442322,None,space,0.6852907,148.5442322,None,145.5609425,None,1.54,149.2645307,None,150.8146599,None,None,1,150.8146599,None,152.8175945,None,,,,,,,,,,,,,,,,,,,,,,,,,,,,,,,,P041,FENCOG,1,Post,2022_May_16_1217,N-Back (New Version 2021),2021.1.4,119.9531224
Conditions/Version_1Pr/zeroback(1)_v1.xlsx,Rule: Press 'space' when you see the letter 'x' or 'X'.,r,None,,,,,0,0,0,0,0,1,1,1,,,,,,,,,,,,,,,,,,,,,,,,,,,,,,,,,,,,,,,,,,,1.94,154.3158152,None,156.2584184,None,None,1,156.2584184,None,158.2574229,None,,,,,,,,,,,,,,,,,,,,,,,,,,,,,,,,P041,FENCOG,1,Post,2022_May_16_1217,N-Back (New Version 2021),2021.1.4,119.9531224
Conditions/Version_1Pr/zeroback(1)_v1.xlsx,Rule: Press 'space' when you see the letter 'x' or 'X'.,X,space,,,,,0,0,0,0,0,2,2,2,,,,,,,,,,,,,,,,,,,,,,,,,,,,,,,,,,,,,,,,,,,1.315,159.7644703,None,161.0842032,None,space,1,161.0842032,None,161.3978391,None,0.3052235,,,,,,,,,,,,,,,,,,,,,,,,,,,,,,,P041,FENCOG,1,Post,2022_May_16_1217,N-Back (New Version 2021),2021.1.4,119.9531224
Conditions/Version_1Pr/zeroback(1)_v1.xlsx,Rule: Press 'space' when you see the letter 'x' or 'X'.,p,None,,,,,0,0,0,0,0,3,3,3,,,,,,,,,,,,,,,,,,,,,,,,,,,,,,,,,,,,,,,,,,,1.19,162.9049261,None,164.1053877,None,None,1,164.1053877,None,166.1040347,None,,,,,,,,,,,,,,,,,,,,,,,,,,,,,,,,P041,FENCOG,1,Post,2022_May_16_1217,N-Back (New Version 2021),2021.1.4,119.9531224
Conditions/Version_1Pr/zeroback(1)_v1.xlsx,Rule: Press 'space' when you see the letter 'x' or 'X'.,w,None,,,,,0,0,0,0,0,4,4,4,,,,,,,,,,,,,,,,,,,,,,,,,,,,,,,,,,,,,,,,,,,1.24,167.6035323,None,168.845636,None,None,1,168.845636,None,170.8526437,None,,,,,,,,,,,,,,,,,,,,,,,,,,,,,,,,P041,FENCOG,1,Post,2022_May_16_1217,N-Back (New Version 2021),2021.1.4,119.9531224
Conditions/Version_1Pr/zeroback(1)_v1.xlsx,Rule: Press 'space' when you see the letter 'x' or 'X'.,e,None,,,,,0,0,0,0,0,5,5,5,,,,,,,,,,,,,,,,,,,,,,,,,,,,,,,,,,,,,,,,,,,1.79,172.3519821,None,174.1482587,None,None,1,174.1482587,None,176.1510101,None,,,,,,,,,,,,,,,,,,,,,,,,,,,,,,,,P041,FENCOG,1,Post,2022_May_16_1217,N-Back (New Version 2021),2021.1.4,119.9531224
Conditions/Version_1Pr/zeroback(1)_v1.xlsx,Rule: Press 'space' when you see the letter 'x' or 'X'.,X,space,,,,,0,0,0,0,0,6,6,6,,,,,,,,,,,,,,,,,,,,,,,,,,,,,,,,,,,,,,,,,,,1.265,177.6505887,None,178.9230039,None,space,1,178.9230039,None,179.3546463,None,0.4112797,,,,,,,,,,,,,,,,,,,,,,,,,,,,,,,P041,FENCOG,1,Post,2022_May_16_1217,N-Back (New Version 2021),2021.1.4,119.9531224
Conditions/Version_1Pr/zeroback(1)_v1.xlsx,Rule: Press 'space' when you see the letter 'x' or 'X'.,x,space,,,,,0,0,0,0,0,7,7,7,,,,,,,,,,,,,,,,,,,,,,,,,,,,,,,,,,,,,,,,,,,1.39,180.8579318,None,182.2508595,None,space,1,182.2508595,None,182.8000113,None,0.5388496,,,,,,,,,,,,,,,,,,,,,,,,,,,,,,,P041,FENCOG,1,Post,2022_May_16_1217,N-Back (New Version 2021),2021.1.4,119.9531224
Conditions/Version_1Pr/zeroback(1)_v1.xlsx,Rule: Press 'space' when you see the letter 'x' or 'X'.,p,None,,,,,0,0,0,0,0,8,8,8,,,,,,,,,,,,,,,,,,,,,,,,,,,,,,,,,,,,,,,,,,,1.34,184.3066755,None,185.6479818,None,None,1,185.6479818,None,187.6475737,None,,,,,,,,,,,,,,,,,,,,,,,,,,,,,,,,P041,FENCOG,1,Post,2022_May_16_1217,N-Back (New Version 2021),2021.1.4,119.9531224
Conditions/Version_1Pr/zeroback(1)_v1.xlsx,Rule: Press 'space' when you see the letter 'x' or 'X'.,r,None,,,,,0,0,0,0,0,9,9,9,,,,,,,,,,,,,,,,,,,,,,,,,,,,,,,,,,,,,,,,,,,1.215,189.1472164,None,190.3632372,None,None,1,190.3632372,None,192.3626538,None,,,,,,,,,,,,,,,,,,,,,,,,,,,,,,,,P041,FENCOG,1,Post,2022_May_16_1217,N-Back (New Version 2021),2021.1.4,119.9531224
Conditions/Version_1Pr/zeroback(1)_v1.xlsx,Rule: Press 'space' when you see the letter 'x' or 'X'.,,,,,,,0,0,0,0,,,,,,,,,,,,,,,,,,,,,,,,,,,,,,,,,,,,,,,,,,,,,,,,,,,,,,,,,,,,,,,,,,,,,,,,,,,,,,,,,,,,,,,,,P041,FENCOG,1,Post,2022_May_16_1217,N-Back (New Version 2021),2021.1.4,119.9531224
Conditions/Version_1Pr/oneback(1)_v1.xlsx,New rule: Press 'space' when you see 1-back (i.e. the same letter as the one that appeared 1 letter ago.),a,None,,,,,0,1,1,1,0,0,0,0,,,,,,,,,,,,,,,,,,,,,,,,,,,,,,,,,193.8948322,None,196.8801273,None,space,2.4294915,196.8801273,None,193.8948322,None,1.14,199.3380157,None,200.4800723,None,None,1,200.4800723,None,202.4789098,None,,,,,,,,,,,,,,,,,,,,,,,,,,,,,,,,P041,FENCOG,1,Post,2022_May_16_1217,N-Back (New Version 2021),2021.1.4,119.9531224
Conditions/Version_1Pr/oneback(1)_v1.xlsx,New rule: Press 'space' when you see 1-back (i.e. the same letter as the one that appeared 1 letter ago.),x,None,,,,,0,1,1,1,0,1,1,1,,,,,,,,,,,,,,,,,,,,,,,,,,,,,,,,,,,,,,,,,,,1.515,203.9841975,None,205.5045898,None,None,1,205.5045898,None,207.5083935,None,,,,,,,,,,,,,,,,,,,,,,,,,,,,,,,,P041,FENCOG,1,Post,2022_May_16_1217,N-Back (New Version 2021),2021.1.4,119.9531224
Conditions/Version_1Pr/oneback(1)_v1.xlsx,New rule: Press 'space' when you see 1-back (i.e. the same letter as the one that appeared 1 letter ago.),g,None,,,,,0,1,1,1,0,2,2,2,,,,,,,,,,,,,,,,,,,,,,,,,,,,,,,,,,,,,,,,,,,1.74,209.0079661,None,210.750607,None,None,1,210.750607,None,212.7567981,None,,,,,,,,,,,,,,,,,,,,,,,,,,,,,,,,P041,FENCOG,1,Post,2022_May_16_1217,N-Back (New Version 2021),2021.1.4,119.9531224
Conditions/Version_1Pr/oneback(1)_v1.xlsx,New rule: Press 'space' when you see 1-back (i.e. the same letter as the one that appeared 1 letter ago.),G,space,,,,,0,1,1,1,0,3,3,3,,,,,,,,,,,,,,,,,,,,,,,,,,,,,,,,,,,,,,,,,,,1.64,214.2579829,None,215.9070314,None,space,1,215.9070314,None,216.1833951,None,0.2667708,,,,,,,,,,,,,,,,,,,,,,,,,,,,,,,P041,FENCOG,1,Post,2022_May_16_1217,N-Back (New Version 2021),2021.1.4,119.9531224
Conditions/Version_1Pr/oneback(1)_v1.xlsx,New rule: Press 'space' when you see 1-back (i.e. the same letter as the one that appeared 1 letter ago.),u,None,,,,,0,1,1,1,0,4,4,4,,,,,,,,,,,,,,,,,,,,,,,,,,,,,,,,,,,,,,,,,,,1.315,217.688561,None,219.0065493,None,None,1,219.0065493,None,221.0127622,None,,,,,,,,,,,,,,,,,,,,,,,,,,,,,,,,P041,FENCOG,1,Post,2022_May_16_1217,N-Back (New Version 2021),2021.1.4,119.9531224
Conditions/Version_1Pr/oneback(1)_v1.xlsx,New rule: Press 'space' when you see 1-back (i.e. the same letter as the one that appeared 1 letter ago.),y,None,,,,,0,1,1,1,0,5,5,5,,,,,,,,,,,,,,,,,,,,,,,,,,,,,,,,,,,,,,,,,,,1.215,222.5123326,None,223.7325825,None,None,1,223.7325825,None,225.7402056,None,,,,,,,,,,,,,,,,,,,,,,,,,,,,,,,,P041,FENCOG,1,Post,2022_May_16_1217,N-Back (New Version 2021),2021.1.4,119.9531224
Conditions/Version_1Pr/oneback(1)_v1.xlsx,New rule: Press 'space' when you see 1-back (i.e. the same letter as the one that appeared 1 letter ago.),y,space,,,,,0,1,1,1,0,6,6,6,,,,,,,,,,,,,,,,,,,,,,,,,,,,,,,,,,,,,,,,,,,1.465,227.2359536,None,228.7020373,None,space,1,228.7020373,None,229.0034669,None,0.2875376,,,,,,,,,,,,,,,,,,,,,,,,,,,,,,,P041,FENCOG,1,Post,2022_May_16_1217,N-Back (New Version 2021),2021.1.4,119.9531224
Conditions/Version_1Pr/oneback(1)_v1.xlsx,New rule: Press 'space' when you see 1-back (i.e. the same letter as the one that appeared 1 letter ago.),k,None,,,,,0,1,1,1,0,7,7,7,,,,,,,,,,,,,,,,,,,,,,,,,,,,,,,,,,,,,,,,,,,2.015,230.5099734,None,232.5286797,None,None,1,232.5286797,None,234.5335782,None,,,,,,,,,,,,,,,,,,,,,,,,,,,,,,,,P041,FENCOG,1,Post,2022_May_16_1217,N-Back (New Version 2021),2021.1.4,119.9531224
Conditions/Version_1Pr/oneback(1)_v1.xlsx,New rule: Press 'space' when you see 1-back (i.e. the same letter as the one that appeared 1 letter ago.),c,None,,,,,0,1,1,1,0,8,8,8,,,,,,,,,,,,,,,,,,,,,,,,,,,,,,,,,,,,,,,,,,,1.34,236.0332847,None,237.375149,None,None,1,237.375149,None,239.3791339,None,,,,,,,,,,,,,,,,,,,,,,,,,,,,,,,,P041,FENCOG,1,Post,2022_May_16_1217,N-Back (New Version 2021),2021.1.4,119.9531224
Conditions/Version_1Pr/oneback(1)_v1.xlsx,New rule: Press 'space' when you see 1-back (i.e. the same letter as the one that appeared 1 letter ago.),r,None,,,,,0,1,1,1,0,9,9,9,,,,,,,,,,,,,,,,,,,,,,,,,,,,,,,,,,,,,,,,,,,1.815,240.8819301,None,242.6986023,None,None,1,242.6986023,None,244.7055194,None,,,,,,,,,,,,,,,,,,,,,,,,,,,,,,,,P041,FENCOG,1,Post,2022_May_16_1217,N-Back (New Version 2021),2021.1.4,119.9531224
Conditions/Version_1Pr/oneback(1)_v1.xlsx,New rule: Press 'space' when you see 1-back (i.e. the same letter as the one that appeared 1 letter ago.),,,,,,,0,1,1,1,,,,,,,,,,,,,,,,,,,,,,,,,,,,,,,,,,,,,,,,,,,,,,,,,,,,,,,,,,,,,,,,,,,,,,,,,,,,,,,,,,,,,,,,,P041,FENCOG,1,Post,2022_May_16_1217,N-Back (New Version 2021),2021.1.4,119.9531224
Conditions/Version_1Pr/twoback(1)_v1.xlsx,New rule: Press 'space' when you see 2-back (i.e. the same letter as the one that appeared 2 letters ago.),E,None,,,,,0,2,2,2,0,0,0,0,,,,,,,,,,,,,,,,,,,,,,,,,,,,,,,,,246.22505,None,249.2149411,None,space,1.0624218,249.2149411,None,246.22505,None,1.665,250.3137316,None,251.9865575,None,None,1,251.9865575,None,253.9819929,None,,,,,,,,,,,,,,,,,,,,,,,,,,,,,,,,P041,FENCOG,1,Post,2022_May_16_1217,N-Back (New Version 2021),2021.1.4,119.9531224
Conditions/Version_1Pr/twoback(1)_v1.xlsx,New rule: Press 'space' when you see 2-back (i.e. the same letter as the one that appeared 2 letters ago.),p,None,,,,,0,2,2,2,0,1,1,1,,,,,,,,,,,,,,,,,,,,,,,,,,,,,,,,,,,,,,,,,,,1.415,255.4859426,None,256.90269,None,None,1,256.90269,None,258.9096954,None,,,,,,,,,,,,,,,,,,,,,,,,,,,,,,,,P041,FENCOG,1,Post,2022_May_16_1217,N-Back (New Version 2021),2021.1.4,119.9531224
Conditions/Version_1Pr/twoback(1)_v1.xlsx,New rule: Press 'space' when you see 2-back (i.e. the same letter as the one that appeared 2 letters ago.),e,space,,,,,0,2,2,2,0,2,2,2,,,,,,,,,,,,,,,,,,,,,,,,,,,,,,,,,,,,,,,,,,,1.765,260.4094189,None,262.1753498,None,space,1,262.1753498,None,262.5062868,None,0.3181728,,,,,,,,,,,,,,,,,,,,,,,,,,,,,,,P041,FENCOG,1,Post,2022_May_16_1217,N-Back (New Version 2021),2021.1.4,119.9531224
Conditions/Version_1Pr/twoback(1)_v1.xlsx,New rule: Press 'space' when you see 2-back (i.e. the same letter as the one that appeared 2 letters ago.),s,None,,,,,0,2,2,2,0,3,3,3,,,,,,,,,,,,,,,,,,,,,,,,,,,,,,,,,,,,,,,,,,,1.565,264.0081065,None,265.5773556,None,None,1,265.5773556,None,267.582379,None,,,,,,,,,,,,,,,,,,,,,,,,,,,,,,,,P041,FENCOG,1,Post,2022_May_16_1217,N-Back (New Version 2021),2021.1.4,119.9531224
Conditions/Version_1Pr/twoback(1)_v1.xlsx,New rule: Press 'space' when you see 2-back (i.e. the same letter as the one that appeared 2 letters ago.),S,None,,,,,0,2,2,2,0,4,4,4,,,,,,,,,,,,,,,,,,,,,,,,,,,,,,,,,,,,,,,,,,,1.215,269.0818345,None,270.3056882,None,space,0,270.3056882,None,270.7703951,None,0.4515502,,,,,,,,,,,,,,,,,,,,,,,,,,,,,,,P041,FENCOG,1,Post,2022_May_16_1217,N-Back (New Version 2021),2021.1.4,119.9531224
Conditions/Version_1Pr/twoback(1)_v1.xlsx,New rule: Press 'space' when you see 2-back (i.e. the same letter as the one that appeared 2 letters ago.),s,space,,,,,0,2,2,2,0,5,5,5,,,,,,,,,,,,,,,,,,,,,,,,,,,,,,,,,,,,,,,,,,,1.79,272.2725899,None,274.063504,None,space,1,274.063504,None,274.7356794,None,0.6540949,,,,,,,,,,,,,,,,,,,,,,,,,,,,,,,P041,FENCOG,1,Post,2022_May_16_1217,N-Back (New Version 2021),2021.1.4,119.9531224
Conditions/Version_1Pr/twoback(1)_v1.xlsx,New rule: Press 'space' when you see 2-back (i.e. the same letter as the one that appeared 2 letters ago.),P,None,,,,,0,2,2,2,0,6,6,6,,,,,,,,,,,,,,,,,,,,,,,,,,,,,,,,,,,,,,,,,,,1.165,276.2381154,None,277.4120368,None,None,1,277.4120368,None,279.4121795,None,,,,,,,,,,,,,,,,,,,,,,,,,,,,,,,,P041,FENCOG,1,Post,2022_May_16_1217,N-Back (New Version 2021),2021.1.4,119.9531224
Conditions/Version_1Pr/twoback(1)_v1.xlsx,New rule: Press 'space' when you see 2-back (i.e. the same letter as the one that appeared 2 letters ago.),C,None,,,,,0,2,2,2,0,7,7,7,,,,,,,,,,,,,,,,,,,,,,,,,,,,,,,,,,,,,,,,,,,1.465,280.9116624,None,282.3825964,None,None,1,282.3825964,None,284.3857305,None,,,,,,,,,,,,,,,,,,,,,,,,,,,,,,,,P041,FENCOG,1,Post,2022_May_16_1217,N-Back (New Version 2021),2021.1.4,119.9531224
Conditions/Version_1Pr/twoback(1)_v1.xlsx,New rule: Press 'space' when you see 2-back (i.e. the same letter as the one that appeared 2 letters ago.),x,None,,,,,0,2,2,2,0,8,8,8,,,,,,,,,,,,,,,,,,,,,,,,,,,,,,,,,,,,,,,,,,,1.99,285.8852971,None,287.8762686,None,None,1,287.8762686,None,289.8758077,None,,,,,,,,,,,,,,,,,,,,,,,,,,,,,,,,P041,FENCOG,1,Post,2022_May_16_1217,N-Back (New Version 2021),2021.1.4,119.9531224
Conditions/Version_1Pr/twoback(1)_v1.xlsx,New rule: Press 'space' when you see 2-back (i.e. the same letter as the one that appeared 2 letters ago.),Z,None,,,,,0,2,2,2,0,9,9,9,,,,,,,,,,,,,,,,,,,,,,,,,,,,,,,,,,,,,,,,,,,1.715,291.3752841,None,293.0949356,None,None,1,293.0949356,None,295.0991943,None,,,,,,,,,,,,,,,,,,,,,,,,,,,,,,,,P041,FENCOG,1,Post,2022_May_16_1217,N-Back (New Version 2021),2021.1.4,119.9531224
Conditions/Version_1Pr/twoback(1)_v1.xlsx,New rule: Press 'space' when you see 2-back (i.e. the same letter as the one that appeared 2 letters ago.),,,,,,,0,2,2,2,,,,,,,,,,,,,,,,,,,,,,,,,,,,,,,,,,,,,,,,,,,,,,,,,,,,,,,,,,,,,,,,,,,,,,,,,,,,,,,,,,,,,,,,,P041,FENCOG,1,Post,2022_May_16_1217,N-Back (New Version 2021),2021.1.4,119.9531224
Conditions/Version_1Pr/threeback(1)_v1.xlsx,New rule: Press 'space' when you see 3-back (i.e. the same letter as the one that appeared 3 letters ago.),r,None,,,,,0,3,3,3,0,0,0,0,,,,,,,,,,,,,,,,,,,,,,,,,,,,,,,,,296.6189571,None,299.605171,None,space,2.1122214,299.605171,None,296.6189571,None,1.715,301.7450132,None,303.4639992,None,None,1,303.4639992,None,305.4707204,None,,,,,,,,,,,,,,,,,,,,,,,,,,,,,,,,P041,FENCOG,1,Post,2022_May_16_1217,N-Back (New Version 2021),2021.1.4,119.9531224
Conditions/Version_1Pr/threeback(1)_v1.xlsx,New rule: Press 'space' when you see 3-back (i.e. the same letter as the one that appeared 3 letters ago.),a,None,,,,,0,3,3,3,0,1,1,1,,,,,,,,,,,,,,,,,,,,,,,,,,,,,,,,,,,,,,,,,,,1.49,306.9722028,None,308.4627931,None,None,1,308.4627931,None,310.4697272,None,,,,,,,,,,,,,,,,,,,,,,,,,,,,,,,,P041,FENCOG,1,Post,2022_May_16_1217,N-Back (New Version 2021),2021.1.4,119.9531224
Conditions/Version_1Pr/threeback(1)_v1.xlsx,New rule: Press 'space' when you see 3-back (i.e. the same letter as the one that appeared 3 letters ago.),t,None,,,,,0,3,3,3,0,2,2,2,,,,,,,,,,,,,,,,,,,,,,,,,,,,,,,,,,,,,,,,,,,2.015,311.9692521,None,313.9859122,None,None,1,313.9859122,None,315.9886695,None,,,,,,,,,,,,,,,,,,,,,,,,,,,,,,,,P041,FENCOG,1,Post,2022_May_16_1217,N-Back (New Version 2021),2021.1.4,119.9531224
Conditions/Version_1Pr/threeback(1)_v1.xlsx,New rule: Press 'space' when you see 3-back (i.e. the same letter as the one that appeared 3 letters ago.),r,space,,,,,0,3,3,3,0,3,3,3,,,,,,,,,,,,,,,,,,,,,,,,,,,,,,,,,,,,,,,,,,,1.54,317.4923846,None,319.0415138,None,space,1,319.0415138,None,319.4916746,None,0.4284139,,,,,,,,,,,,,,,,,,,,,,,,,,,,,,,P041,FENCOG,1,Post,2022_May_16_1217,N-Back (New Version 2021),2021.1.4,119.9531224
Conditions/Version_1Pr/threeback(1)_v1.xlsx,New rule: Press 'space' when you see 3-back (i.e. the same letter as the one that appeared 3 letters ago.),a,None,,,,,0,3,3,3,0,4,4,4,,,,,,,,,,,,,,,,,,,,,,,,,,,,,,,,,,,,,,,,,,,1.515,320.9928626,None,322.5076085,None,space,0,322.5076085,None,323.012559,None,0.4896089,,,,,,,,,,,,,,,,,,,,,,,,,,,,,,,P041,FENCOG,1,Post,2022_May_16_1217,N-Back (New Version 2021),2021.1.4,119.9531224
Conditions/Version_1Pr/threeback(1)_v1.xlsx,New rule: Press 'space' when you see 3-back (i.e. the same letter as the one that appeared 3 letters ago.),Y,None,,,,,0,3,3,3,0,5,5,5,,,,,,,,,,,,,,,,,,,,,,,,,,,,,,,,,,,,,,,,,,,1.815,324.5154957,None,326.3337698,None,None,1,326.3337698,None,328.3391125,None,,,,,,,,,,,,,,,,,,,,,,,,,,,,,,,,P041,FENCOG,1,Post,2022_May_16_1217,N-Back (New Version 2021),2021.1.4,119.9531224
Conditions/Version_1Pr/threeback(1)_v1.xlsx,New rule: Press 'space' when you see 3-back (i.e. the same letter as the one that appeared 3 letters ago.),q,None,,,,,0,3,3,3,0,6,6,6,,,,,,,,,,,,,,,,,,,,,,,,,,,,,,,,,,,,,,,,,,,1.565,329.8387782,None,331.4058985,None,None,1,331.4058985,None,333.412858,None,,,,,,,,,,,,,,,,,,,,,,,,,,,,,,,,P041,FENCOG,1,Post,2022_May_16_1217,N-Back (New Version 2021),2021.1.4,119.9531224
Conditions/Version_1Pr/threeback(1)_v1.xlsx,New rule: Press 'space' when you see 3-back (i.e. the same letter as the one that appeared 3 letters ago.),A,space,,,,,0,3,3,3,0,7,7,7,,,,,,,,,,,,,,,,,,,,,,,,,,,,,,,,,,,,,,,,,,,1.39,334.9124296,None,336.308908,None,space,1,336.308908,None,337.1622464,None,0.8404209,,,,,,,,,,,,,,,,,,,,,,,,,,,,,,,P041,FENCOG,1,Post,2022_May_16_1217,N-Back (New Version 2021),2021.1.4,119.9531224
Conditions/Version_1Pr/threeback(1)_v1.xlsx,New rule: Press 'space' when you see 3-back (i.e. the same letter as the one that appeared 3 letters ago.),y,None,,,,,0,3,3,3,0,8,8,8,,,,,,,,,,,,,,,,,,,,,,,,,,,,,,,,,,,,,,,,,,,1.665,338.6613438,None,340.3282723,None,space,0,340.3282723,None,341.0923395,None,0.7414173,,,,,,,,,,,,,,,,,,,,,,,,,,,,,,,P041,FENCOG,1,Post,2022_May_16_1217,N-Back (New Version 2021),2021.1.4,119.9531224
Conditions/Version_1Pr/threeback(1)_v1.xlsx,New rule: Press 'space' when you see 3-back (i.e. the same letter as the one that appeared 3 letters ago.),r,None,,,,,0,3,3,3,0,9,9,9,,,,,,,,,,,,,,,,,,,,,,,,,,,,,,,,,,,,,,,,,,,1.79,342.5934805,None,344.3892781,None,None,1,344.3892781,None,346.3925446,None,,,,,,,,,,,,,,,,,,,,,,,,,,,,,,,,P041,FENCOG,1,Post,2022_May_16_1217,N-Back (New Version 2021),2021.1.4,119.9531224
Conditions/Version_1Pr/threeback(1)_v1.xlsx,New rule: Press 'space' when you see 3-back (i.e. the same letter as the one that appeared 3 letters ago.),,,,,,,0,3,3,3,,,,,,,,,,,,,,,,,,,,,,,,,,,,,,,,,,,,,,,,,,,,,,,,,,,,,,,,,,,,,,,,,,,,,,,,,,,,,,,,,,,,,,,,,P041,FENCOG,1,Post,2022_May_16_1217,N-Back (New Version 2021),2021.1.4,119.9531224
,,,,,,,,,,,,,,,,,,,,,,,,,,,,,,,,,,,,,,,,,,,,,,,,,,,,,,,,,,,,,,,,,,,,,,347.8997883,None,space,0.9251878,348.3920742,None,,,,,,,,,,,,,,,,,,,,,,,,,P041,FENCOG,1,Post,2022_May_16_1217,N-Back (New Version 2021),2021.1.4,119.9531224
,,,,,,,,,,,,,,,,,,,,,,,,,,,,,,,,,,,,,,,,,,,,,,,,,,,,,,,,,,,,,,,,,,,,,,,,,,,,349.3393576,None,space,10.9238341,349.8334172,None,,,,,,,,,,,,,,,,,,,P041,FENCOG,1,Post,2022_May_16_1217,N-Back (New Version 2021),2021.1.4,119.9531224
,,,,Conditions/Version_1/zeroback(1)_v1.xlsx,Rule: Press 'space' when you see the letter 'x' or 'X'.,b,None,,,,,,,,,0,0,0,0,0,0,0,0,,,,,,,,,,,,,,,,,,,,,,,,,,,,,,,,,,,,,,,,,,,,,,,,,,,,,,,,,,,360.8933513,None,363.8870172,None,space,0.5824638,363.8870172,None,360.8933513,None,1.01,365.5307624,None,None,1,365.5307624,None,,P041,FENCOG,1,Post,2022_May_16_1217,N-Back (New Version 2021),2021.1.4,119.9531224
,,,,Conditions/Version_1/zeroback(1)_v1.xlsx,Rule: Press 'space' when you see the letter 'x' or 'X'.,T,None,,,,,,,,,0,0,0,0,0,1,1,1,,,,,,,,,,,,,,,,,,,,,,,,,,,,,,,,,,,,,,,,,,,,,,,,,,,,,,,,,,,,,,,,,,,,,1.258,368.7980745,None,None,1,368.7980745,None,,P041,FENCOG,1,Post,2022_May_16_1217,N-Back (New Version 2021),2021.1.4,119.9531224
,,,,Conditions/Version_1/zeroback(1)_v1.xlsx,Rule: Press 'space' when you see the letter 'x' or 'X'.,L,None,,,,,,,,,0,0,0,0,0,2,2,2,,,,,,,,,,,,,,,,,,,,,,,,,,,,,,,,,,,,,,,,,,,,,,,,,,,,,,,,,,,,,,,,,,,,,1.4502,372.2614735,None,None,1,372.2614735,None,,P041,FENCOG,1,Post,2022_May_16_1217,N-Back (New Version 2021),2021.1.4,119.9531224
,,,,Conditions/Version_1/zeroback(1)_v1.xlsx,Rule: Press 'space' when you see the letter 'x' or 'X'.,x,space,,,,,,,,,0,0,0,0,0,3,3,3,,,,,,,,,,,,,,,,,,,,,,,,,,,,,,,,,,,,,,,,,,,,,,,,,,,,,,,,,,,,,,,,,,,,,1.8966,376.1668905,None,space,1,376.1668905,None,0.3185875,P041,FENCOG,1,Post,2022_May_16_1217,N-Back (New Version 2021),2021.1.4,119.9531224
,,,,Conditions/Version_1/zeroback(1)_v1.xlsx,Rule: Press 'space' when you see the letter 'x' or 'X'.,o,None,,,,,,,,,0,0,0,0,0,4,4,4,,,,,,,,,,,,,,,,,,,,,,,,,,,,,,,,,,,,,,,,,,,,,,,,,,,,,,,,,,,,,,,,,,,,,1.7726,379.9504386,None,None,1,379.9504386,None,,P041,FENCOG,1,Post,2022_May_16_1217,N-Back (New Version 2021),2021.1.4,119.9531224
,,,,Conditions/Version_1/zeroback(1)_v1.xlsx,Rule: Press 'space' when you see the letter 'x' or 'X'.,P,None,,,,,,,,,0,0,0,0,0,5,5,5,,,,,,,,,,,,,,,,,,,,,,,,,,,,,,,,,,,,,,,,,,,,,,,,,,,,,,,,,,,,,,,,,,,,,1.1774,383.1314352,None,None,1,383.1314352,None,,P041,FENCOG,1,Post,2022_May_16_1217,N-Back (New Version 2021),2021.1.4,119.9531224
,,,,Conditions/Version_1/zeroback(1)_v1.xlsx,Rule: Press 'space' when you see the letter 'x' or 'X'.,X,space,,,,,,,,,0,0,0,0,0,6,6,6,,,,,,,,,,,,,,,,,,,,,,,,,,,,,,,,,,,,,,,,,,,,,,,,,,,,,,,,,,,,,,,,,,,,,1.506,386.6386196,None,space,1,386.6386196,None,0.3027125,P041,FENCOG,1,Post,2022_May_16_1217,N-Back (New Version 2021),2021.1.4,119.9531224
,,,,Conditions/Version_1/zeroback(1)_v1.xlsx,Rule: Press 'space' when you see the letter 'x' or 'X'.,n,None,,,,,,,,,0,0,0,0,0,7,7,7,,,,,,,,,,,,,,,,,,,,,,,,,,,,,,,,,,,,,,,,,,,,,,,,,,,,,,,,,,,,,,,,,,,,,1.5556,390.2095774,None,None,1,390.2095774,None,,P041,FENCOG,1,Post,2022_May_16_1217,N-Back (New Version 2021),2021.1.4,119.9531224
,,,,Conditions/Version_1/zeroback(1)_v1.xlsx,Rule: Press 'space' when you see the letter 'x' or 'X'.,M,None,,,,,,,,,0,0,0,0,0,8,8,8,,,,,,,,,,,,,,,,,,,,,,,,,,,,,,,,,,,,,,,,,,,,,,,,,,,,,,,,,,,,,,,,,,,,,1.0348,393.2481935,None,None,1,393.2481935,None,,P041,FENCOG,1,Post,2022_May_16_1217,N-Back (New Version 2021),2021.1.4,119.9531224
,,,,Conditions/Version_1/zeroback(1)_v1.xlsx,Rule: Press 'space' when you see the letter 'x' or 'X'.,a,None,,,,,,,,,0,0,0,0,0,9,9,9,,,,,,,,,,,,,,,,,,,,,,,,,,,,,,,,,,,,,,,,,,,,,,,,,,,,,,,,,,,,,,,,,,,,,1.0906,396.3441249,None,None,1,396.3441249,None,,P041,FENCOG,1,Post,2022_May_16_1217,N-Back (New Version 2021),2021.1.4,119.9531224
,,,,Conditions/Version_1/zeroback(1)_v1.xlsx,Rule: Press 'space' when you see the letter 'x' or 'X'.,,,,,,,,,,,0,0,0,0,,,,,,,,,,,,,,,,,,,,,,,,,,,,,,,,,,,,,,,,,,,,,,,,,,,,,,,,,,,,,,,,,,,,,,,,,,,,,,,,,P041,FENCOG,1,Post,2022_May_16_1217,N-Back (New Version 2021),2021.1.4,119.9531224
,,,,Conditions/Version_1/oneback(1)_v1.xlsx,New rule: Press 'space' when you see 1-back (i.e. the same letter as the one that appeared 1 letter ago.),b,None,,,,,,,,,0,1,1,1,0,0,0,0,,,,,,,,,,,,,,,,,,,,,,,,,,,,,,,,,,,,,,,,,,,,,,,,,,,,,,,,,,,398.3649485,None,401.3667797,None,space,2.9664333,401.3667797,None,398.3649485,None,1.9028,406.2661773,None,None,1,406.2661773,None,,P041,FENCOG,1,Post,2022_May_16_1217,N-Back (New Version 2021),2021.1.4,119.9531224
,,,,Conditions/Version_1/oneback(1)_v1.xlsx,New rule: Press 'space' when you see 1-back (i.e. the same letter as the one that appeared 1 letter ago.),p,None,,,,,,,,,0,1,1,1,0,1,1,1,,,,,,,,,,,,,,,,,,,,,,,,,,,,,,,,,,,,,,,,,,,,,,,,,,,,,,,,,,,,,,,,,,,,,1.1464,409.4164693,None,None,1,409.4164693,None,,P041,FENCOG,1,Post,2022_May_16_1217,N-Back (New Version 2021),2021.1.4,119.9531224
,,,,Conditions/Version_1/oneback(1)_v1.xlsx,New rule: Press 'space' when you see 1-back (i.e. the same letter as the one that appeared 1 letter ago.),M,None,,,,,,,,,0,1,1,1,0,2,2,2,,,,,,,,,,,,,,,,,,,,,,,,,,,,,,,,,,,,,,,,,,,,,,,,,,,,,,,,,,,,,,,,,,,,,1.7478,413.1771911,None,None,1,413.1771911,None,,P041,FENCOG,1,Post,2022_May_16_1217,N-Back (New Version 2021),2021.1.4,119.9531224
,,,,Conditions/Version_1/oneback(1)_v1.xlsx,New rule: Press 'space' when you see 1-back (i.e. the same letter as the one that appeared 1 letter ago.),M,space,,,,,,,,,0,1,1,1,0,3,3,3,,,,,,,,,,,,,,,,,,,,,,,,,,,,,,,,,,,,,,,,,,,,,,,,,,,,,,,,,,,,,,,,,,,,,1.9462,417.1299106,None,space,1,417.1299106,None,0.4274462,P041,FENCOG,1,Post,2022_May_16_1217,N-Back (New Version 2021),2021.1.4,119.9531224
,,,,Conditions/Version_1/oneback(1)_v1.xlsx,New rule: Press 'space' when you see 1-back (i.e. the same letter as the one that appeared 1 letter ago.),n,None,,,,,,,,,0,1,1,1,0,4,4,4,,,,,,,,,,,,,,,,,,,,,,,,,,,,,,,,,,,,,,,,,,,,,,,,,,,,,,,,,,,,,,,,,,,,,1.4378,420.5703849,None,None,1,420.5703849,None,,P041,FENCOG,1,Post,2022_May_16_1217,N-Back (New Version 2021),2021.1.4,119.9531224
,,,,Conditions/Version_1/oneback(1)_v1.xlsx,New rule: Press 'space' when you see 1-back (i.e. the same letter as the one that appeared 1 letter ago.),g,None,,,,,,,,,0,1,1,1,0,5,5,5,,,,,,,,,,,,,,,,,,,,,,,,,,,,,,,,,,,,,,,,,,,,,,,,,,,,,,,,,,,,,,,,,,,,,1.0224,423.5942156,None,None,1,423.5942156,None,,P041,FENCOG,1,Post,2022_May_16_1217,N-Back (New Version 2021),2021.1.4,119.9531224
,,,,Conditions/Version_1/oneback(1)_v1.xlsx,New rule: Press 'space' when you see 1-back (i.e. the same letter as the one that appeared 1 letter ago.),P,None,,,,,,,,,0,1,1,1,0,6,6,6,,,,,,,,,,,,,,,,,,,,,,,,,,,,,,,,,,,,,,,,,,,,,,,,,,,,,,,,,,,,,,,,,,,,,1.847,427.4431305,None,None,1,427.4431305,None,,P041,FENCOG,1,Post,2022_May_16_1217,N-Back (New Version 2021),2021.1.4,119.9531224
,,,,Conditions/Version_1/oneback(1)_v1.xlsx,New rule: Press 'space' when you see 1-back (i.e. the same letter as the one that appeared 1 letter ago.),o,None,,,,,,,,,0,1,1,1,0,7,7,7,,,,,,,,,,,,,,,,,,,,,,,,,,,,,,,,,,,,,,,,,,,,,,,,,,,,,,,,,,,,,,,,,,,,,1.6052,431.0508246,None,None,1,431.0508246,None,,P041,FENCOG,1,Post,2022_May_16_1217,N-Back (New Version 2021),2021.1.4,119.9531224
,,,,Conditions/Version_1/oneback(1)_v1.xlsx,New rule: Press 'space' when you see 1-back (i.e. the same letter as the one that appeared 1 letter ago.),f,None,,,,,,,,,0,1,1,1,0,8,8,8,,,,,,,,,,,,,,,,,,,,,,,,,,,,,,,,,,,,,,,,,,,,,,,,,,,,,,,,,,,,,,,,,,,,,1.8036,434.8593724,None,None,1,434.8593724,None,,P041,FENCOG,1,Post,2022_May_16_1217,N-Back (New Version 2021),2021.1.4,119.9531224
,,,,Conditions/Version_1/oneback(1)_v1.xlsx,New rule: Press 'space' when you see 1-back (i.e. the same letter as the one that appeared 1 letter ago.),F,space,,,,,,,,,0,1,1,1,0,9,9,9,,,,,,,,,,,,,,,,,,,,,,,,,,,,,,,,,,,,,,,,,,,,,,,,,,,,,,,,,,,,,,,,,,,,,1.3882,438.2584692,None,space,1,438.2584692,None,0.3229022,P041,FENCOG,1,Post,2022_May_16_1217,N-Back (New Version 2021),2021.1.4,119.9531224
,,,,Conditions/Version_1/oneback(1)_v1.xlsx,New rule: Press 'space' when you see 1-back (i.e. the same letter as the one that appeared 1 letter ago.),,,,,,,,,,,0,1,1,1,,,,,,,,,,,,,,,,,,,,,,,,,,,,,,,,,,,,,,,,,,,,,,,,,,,,,,,,,,,,,,,,,,,,,,,,,,,,,,,,,P041,FENCOG,1,Post,2022_May_16_1217,N-Back (New Version 2021),2021.1.4,119.9531224
,,,,Conditions/Version_1/twoback(1)_v1.xlsx,New rule: Press 'space' when you see 2-back (i.e. the same letter as the one that appeared 2 letters ago.),b,None,,,,,,,,,0,2,2,2,0,0,0,0,,,,,,,,,,,,,,,,,,,,,,,,,,,,,,,,,,,,,,,,,,,,,,,,,,,,,,,,,,,440.2869363,None,443.2741067,None,space,1.0750658,443.2741067,None,440.2869363,None,1.3386,445.7222983,None,None,1,445.7222983,None,,P041,FENCOG,1,Post,2022_May_16_1217,N-Back (New Version 2021),2021.1.4,119.9531224
,,,,Conditions/Version_1/twoback(1)_v1.xlsx,New rule: Press 'space' when you see 2-back (i.e. the same letter as the one that appeared 2 letters ago.),h,None,,,,,,,,,0,2,2,2,0,1,1,1,,,,,,,,,,,,,,,,,,,,,,,,,,,,,,,,,,,,,,,,,,,,,,,,,,,,,,,,,,,,,,,,,,,,,1.1836,448.9134518,None,None,1,448.9134518,None,,P041,FENCOG,1,Post,2022_May_16_1217,N-Back (New Version 2021),2021.1.4,119.9531224
,,,,Conditions/Version_1/twoback(1)_v1.xlsx,New rule: Press 'space' when you see 2-back (i.e. the same letter as the one that appeared 2 letters ago.),j,None,,,,,,,,,0,2,2,2,0,2,2,2,,,,,,,,,,,,,,,,,,,,,,,,,,,,,,,,,,,,,,,,,,,,,,,,,,,,,,,,,,,,,,,,,,,,,1.63,452.5545832,None,None,1,452.5545832,None,,P041,FENCOG,1,Post,2022_May_16_1217,N-Back (New Version 2021),2021.1.4,119.9531224
,,,,Conditions/Version_1/twoback(1)_v1.xlsx,New rule: Press 'space' when you see 2-back (i.e. the same letter as the one that appeared 2 letters ago.),H,space,,,,,,,,,0,2,2,2,0,3,3,3,,,,,,,,,,,,,,,,,,,,,,,,,,,,,,,,,,,,,,,,,,,,,,,,,,,,,,,,,,,,,,,,,,,,,1.5866,456.1524385,None,space,1,456.1524385,None,0.3007545,P041,FENCOG,1,Post,2022_May_16_1217,N-Back (New Version 2021),2021.1.4,119.9531224
,,,,Conditions/Version_1/twoback(1)_v1.xlsx,New rule: Press 'space' when you see 2-back (i.e. the same letter as the one that appeared 2 letters ago.),p,None,,,,,,,,,0,2,2,2,0,4,4,4,,,,,,,,,,,,,,,,,,,,,,,,,,,,,,,,,,,,,,,,,,,,,,,,,,,,,,,,,,,,,,,,,,,,,1.0224,459.1839599,None,None,1,459.1839599,None,,P041,FENCOG,1,Post,2022_May_16_1217,N-Back (New Version 2021),2021.1.4,119.9531224
,,,,Conditions/Version_1/twoback(1)_v1.xlsx,New rule: Press 'space' when you see 2-back (i.e. the same letter as the one that appeared 2 letters ago.),p,None,,,,,,,,,0,2,2,2,0,5,5,5,,,,,,,,,,,,,,,,,,,,,,,,,,,,,,,,,,,,,,,,,,,,,,,,,,,,,,,,,,,,,,,,,,,,,1.8036,462.9910515,None,None,1,462.9910515,None,,P041,FENCOG,1,Post,2022_May_16_1217,N-Back (New Version 2021),2021.1.4,119.9531224
,,,,Conditions/Version_1/twoback(1)_v1.xlsx,New rule: Press 'space' when you see 2-back (i.e. the same letter as the one that appeared 2 letters ago.),w,None,,,,,,,,,0,2,2,2,0,6,6,6,,,,,,,,,,,,,,,,,,,,,,,,,,,,,,,,,,,,,,,,,,,,,,,,,,,,,,,,,,,,,,,,,,,,,1.816,466.8174431,None,None,1,466.8174431,None,,P041,FENCOG,1,Post,2022_May_16_1217,N-Back (New Version 2021),2021.1.4,119.9531224
,,,,Conditions/Version_1/twoback(1)_v1.xlsx,New rule: Press 'space' when you see 2-back (i.e. the same letter as the one that appeared 2 letters ago.),R,None,,,,,,,,,0,2,2,2,0,7,7,7,,,,,,,,,,,,,,,,,,,,,,,,,,,,,,,,,,,,,,,,,,,,,,,,,,,,,,,,,,,,,,,,,,,,,1.4378,470.2683569,None,None,1,470.2683569,None,,P041,FENCOG,1,Post,2022_May_16_1217,N-Back (New Version 2021),2021.1.4,119.9531224
,,,,Conditions/Version_1/twoback(1)_v1.xlsx,New rule: Press 'space' when you see 2-back (i.e. the same letter as the one that appeared 2 letters ago.),a,None,,,,,,,,,0,2,2,2,0,8,8,8,,,,,,,,,,,,,,,,,,,,,,,,,,,,,,,,,,,,,,,,,,,,,,,,,,,,,,,,,,,,,,,,,,,,,1.847,474.1263727,None,None,1,474.1263727,None,,P041,FENCOG,1,Post,2022_May_16_1217,N-Back (New Version 2021),2021.1.4,119.9531224
,,,,Conditions/Version_1/twoback(1)_v1.xlsx,New rule: Press 'space' when you see 2-back (i.e. the same letter as the one that appeared 2 letters ago.),r,space,,,,,,,,,0,2,2,2,0,9,9,9,,,,,,,,,,,,,,,,,,,,,,,,,,,,,,,,,,,,,,,,,,,,,,,,,,,,,,,,,,,,,,,,,,,,,1.2084,477.3367007,None,space,1,477.3367007,None,0.78852,P041,FENCOG,1,Post,2022_May_16_1217,N-Back (New Version 2021),2021.1.4,119.9531224
,,,,Conditions/Version_1/twoback(1)_v1.xlsx,New rule: Press 'space' when you see 2-back (i.e. the same letter as the one that appeared 2 letters ago.),,,,,,,,,,,0,2,2,2,,,,,,,,,,,,,,,,,,,,,,,,,,,,,,,,,,,,,,,,,,,,,,,,,,,,,,,,,,,,,,,,,,,,,,,,,,,,,,,,,P041,FENCOG,1,Post,2022_May_16_1217,N-Back (New Version 2021),2021.1.4,119.9531224
,,,,Conditions/Version_1/threeback(1)_v1.xlsx,New rule: Press 'space' when you see 3-back (i.e. the same letter as the one that appeared 3 letters ago.),r,None,,,,,,,,,0,3,3,3,0,0,0,0,,,,,,,,,,,,,,,,,,,,,,,,,,,,,,,,,,,,,,,,,,,,,,,,,,,,,,,,,,,479.3534813,None,482.336998,None,space,0.164344,482.336998,None,479.3534813,None,1.8594,484.3932549,None,None,1,484.3932549,None,,P041,FENCOG,1,Post,2022_May_16_1217,N-Back (New Version 2021),2021.1.4,119.9531224
,,,,Conditions/Version_1/threeback(1)_v1.xlsx,New rule: Press 'space' when you see 3-back (i.e. the same letter as the one that appeared 3 letters ago.),o,None,,,,,,,,,0,3,3,3,0,1,1,1,,,,,,,,,,,,,,,,,,,,,,,,,,,,,,,,,,,,,,,,,,,,,,,,,,,,,,,,,,,,,,,,,,,,,1.9648,488.3687863,None,None,1,488.3687863,None,,P041,FENCOG,1,Post,2022_May_16_1217,N-Back (New Version 2021),2021.1.4,119.9531224
,,,,Conditions/Version_1/threeback(1)_v1.xlsx,New rule: Press 'space' when you see 3-back (i.e. the same letter as the one that appeared 3 letters ago.),P,None,,,,,,,,,0,3,3,3,0,2,2,2,,,,,,,,,,,,,,,,,,,,,,,,,,,,,,,,,,,,,,,,,,,,,,,,,,,,,,,,,,,,,,,,,,,,,1.072,491.4494089,None,None,1,491.4494089,None,,P041,FENCOG,1,Post,2022_May_16_1217,N-Back (New Version 2021),2021.1.4,119.9531224
,,,,Conditions/Version_1/threeback(1)_v1.xlsx,New rule: Press 'space' when you see 3-back (i.e. the same letter as the one that appeared 3 letters ago.),R,space,,,,,,,,,0,3,3,3,0,3,3,3,,,,,,,,,,,,,,,,,,,,,,,,,,,,,,,,,,,,,,,,,,,,,,,,,,,,,,,,,,,,,,,,,,,,,1.3944,494.8483296,None,space,1,494.8483296,None,0.5408713,P041,FENCOG,1,Post,2022_May_16_1217,N-Back (New Version 2021),2021.1.4,119.9531224
,,,,Conditions/Version_1/threeback(1)_v1.xlsx,New rule: Press 'space' when you see 3-back (i.e. the same letter as the one that appeared 3 letters ago.),p,None,,,,,,,,,0,3,3,3,0,4,4,4,,,,,,,,,,,,,,,,,,,,,,,,,,,,,,,,,,,,,,,,,,,,,,,,,,,,,,,,,,,,,,,,,,,,,1.2146,498.0660169,None,None,1,498.0660169,None,,P041,FENCOG,1,Post,2022_May_16_1217,N-Back (New Version 2021),2021.1.4,119.9531224
,,,,Conditions/Version_1/threeback(1)_v1.xlsx,New rule: Press 'space' when you see 3-back (i.e. the same letter as the one that appeared 3 letters ago.),E,None,,,,,,,,,0,3,3,3,0,5,5,5,,,,,,,,,,,,,,,,,,,,,,,,,,,,,,,,,,,,,,,,,,,,,,,,,,,,,,,,,,,,,,,,,,,,,1.2704,501.3464482,None,None,1,501.3464482,None,,P041,FENCOG,1,Post,2022_May_16_1217,N-Back (New Version 2021),2021.1.4,119.9531224
,,,,Conditions/Version_1/threeback(1)_v1.xlsx,New rule: Press 'space' when you see 3-back (i.e. the same letter as the one that appeared 3 letters ago.),e,None,,,,,,,,,0,3,3,3,0,6,6,6,,,,,,,,,,,,,,,,,,,,,,,,,,,,,,,,,,,,,,,,,,,,,,,,,,,,,,,,,,,,,,,,,,,,,1.0658,504.4124,None,None,1,504.4124,None,,P041,FENCOG,1,Post,2022_May_16_1217,N-Back (New Version 2021),2021.1.4,119.9531224
,,,,Conditions/Version_1/threeback(1)_v1.xlsx,New rule: Press 'space' when you see 3-back (i.e. the same letter as the one that appeared 3 letters ago.),m,None,,,,,,,,,0,3,3,3,0,7,7,7,,,,,,,,,,,,,,,,,,,,,,,,,,,,,,,,,,,,,,,,,,,,,,,,,,,,,,,,,,,,,,,,,,,,,1.2332,507.6545739,None,None,1,507.6545739,None,,P041,FENCOG,1,Post,2022_May_16_1217,N-Back (New Version 2021),2021.1.4,119.9531224
,,,,Conditions/Version_1/threeback(1)_v1.xlsx,New rule: Press 'space' when you see 3-back (i.e. the same letter as the one that appeared 3 letters ago.),n,None,,,,,,,,,0,3,3,3,0,8,8,8,,,,,,,,,,,,,,,,,,,,,,,,,,,,,,,,,,,,,,,,,,,,,,,,,,,,,,,,,,,,,,,,,,,,,1.1526,510.8220091,None,None,1,510.8220091,None,,P041,FENCOG,1,Post,2022_May_16_1217,N-Back (New Version 2021),2021.1.4,119.9531224
,,,,Conditions/Version_1/threeback(1)_v1.xlsx,New rule: Press 'space' when you see 3-back (i.e. the same letter as the one that appeared 3 letters ago.),e,space,,,,,,,,,0,3,3,3,0,9,9,9,,,,,,,,,,,,,,,,,,,,,,,,,,,,,,,,,,,,,,,,,,,,,,,,,,,,,,,,,,,,,,,,,,,,,1.444,514.2825177,None,space,1,514.2825177,None,0.6913873,P041,FENCOG,1,Post,2022_May_16_1217,N-Back (New Version 2021),2021.1.4,119.9531224
,,,,Conditions/Version_1/threeback(1)_v1.xlsx,New rule: Press 'space' when you see 3-back (i.e. the same letter as the one that appeared 3 letters ago.),,,,,,,,,,,0,3,3,3,,,,,,,,,,,,,,,,,,,,,,,,,,,,,,,,,,,,,,,,,,,,,,,,,,,,,,,,,,,,,,,,,,,,,,,,,,,,,,,,,P041,FENCOG,1,Post,2022_May_16_1217,N-Back (New Version 2021),2021.1.4,119.9531224
,,,,Conditions/Version_1/oneback(2)_v1.xlsx,New rule: Press 'space' when you see 1-back (i.e. the same letter as the one that appeared 1 letter ago.),q,None,,,,,,,,,0,4,4,4,0,0,0,0,,,,,,,,,,,,,,,,,,,,,,,,,,,,,,,,,,,,,,,,,,,,,,,,,,,,,,,,,,,516.3211228,None,519.3100834,None,space,4.3275179,519.3100834,None,516.3211228,None,1.6672,525.3446409,None,None,1,525.3446409,None,,P041,FENCOG,1,Post,2022_May_16_1217,N-Back (New Version 2021),2021.1.4,119.9531224
,,,,Conditions/Version_1/oneback(2)_v1.xlsx,New rule: Press 'space' when you see 1-back (i.e. the same letter as the one that appeared 1 letter ago.),Q,space,,,,,,,,,0,4,4,4,0,1,1,1,,,,,,,,,,,,,,,,,,,,,,,,,,,,,,,,,,,,,,,,,,,,,,,,,,,,,,,,,,,,,,,,,,,,,1.2146,528.572909,None,space,1,528.572909,None,0.4721941,P041,FENCOG,1,Post,2022_May_16_1217,N-Back (New Version 2021),2021.1.4,119.9531224
,,,,Conditions/Version_1/oneback(2)_v1.xlsx,New rule: Press 'space' when you see 1-back (i.e. the same letter as the one that appeared 1 letter ago.),P,None,,,,,,,,,0,4,4,4,0,2,2,2,,,,,,,,,,,,,,,,,,,,,,,,,,,,,,,,,,,,,,,,,,,,,,,,,,,,,,,,,,,,,,,,,,,,,1.4378,532.0224846,None,None,1,532.0224846,None,,P041,FENCOG,1,Post,2022_May_16_1217,N-Back (New Version 2021),2021.1.4,119.9531224
,,,,Conditions/Version_1/oneback(2)_v1.xlsx,New rule: Press 'space' when you see 1-back (i.e. the same letter as the one that appeared 1 letter ago.),o,None,,,,,,,,,0,4,4,4,0,3,3,3,,,,,,,,,,,,,,,,,,,,,,,,,,,,,,,,,,,,,,,,,,,,,,,,,,,,,,,,,,,,,,,,,,,,,1.8842,535.9220556,None,None,1,535.9220556,None,,P041,FENCOG,1,Post,2022_May_16_1217,N-Back (New Version 2021),2021.1.4,119.9531224
,,,,Conditions/Version_1/oneback(2)_v1.xlsx,New rule: Press 'space' when you see 1-back (i.e. the same letter as the one that appeared 1 letter ago.),m,None,,,,,,,,,0,4,4,4,0,4,4,4,,,,,,,,,,,,,,,,,,,,,,,,,,,,,,,,,,,,,,,,,,,,,,,,,,,,,,,,,,,,,,,,,,,,,1.382,539.3102177,None,None,1,539.3102177,None,,P041,FENCOG,1,Post,2022_May_16_1217,N-Back (New Version 2021),2021.1.4,119.9531224
,,,,Conditions/Version_1/oneback(2)_v1.xlsx,New rule: Press 'space' when you see 1-back (i.e. the same letter as the one that appeared 1 letter ago.),Z,None,,,,,,,,,0,4,4,4,0,5,5,5,,,,,,,,,,,,,,,,,,,,,,,,,,,,,,,,,,,,,,,,,,,,,,,,,,,,,,,,,,,,,,,,,,,,,1.32,542.6343404,None,None,1,542.6343404,None,,P041,FENCOG,1,Post,2022_May_16_1217,N-Back (New Version 2021),2021.1.4,119.9531224
,,,,Conditions/Version_1/oneback(2)_v1.xlsx,New rule: Press 'space' when you see 1-back (i.e. the same letter as the one that appeared 1 letter ago.),c,None,,,,,,,,,0,4,4,4,0,6,6,6,,,,,,,,,,,,,,,,,,,,,,,,,,,,,,,,,,,,,,,,,,,,,,,,,,,,,,,,,,,,,,,,,,,,,1.6858,546.3257835,None,None,1,546.3257835,None,,P041,FENCOG,1,Post,2022_May_16_1217,N-Back (New Version 2021),2021.1.4,119.9531224
,,,,Conditions/Version_1/oneback(2)_v1.xlsx,New rule: Press 'space' when you see 1-back (i.e. the same letter as the one that appeared 1 letter ago.),c,space,,,,,,,,,0,4,4,4,0,7,7,7,,,,,,,,,,,,,,,,,,,,,,,,,,,,,,,,,,,,,,,,,,,,,,,,,,,,,,,,,,,,,,,,,,,,,1.0968,549.4408689,None,space,1,549.4408689,None,0.5243431,P041,FENCOG,1,Post,2022_May_16_1217,N-Back (New Version 2021),2021.1.4,119.9531224
,,,,Conditions/Version_1/oneback(2)_v1.xlsx,New rule: Press 'space' when you see 1-back (i.e. the same letter as the one that appeared 1 letter ago.),P,None,,,,,,,,,0,4,4,4,0,8,8,8,,,,,,,,,,,,,,,,,,,,,,,,,,,,,,,,,,,,,,,,,,,,,,,,,,,,,,,,,,,,,,,,,,,,,1.7602,553.2064831,None,None,1,553.2064831,None,,P041,FENCOG,1,Post,2022_May_16_1217,N-Back (New Version 2021),2021.1.4,119.9531224
,,,,Conditions/Version_1/oneback(2)_v1.xlsx,New rule: Press 'space' when you see 1-back (i.e. the same letter as the one that appeared 1 letter ago.),p,space,,,,,,,,,0,4,4,4,0,9,9,9,,,,,,,,,,,,,,,,,,,,,,,,,,,,,,,,,,,,,,,,,,,,,,,,,,,,,,,,,,,,,,,,,,,,,1.0906,556.3072972,None,space,1,556.3072972,None,0.5620951,P041,FENCOG,1,Post,2022_May_16_1217,N-Back (New Version 2021),2021.1.4,119.9531224
,,,,Conditions/Version_1/oneback(2)_v1.xlsx,New rule: Press 'space' when you see 1-back (i.e. the same letter as the one that appeared 1 letter ago.),,,,,,,,,,,0,4,4,4,,,,,,,,,,,,,,,,,,,,,,,,,,,,,,,,,,,,,,,,,,,,,,,,,,,,,,,,,,,,,,,,,,,,,,,,,,,,,,,,,P041,FENCOG,1,Post,2022_May_16_1217,N-Back (New Version 2021),2021.1.4,119.9531224
,,,,Conditions/Version_1/zeroback(2)_v1.xlsx,New rule: Press 'space' when you see the letter 'x' or 'X'.,p,None,,,,,,,,,0,5,5,5,0,0,0,0,,,,,,,,,,,,,,,,,,,,,,,,,,,,,,,,,,,,,,,,,,,,,,,,,,,,,,,,,,,558.331041,None,561.3137254,None,space,0.339525,561.3137254,None,558.331041,None,1.0348,562.7204018,None,None,1,562.7204018,None,,P041,FENCOG,1,Post,2022_May_16_1217,N-Back (New Version 2021),2021.1.4,119.9531224
,,,,Conditions/Version_1/zeroback(2)_v1.xlsx,New rule: Press 'space' when you see the letter 'x' or 'X'.,L,None,,,,,,,,,0,5,5,5,0,1,1,1,,,,,,,,,,,,,,,,,,,,,,,,,,,,,,,,,,,,,,,,,,,,,,,,,,,,,,,,,,,,,,,,,,,,,1.94,566.6630289,None,None,1,566.6630289,None,,P041,FENCOG,1,Post,2022_May_16_1217,N-Back (New Version 2021),2021.1.4,119.9531224
,,,,Conditions/Version_1/zeroback(2)_v1.xlsx,New rule: Press 'space' when you see the letter 'x' or 'X'.,G,None,,,,,,,,,0,5,5,5,0,2,2,2,,,,,,,,,,,,,,,,,,,,,,,,,,,,,,,,,,,,,,,,,,,,,,,,,,,,,,,,,,,,,,,,,,,,,1.4378,570.109556,None,None,1,570.109556,None,,P041,FENCOG,1,Post,2022_May_16_1217,N-Back (New Version 2021),2021.1.4,119.9531224
,,,,Conditions/Version_1/zeroback(2)_v1.xlsx,New rule: Press 'space' when you see the letter 'x' or 'X'.,y,None,,,,,,,,,0,5,5,5,0,3,3,3,,,,,,,,,,,,,,,,,,,,,,,,,,,,,,,,,,,,,,,,,,,,,,,,,,,,,,,,,,,,,,,,,,,,,1.2084,573.316851,None,None,1,573.316851,None,,P041,FENCOG,1,Post,2022_May_16_1217,N-Back (New Version 2021),2021.1.4,119.9531224
,,,,Conditions/Version_1/zeroback(2)_v1.xlsx,New rule: Press 'space' when you see the letter 'x' or 'X'.,Y,None,,,,,,,,,0,5,5,5,0,4,4,4,,,,,,,,,,,,,,,,,,,,,,,,,,,,,,,,,,,,,,,,,,,,,,,,,,,,,,,,,,,,,,,,,,,,,1.3324,576.6519644,None,None,1,576.6519644,None,,P041,FENCOG,1,Post,2022_May_16_1217,N-Back (New Version 2021),2021.1.4,119.9531224
,,,,Conditions/Version_1/zeroback(2)_v1.xlsx,New rule: Press 'space' when you see the letter 'x' or 'X'.,W,None,,,,,,,,,0,5,5,5,0,5,5,5,,,,,,,,,,,,,,,,,,,,,,,,,,,,,,,,,,,,,,,,,,,,,,,,,,,,,,,,,,,,,,,,,,,,,1.5184,580.182963,None,None,1,580.182963,None,,P041,FENCOG,1,Post,2022_May_16_1217,N-Back (New Version 2021),2021.1.4,119.9531224
,,,,Conditions/Version_1/zeroback(2)_v1.xlsx,New rule: Press 'space' when you see the letter 'x' or 'X'.,x,space,,,,,,,,,0,5,5,5,0,6,6,6,,,,,,,,,,,,,,,,,,,,,,,,,,,,,,,,,,,,,,,,,,,,,,,,,,,,,,,,,,,,,,,,,,,,,1.1774,583.373163,None,space,1,583.373163,None,0.3684349,P041,FENCOG,1,Post,2022_May_16_1217,N-Back (New Version 2021),2021.1.4,119.9531224
,,,,Conditions/Version_1/zeroback(2)_v1.xlsx,New rule: Press 'space' when you see the letter 'x' or 'X'.,X,space,,,,,,,,,0,5,5,5,0,7,7,7,,,,,,,,,,,,,,,,,,,,,,,,,,,,,,,,,,,,,,,,,,,,,,,,,,,,,,,,,,,,,,,,,,,,,1.196,586.5802412,None,space,1,586.5802412,None,0.4895243,P041,FENCOG,1,Post,2022_May_16_1217,N-Back (New Version 2021),2021.1.4,119.9531224
,,,,Conditions/Version_1/zeroback(2)_v1.xlsx,New rule: Press 'space' when you see the letter 'x' or 'X'.,p,None,,,,,,,,,0,5,5,5,0,8,8,8,,,,,,,,,,,,,,,,,,,,,,,,,,,,,,,,,,,,,,,,,,,,,,,,,,,,,,,,,,,,,,,,,,,,,1.785,590.3790451,None,None,1,590.3790451,None,,P041,FENCOG,1,Post,2022_May_16_1217,N-Back (New Version 2021),2021.1.4,119.9531224
,,,,Conditions/Version_1/zeroback(2)_v1.xlsx,New rule: Press 'space' when you see the letter 'x' or 'X'.,h,None,,,,,,,,,0,5,5,5,0,9,9,9,,,,,,,,,,,,,,,,,,,,,,,,,,,,,,,,,,,,,,,,,,,,,,,,,,,,,,,,,,,,,,,,,,,,,1.2518,593.6448712,None,None,1,593.6448712,None,,P041,FENCOG,1,Post,2022_May_16_1217,N-Back (New Version 2021),2021.1.4,119.9531224
,,,,Conditions/Version_1/zeroback(2)_v1.xlsx,New rule: Press 'space' when you see the letter 'x' or 'X'.,,,,,,,,,,,0,5,5,5,,,,,,,,,,,,,,,,,,,,,,,,,,,,,,,,,,,,,,,,,,,,,,,,,,,,,,,,,,,,,,,,,,,,,,,,,,,,,,,,,P041,FENCOG,1,Post,2022_May_16_1217,N-Back (New Version 2021),2021.1.4,119.9531224
,,,,Conditions/Version_1/threeback(2)_v1.xlsx,New rule: Press 'space' when you see 3-back (i.e. the same letter as the one that appeared 3 letters ago.),q,None,,,,,,,,,0,6,6,6,0,0,0,0,,,,,,,,,,,,,,,,,,,,,,,,,,,,,,,,,,,,,,,,,,,,,,,,,,,,,,,,,,,595.6672637,None,598.6537133,None,space,3.0633227,598.6537133,None,595.6672637,None,1.9338,603.6856805,None,None,1,603.6856805,None,,P041,FENCOG,1,Post,2022_May_16_1217,N-Back (New Version 2021),2021.1.4,119.9531224
,,,,Conditions/Version_1/threeback(2)_v1.xlsx,New rule: Press 'space' when you see 3-back (i.e. the same letter as the one that appeared 3 letters ago.),Y,None,,,,,,,,,0,6,6,6,0,1,1,1,,,,,,,,,,,,,,,,,,,,,,,,,,,,,,,,,,,,,,,,,,,,,,,,,,,,,,,,,,,,,,,,,,,,,1.3758,607.0736463,None,None,1,607.0736463,None,,P041,FENCOG,1,Post,2022_May_16_1217,N-Back (New Version 2021),2021.1.4,119.9531224
,,,,Conditions/Version_1/threeback(2)_v1.xlsx,New rule: Press 'space' when you see 3-back (i.e. the same letter as the one that appeared 3 letters ago.),p,None,,,,,,,,,0,6,6,6,0,2,2,2,,,,,,,,,,,,,,,,,,,,,,,,,,,,,,,,,,,,,,,,,,,,,,,,,,,,,,,,,,,,,,,,,,,,,1.1588,610.2309922,None,None,1,610.2309922,None,,P041,FENCOG,1,Post,2022_May_16_1217,N-Back (New Version 2021),2021.1.4,119.9531224
,,,,Conditions/Version_1/threeback(2)_v1.xlsx,New rule: Press 'space' when you see 3-back (i.e. the same letter as the one that appeared 3 letters ago.),p,None,,,,,,,,,0,6,6,6,0,3,3,3,,,,,,,,,,,,,,,,,,,,,,,,,,,,,,,,,,,,,,,,,,,,,,,,,,,,,,,,,,,,,,,,,,,,,1.9648,614.2049797,None,None,1,614.2049797,None,,P041,FENCOG,1,Post,2022_May_16_1217,N-Back (New Version 2021),2021.1.4,119.9531224
,,,,Conditions/Version_1/threeback(2)_v1.xlsx,New rule: Press 'space' when you see 3-back (i.e. the same letter as the one that appeared 3 letters ago.),y,space,,,,,,,,,0,6,6,6,0,4,4,4,,,,,,,,,,,,,,,,,,,,,,,,,,,,,,,,,,,,,,,,,,,,,,,,,,,,,,,,,,,,,,,,,,,,,1.9276,618.1411152,None,space,1,618.1411152,None,0.3681855,P041,FENCOG,1,Post,2022_May_16_1217,N-Back (New Version 2021),2021.1.4,119.9531224
,,,,Conditions/Version_1/threeback(2)_v1.xlsx,New rule: Press 'space' when you see 3-back (i.e. the same letter as the one that appeared 3 letters ago.),u,None,,,,,,,,,0,6,6,6,0,5,5,5,,,,,,,,,,,,,,,,,,,,,,,,,,,,,,,,,,,,,,,,,,,,,,,,,,,,,,,,,,,,,,,,,,,,,1.4192,621.5693789,None,None,1,621.5693789,None,,P041,FENCOG,1,Post,2022_May_16_1217,N-Back (New Version 2021),2021.1.4,119.9531224
,,,,Conditions/Version_1/threeback(2)_v1.xlsx,New rule: Press 'space' when you see 3-back (i.e. the same letter as the one that appeared 3 letters ago.),P,space,,,,,,,,,0,6,6,6,0,6,6,6,,,,,,,,,,,,,,,,,,,,,,,,,,,,,,,,,,,,,,,,,,,,,,,,,,,,,,,,,,,,,,,,,,,,,1.847,625.434781,None,space,1,625.434781,None,0.426686,P041,FENCOG,1,Post,2022_May_16_1217,N-Back (New Version 2021),2021.1.4,119.9531224
,,,,Conditions/Version_1/threeback(2)_v1.xlsx,New rule: Press 'space' when you see 3-back (i.e. the same letter as the one that appeared 3 letters ago.),a,None,,,,,,,,,0,6,6,6,0,7,7,7,,,,,,,,,,,,,,,,,,,,,,,,,,,,,,,,,,,,,,,,,,,,,,,,,,,,,,,,,,,,,,,,,,,,,1.6734,629.1182034,None,None,1,629.1182034,None,,P041,FENCOG,1,Post,2022_May_16_1217,N-Back (New Version 2021),2021.1.4,119.9531224
,,,,Conditions/Version_1/threeback(2)_v1.xlsx,New rule: Press 'space' when you see 3-back (i.e. the same letter as the one that appeared 3 letters ago.),U,space,,,,,,,,,0,6,6,6,0,8,8,8,,,,,,,,,,,,,,,,,,,,,,,,,,,,,,,,,,,,,,,,,,,,,,,,,,,,,,,,,,,,,,,,,,,,,1.4564,632.5842481,None,space,1,632.5842481,None,0.5170082,P041,FENCOG,1,Post,2022_May_16_1217,N-Back (New Version 2021),2021.1.4,119.9531224
,,,,Conditions/Version_1/threeback(2)_v1.xlsx,New rule: Press 'space' when you see 3-back (i.e. the same letter as the one that appeared 3 letters ago.),q,None,,,,,,,,,0,6,6,6,0,9,9,9,,,,,,,,,,,,,,,,,,,,,,,,,,,,,,,,,,,,,,,,,,,,,,,,,,,,,,,,,,,,,,,,,,,,,1.9834,636.5788351,None,None,1,636.5788351,None,,P041,FENCOG,1,Post,2022_May_16_1217,N-Back (New Version 2021),2021.1.4,119.9531224
,,,,Conditions/Version_1/threeback(2)_v1.xlsx,New rule: Press 'space' when you see 3-back (i.e. the same letter as the one that appeared 3 letters ago.),,,,,,,,,,,0,6,6,6,,,,,,,,,,,,,,,,,,,,,,,,,,,,,,,,,,,,,,,,,,,,,,,,,,,,,,,,,,,,,,,,,,,,,,,,,,,,,,,,,P041,FENCOG,1,Post,2022_May_16_1217,N-Back (New Version 2021),2021.1.4,119.9531224
,,,,Conditions/Version_1/twoback(2)_v1.xlsx,New rule: Press 'space' when you see 2-back (i.e. the same letter as the one that appeared 2 letters ago.),q,None,,,,,,,,,0,7,7,7,0,0,0,0,,,,,,,,,,,,,,,,,,,,,,,,,,,,,,,,,,,,,,,,,,,,,,,,,,,,,,,,,,,638.6037565,None,641.5905496,None,space,0.5348766,641.5905496,None,638.6037565,None,1.0286,643.188072,None,None,1,643.188072,None,,P041,FENCOG,1,Post,2022_May_16_1217,N-Back (New Version 2021),2021.1.4,119.9531224
,,,,Conditions/Version_1/twoback(2)_v1.xlsx,New rule: Press 'space' when you see 2-back (i.e. the same letter as the one that appeared 2 letters ago.),r,None,,,,,,,,,0,7,7,7,0,1,1,1,,,,,,,,,,,,,,,,,,,,,,,,,,,,,,,,,,,,,,,,,,,,,,,,,,,,,,,,,,,,,,,,,,,,,1.7788,646.9702849,None,None,1,646.9702849,None,,P041,FENCOG,1,Post,2022_May_16_1217,N-Back (New Version 2021),2021.1.4,119.9531224
,,,,Conditions/Version_1/twoback(2)_v1.xlsx,New rule: Press 'space' when you see 2-back (i.e. the same letter as the one that appeared 2 letters ago.),q,space,,,,,,,,,0,7,7,7,0,2,2,2,,,,,,,,,,,,,,,,,,,,,,,,,,,,,,,,,,,,,,,,,,,,,,,,,,,,,,,,,,,,,,,,,,,,,1.3696,650.3460637,None,space,1,650.3460637,None,0.651264,P041,FENCOG,1,Post,2022_May_16_1217,N-Back (New Version 2021),2021.1.4,119.9531224
,,,,Conditions/Version_1/twoback(2)_v1.xlsx,New rule: Press 'space' when you see 2-back (i.e. the same letter as the one that appeared 2 letters ago.),P,None,,,,,,,,,0,7,7,7,0,3,3,3,,,,,,,,,,,,,,,,,,,,,,,,,,,,,,,,,,,,,,,,,,,,,,,,,,,,,,,,,,,,,,,,,,,,,1.5742,653.9299107,None,None,1,653.9299107,None,,P041,FENCOG,1,Post,2022_May_16_1217,N-Back (New Version 2021),2021.1.4,119.9531224
,,,,Conditions/Version_1/twoback(2)_v1.xlsx,New rule: Press 'space' when you see 2-back (i.e. the same letter as the one that appeared 2 letters ago.),p,None,,,,,,,,,0,7,7,7,0,4,4,4,,,,,,,,,,,,,,,,,,,,,,,,,,,,,,,,,,,,,,,,,,,,,,,,,,,,,,,,,,,,,,,,,,,,,1.94,657.8793158,None,None,1,657.8793158,None,,P041,FENCOG,1,Post,2022_May_16_1217,N-Back (New Version 2021),2021.1.4,119.9531224
,,,,Conditions/Version_1/twoback(2)_v1.xlsx,New rule: Press 'space' when you see 2-back (i.e. the same letter as the one that appeared 2 letters ago.),H,None,,,,,,,,,0,7,7,7,0,5,5,5,,,,,,,,,,,,,,,,,,,,,,,,,,,,,,,,,,,,,,,,,,,,,,,,,,,,,,,,,,,,,,,,,,,,,1.3448,661.2326883,None,None,1,661.2326883,None,,P041,FENCOG,1,Post,2022_May_16_1217,N-Back (New Version 2021),2021.1.4,119.9531224
,,,,Conditions/Version_1/twoback(2)_v1.xlsx,New rule: Press 'space' when you see 2-back (i.e. the same letter as the one that appeared 2 letters ago.),g,None,,,,,,,,,0,7,7,7,0,6,6,6,,,,,,,,,,,,,,,,,,,,,,,,,,,,,,,,,,,,,,,,,,,,,,,,,,,,,,,,,,,,,,,,,,,,,1.5866,664.8232341,None,None,1,664.8232341,None,,P041,FENCOG,1,Post,2022_May_16_1217,N-Back (New Version 2021),2021.1.4,119.9531224
,,,,Conditions/Version_1/twoback(2)_v1.xlsx,New rule: Press 'space' when you see 2-back (i.e. the same letter as the one that appeared 2 letters ago.),j,None,,,,,,,,,0,7,7,7,0,7,7,7,,,,,,,,,,,,,,,,,,,,,,,,,,,,,,,,,,,,,,,,,,,,,,,,,,,,,,,,,,,,,,,,,,,,,1.8904,668.7137221,None,None,1,668.7137221,None,,P041,FENCOG,1,Post,2022_May_16_1217,N-Back (New Version 2021),2021.1.4,119.9531224
,,,,Conditions/Version_1/twoback(2)_v1.xlsx,New rule: Press 'space' when you see 2-back (i.e. the same letter as the one that appeared 2 letters ago.),g,space,,,,,,,,,0,7,7,7,0,8,8,8,,,,,,,,,,,,,,,,,,,,,,,,,,,,,,,,,,,,,,,,,,,,,,,,,,,,,,,,,,,,,,,,,,,,,1.5556,672.2709986,None,space,1,672.2709986,None,0.5341443,P041,FENCOG,1,Post,2022_May_16_1217,N-Back (New Version 2021),2021.1.4,119.9531224
,,,,Conditions/Version_1/twoback(2)_v1.xlsx,New rule: Press 'space' when you see 2-back (i.e. the same letter as the one that appeared 2 letters ago.),G,None,,,,,,,,,0,7,7,7,0,9,9,9,,,,,,,,,,,,,,,,,,,,,,,,,,,,,,,,,,,,,,,,,,,,,,,,,,,,,,,,,,,,,,,,,,,,,1.6734,675.9492974,None,None,1,675.9492974,None,,P041,FENCOG,1,Post,2022_May_16_1217,N-Back (New Version 2021),2021.1.4,119.9531224
,,,,Conditions/Version_1/twoback(2)_v1.xlsx,New rule: Press 'space' when you see 2-back (i.e. the same letter as the one that appeared 2 letters ago.),,,,,,,,,,,0,7,7,7,,,,,,,,,,,,,,,,,,,,,,,,,,,,,,,,,,,,,,,,,,,,,,,,,,,,,,,,,,,,,,,,,,,,,,,,,,,,,,,,,P041,FENCOG,1,Post,2022_May_16_1217,N-Back (New Version 2021),2021.1.4,119.9531224
,,,,Conditions/Version_1/threeback(3)_v1.xlsx,New rule: Press 'space' when you see 3-back (i.e. the same letter as the one that appeared 3 letters ago.),w,None,,,,,,,,,0,8,8,8,0,0,0,0,,,,,,,,,,,,,,,,,,,,,,,,,,,,,,,,,,,,,,,,,,,,,,,,,,,,,,,,,,,677.980414,None,680.9624003,None,space,4.0029224,680.9624003,None,677.980414,None,1.3448,686.3456073,None,None,1,686.3456073,None,,P041,FENCOG,1,Post,2022_May_16_1217,N-Back (New Version 2021),2021.1.4,119.9531224
,,,,Conditions/Version_1/threeback(3)_v1.xlsx,New rule: Press 'space' when you see 3-back (i.e. the same letter as the one that appeared 3 letters ago.),p,None,,,,,,,,,0,8,8,8,0,1,1,1,,,,,,,,,,,,,,,,,,,,,,,,,,,,,,,,,,,,,,,,,,,,,,,,,,,,,,,,,,,,,,,,,,,,,1.8284,690.1848095,None,None,1,690.1848095,None,,P041,FENCOG,1,Post,2022_May_16_1217,N-Back (New Version 2021),2021.1.4,119.9531224
,,,,Conditions/Version_1/threeback(3)_v1.xlsx,New rule: Press 'space' when you see 3-back (i.e. the same letter as the one that appeared 3 letters ago.),P,None,,,,,,,,,0,8,8,8,0,2,2,2,,,,,,,,,,,,,,,,,,,,,,,,,,,,,,,,,,,,,,,,,,,,,,,,,,,,,,,,,,,,,,,,,,,,,1.816,694.0104261,None,None,1,694.0104261,None,,P041,FENCOG,1,Post,2022_May_16_1217,N-Back (New Version 2021),2021.1.4,119.9531224
,,,,Conditions/Version_1/threeback(3)_v1.xlsx,New rule: Press 'space' when you see 3-back (i.e. the same letter as the one that appeared 3 letters ago.),i,None,,,,,,,,,0,8,8,8,0,3,3,3,,,,,,,,,,,,,,,,,,,,,,,,,,,,,,,,,,,,,,,,,,,,,,,,,,,,,,,,,,,,,,,,,,,,,1.7416,697.7566128,None,None,1,697.7566128,None,,P041,FENCOG,1,Post,2022_May_16_1217,N-Back (New Version 2021),2021.1.4,119.9531224
,,,,Conditions/Version_1/threeback(3)_v1.xlsx,New rule: Press 'space' when you see 3-back (i.e. the same letter as the one that appeared 3 letters ago.),f,None,,,,,,,,,0,8,8,8,0,4,4,4,,,,,,,,,,,,,,,,,,,,,,,,,,,,,,,,,,,,,,,,,,,,,,,,,,,,,,,,,,,,,,,,,,,,,1.4068,701.1732629,None,None,1,701.1732629,None,,P041,FENCOG,1,Post,2022_May_16_1217,N-Back (New Version 2021),2021.1.4,119.9531224
,,,,Conditions/Version_1/threeback(3)_v1.xlsx,New rule: Press 'space' when you see 3-back (i.e. the same letter as the one that appeared 3 letters ago.),o,None,,,,,,,,,0,8,8,8,0,5,5,5,,,,,,,,,,,,,,,,,,,,,,,,,,,,,,,,,,,,,,,,,,,,,,,,,,,,,,,,,,,,,,,,,,,,,1.5928,704.7821556,None,None,1,704.7821556,None,,P041,FENCOG,1,Post,2022_May_16_1217,N-Back (New Version 2021),2021.1.4,119.9531224
,,,,Conditions/Version_1/threeback(3)_v1.xlsx,New rule: Press 'space' when you see 3-back (i.e. the same letter as the one that appeared 3 letters ago.),w,None,,,,,,,,,0,8,8,8,0,6,6,6,,,,,,,,,,,,,,,,,,,,,,,,,,,,,,,,,,,,,,,,,,,,,,,,,,,,,,,,,,,,,,,,,,,,,1.5184,708.3103756,None,None,1,708.3103756,None,,P041,FENCOG,1,Post,2022_May_16_1217,N-Back (New Version 2021),2021.1.4,119.9531224
,,,,Conditions/Version_1/threeback(3)_v1.xlsx,New rule: Press 'space' when you see 3-back (i.e. the same letter as the one that appeared 3 letters ago.),F,space,,,,,,,,,0,8,8,8,0,7,7,7,,,,,,,,,,,,,,,,,,,,,,,,,,,,,,,,,,,,,,,,,,,,,,,,,,,,,,,,,,,,,,,,,,,,,1.5804,711.900887,None,space,1,711.900887,None,0.4961466,P041,FENCOG,1,Post,2022_May_16_1217,N-Back (New Version 2021),2021.1.4,119.9531224
,,,,Conditions/Version_1/threeback(3)_v1.xlsx,New rule: Press 'space' when you see 3-back (i.e. the same letter as the one that appeared 3 letters ago.),p,None,,,,,,,,,0,8,8,8,0,8,8,8,,,,,,,,,,,,,,,,,,,,,,,,,,,,,,,,,,,,,,,,,,,,,,,,,,,,,,,,,,,,,,,,,,,,,1.7044,715.6142473,None,None,1,715.6142473,None,,P041,FENCOG,1,Post,2022_May_16_1217,N-Back (New Version 2021),2021.1.4,119.9531224
,,,,Conditions/Version_1/threeback(3)_v1.xlsx,New rule: Press 'space' when you see 3-back (i.e. the same letter as the one that appeared 3 letters ago.),W,space,,,,,,,,,0,8,8,8,0,9,9,9,,,,,,,,,,,,,,,,,,,,,,,,,,,,,,,,,,,,,,,,,,,,,,,,,,,,,,,,,,,,,,,,,,,,,1.661,719.2825934,None,space,1,719.2825934,None,0.8585287,P041,FENCOG,1,Post,2022_May_16_1217,N-Back (New Version 2021),2021.1.4,119.9531224
,,,,Conditions/Version_1/threeback(3)_v1.xlsx,New rule: Press 'space' when you see 3-back (i.e. the same letter as the one that appeared 3 letters ago.),,,,,,,,,,,0,8,8,8,,,,,,,,,,,,,,,,,,,,,,,,,,,,,,,,,,,,,,,,,,,,,,,,,,,,,,,,,,,,,,,,,,,,,,,,,,,,,,,,,P041,FENCOG,1,Post,2022_May_16_1217,N-Back (New Version 2021),2021.1.4,119.9531224
,,,,Conditions/Version_1/zeroback(3)_v1.xlsx,New rule: Press 'space' when you see the letter 'x' or 'X'.,X,space,,,,,,,,,0,9,9,9,0,0,0,0,,,,,,,,,,,,,,,,,,,,,,,,,,,,,,,,,,,,,,,,,,,,,,,,,,,,,,,,,,,721.3123964,None,724.2995257,None,space,0.3294718,724.2995257,None,721.3123964,None,1.2208,725.8812546,None,space,1,725.8812546,None,0.4438351,P041,FENCOG,1,Post,2022_May_16_1217,N-Back (New Version 2021),2021.1.4,119.9531224
,,,,Conditions/Version_1/zeroback(3)_v1.xlsx,New rule: Press 'space' when you see the letter 'x' or 'X'.,B,None,,,,,,,,,0,9,9,9,0,1,1,1,,,,,,,,,,,,,,,,,,,,,,,,,,,,,,,,,,,,,,,,,,,,,,,,,,,,,,,,,,,,,,,,,,,,,1.8656,729.7575118,None,None,1,729.7575118,None,,P041,FENCOG,1,Post,2022_May_16_1217,N-Back (New Version 2021),2021.1.4,119.9531224
,,,,Conditions/Version_1/zeroback(3)_v1.xlsx,New rule: Press 'space' when you see the letter 'x' or 'X'.,m,None,,,,,,,,,0,9,9,9,0,2,2,2,,,,,,,,,,,,,,,,,,,,,,,,,,,,,,,,,,,,,,,,,,,,,,,,,,,,,,,,,,,,,,,,,,,,,1.289,733.0543359,None,None,1,733.0543359,None,,P041,FENCOG,1,Post,2022_May_16_1217,N-Back (New Version 2021),2021.1.4,119.9531224
,,,,Conditions/Version_1/zeroback(3)_v1.xlsx,New rule: Press 'space' when you see the letter 'x' or 'X'.,m,None,,,,,,,,,0,9,9,9,0,3,3,3,,,,,,,,,,,,,,,,,,,,,,,,,,,,,,,,,,,,,,,,,,,,,,,,,,,,,,,,,,,,,,,,,,,,,1.4812,736.5445747,None,None,1,736.5445747,None,,P041,FENCOG,1,Post,2022_May_16_1217,N-Back (New Version 2021),2021.1.4,119.9531224
,,,,Conditions/Version_1/zeroback(3)_v1.xlsx,New rule: Press 'space' when you see the letter 'x' or 'X'.,o,None,,,,,,,,,0,9,9,9,0,4,4,4,,,,,,,,,,,,,,,,,,,,,,,,,,,,,,,,,,,,,,,,,,,,,,,,,,,,,,,,,,,,,,,,,,,,,1.9338,740.4934229,None,None,1,740.4934229,None,,P041,FENCOG,1,Post,2022_May_16_1217,N-Back (New Version 2021),2021.1.4,119.9531224
,,,,Conditions/Version_1/zeroback(3)_v1.xlsx,New rule: Press 'space' when you see the letter 'x' or 'X'.,p,None,,,,,,,,,0,9,9,9,0,5,5,5,,,,,,,,,,,,,,,,,,,,,,,,,,,,,,,,,,,,,,,,,,,,,,,,,,,,,,,,,,,,,,,,,,,,,1.8284,744.3355885,None,None,1,744.3355885,None,,P041,FENCOG,1,Post,2022_May_16_1217,N-Back (New Version 2021),2021.1.4,119.9531224
,,,,Conditions/Version_1/zeroback(3)_v1.xlsx,New rule: Press 'space' when you see the letter 'x' or 'X'.,G,None,,,,,,,,,0,9,9,9,0,6,6,6,,,,,,,,,,,,,,,,,,,,,,,,,,,,,,,,,,,,,,,,,,,,,,,,,,,,,,,,,,,,,,,,,,,,,1.4626,747.8080478,None,None,1,747.8080478,None,,P041,FENCOG,1,Post,2022_May_16_1217,N-Back (New Version 2021),2021.1.4,119.9531224
,,,,Conditions/Version_1/zeroback(3)_v1.xlsx,New rule: Press 'space' when you see the letter 'x' or 'X'.,X,space,,,,,,,,,0,9,9,9,0,7,7,7,,,,,,,,,,,,,,,,,,,,,,,,,,,,,,,,,,,,,,,,,,,,,,,,,,,,,,,,,,,,,,,,,,,,,1.196,751.0144922,None,space,1,751.0144922,None,0.5906618,P041,FENCOG,1,Post,2022_May_16_1217,N-Back (New Version 2021),2021.1.4,119.9531224
,,,,Conditions/Version_1/zeroback(3)_v1.xlsx,New rule: Press 'space' when you see the letter 'x' or 'X'.,p,None,,,,,,,,,0,9,9,9,0,8,8,8,,,,,,,,,,,,,,,,,,,,,,,,,,,,,,,,,,,,,,,,,,,,,,,,,,,,,,,,,,,,,,,,,,,,,1.7788,754.7972813,None,None,1,754.7972813,None,,P041,FENCOG,1,Post,2022_May_16_1217,N-Back (New Version 2021),2021.1.4,119.9531224
,,,,Conditions/Version_1/zeroback(3)_v1.xlsx,New rule: Press 'space' when you see the letter 'x' or 'X'.,x,space,,,,,,,,,0,9,9,9,0,9,9,9,,,,,,,,,,,,,,,,,,,,,,,,,,,,,,,,,,,,,,,,,,,,,,,,,,,,,,,,,,,,,,,,,,,,,1.5494,758.3538935,None,space,1,758.3538935,None,0.3871006,P041,FENCOG,1,Post,2022_May_16_1217,N-Back (New Version 2021),2021.1.4,119.9531224
,,,,Conditions/Version_1/zeroback(3)_v1.xlsx,New rule: Press 'space' when you see the letter 'x' or 'X'.,,,,,,,,,,,0,9,9,9,,,,,,,,,,,,,,,,,,,,,,,,,,,,,,,,,,,,,,,,,,,,,,,,,,,,,,,,,,,,,,,,,,,,,,,,,,,,,,,,,P041,FENCOG,1,Post,2022_May_16_1217,N-Back (New Version 2021),2021.1.4,119.9531224
,,,,Conditions/Version_1/twoback(3)_v1.xlsx,New rule: Press 'space' when you see 2-back (i.e. the same letter as the one that appeared 2 letters ago.),e,None,,,,,,,,,0,10,10,10,0,0,0,0,,,,,,,,,,,,,,,,,,,,,,,,,,,,,,,,,,,,,,,,,,,,,,,,,,,,,,,,,,,760.3760247,None,763.3641826,None,space,1.4010816,763.3641826,None,760.3760247,None,1.4254,766.2182558,None,None,1,766.2182558,None,,P041,FENCOG,1,Post,2022_May_16_1217,N-Back (New Version 2021),2021.1.4,119.9531224
,,,,Conditions/Version_1/twoback(3)_v1.xlsx,New rule: Press 'space' when you see 2-back (i.e. the same letter as the one that appeared 2 letters ago.),o,None,,,,,,,,,0,10,10,10,0,1,1,1,,,,,,,,,,,,,,,,,,,,,,,,,,,,,,,,,,,,,,,,,,,,,,,,,,,,,,,,,,,,,,,,,,,,,1.2394,769.4614486,None,None,1,769.4614486,None,,P041,FENCOG,1,Post,2022_May_16_1217,N-Back (New Version 2021),2021.1.4,119.9531224
,,,,Conditions/Version_1/twoback(3)_v1.xlsx,New rule: Press 'space' when you see 2-back (i.e. the same letter as the one that appeared 2 letters ago.),P,None,,,,,,,,,0,10,10,10,0,2,2,2,,,,,,,,,,,,,,,,,,,,,,,,,,,,,,,,,,,,,,,,,,,,,,,,,,,,,,,,,,,,,,,,,,,,,1.6176,773.0916506,None,None,1,773.0916506,None,,P041,FENCOG,1,Post,2022_May_16_1217,N-Back (New Version 2021),2021.1.4,119.9531224
,,,,Conditions/Version_1/twoback(3)_v1.xlsx,New rule: Press 'space' when you see 2-back (i.e. the same letter as the one that appeared 2 letters ago.),z,None,,,,,,,,,0,10,10,10,0,3,3,3,,,,,,,,,,,,,,,,,,,,,,,,,,,,,,,,,,,,,,,,,,,,,,,,,,,,,,,,,,,,,,,,,,,,,1.5866,776.6834472,None,None,1,776.6834472,None,,P041,FENCOG,1,Post,2022_May_16_1217,N-Back (New Version 2021),2021.1.4,119.9531224
,,,,Conditions/Version_1/twoback(3)_v1.xlsx,New rule: Press 'space' when you see 2-back (i.e. the same letter as the one that appeared 2 letters ago.),X,None,,,,,,,,,0,10,10,10,0,4,4,4,,,,,,,,,,,,,,,,,,,,,,,,,,,,,,,,,,,,,,,,,,,,,,,,,,,,,,,,,,,,,,,,,,,,,1.1898,779.8808753,None,None,1,779.8808753,None,,P041,FENCOG,1,Post,2022_May_16_1217,N-Back (New Version 2021),2021.1.4,119.9531224
,,,,Conditions/Version_1/twoback(3)_v1.xlsx,New rule: Press 'space' when you see 2-back (i.e. the same letter as the one that appeared 2 letters ago.),z,space,,,,,,,,,0,10,10,10,0,5,5,5,,,,,,,,,,,,,,,,,,,,,,,,,,,,,,,,,,,,,,,,,,,,,,,,,,,,,,,,,,,,,,,,,,,,,1.7726,783.6628801,None,space,1,783.6628801,None,0.5821076,P041,FENCOG,1,Post,2022_May_16_1217,N-Back (New Version 2021),2021.1.4,119.9531224
,,,,Conditions/Version_1/twoback(3)_v1.xlsx,New rule: Press 'space' when you see 2-back (i.e. the same letter as the one that appeared 2 letters ago.),x,space,,,,,,,,,0,10,10,10,0,6,6,6,,,,,,,,,,,,,,,,,,,,,,,,,,,,,,,,,,,,,,,,,,,,,,,,,,,,,,,,,,,,,,,,,,,,,1.1712,786.8401953,None,space,1,786.8401953,None,0.5570241,P041,FENCOG,1,Post,2022_May_16_1217,N-Back (New Version 2021),2021.1.4,119.9531224
,,,,Conditions/Version_1/twoback(3)_v1.xlsx,New rule: Press 'space' when you see 2-back (i.e. the same letter as the one that appeared 2 letters ago.),c,None,,,,,,,,,0,10,10,10,0,7,7,7,,,,,,,,,,,,,,,,,,,,,,,,,,,,,,,,,,,,,,,,,,,,,,,,,,,,,,,,,,,,,,,,,,,,,1.847,790.6946595,None,None,1,790.6946595,None,,P041,FENCOG,1,Post,2022_May_16_1217,N-Back (New Version 2021),2021.1.4,119.9531224
,,,,Conditions/Version_1/twoback(3)_v1.xlsx,New rule: Press 'space' when you see 2-back (i.e. the same letter as the one that appeared 2 letters ago.),i,None,,,,,,,,,0,10,10,10,0,8,8,8,,,,,,,,,,,,,,,,,,,,,,,,,,,,,,,,,,,,,,,,,,,,,,,,,,,,,,,,,,,,,,,,,,,,,1.1402,793.843208,None,None,1,793.843208,None,,P041,FENCOG,1,Post,2022_May_16_1217,N-Back (New Version 2021),2021.1.4,119.9531224
,,,,Conditions/Version_1/twoback(3)_v1.xlsx,New rule: Press 'space' when you see 2-back (i.e. the same letter as the one that appeared 2 letters ago.),C,space,,,,,,,,,0,10,10,10,0,9,9,9,,,,,,,,,,,,,,,,,,,,,,,,,,,,,,,,,,,,,,,,,,,,,,,,,,,,,,,,,,,,,,,,,,,,,1.0906,796.9399172,None,space,1,796.9399172,None,0.5210183,P041,FENCOG,1,Post,2022_May_16_1217,N-Back (New Version 2021),2021.1.4,119.9531224
,,,,Conditions/Version_1/twoback(3)_v1.xlsx,New rule: Press 'space' when you see 2-back (i.e. the same letter as the one that appeared 2 letters ago.),,,,,,,,,,,0,10,10,10,,,,,,,,,,,,,,,,,,,,,,,,,,,,,,,,,,,,,,,,,,,,,,,,,,,,,,,,,,,,,,,,,,,,,,,,,,,,,,,,,P041,FENCOG,1,Post,2022_May_16_1217,N-Back (New Version 2021),2021.1.4,119.9531224
,,,,Conditions/Version_1/oneback(3)_v1.xlsx,New rule: Press 'space' when you see 1-back (i.e. the same letter as the one that appeared 1 letter ago.),o,None,,,,,,,,,0,11,11,11,0,0,0,0,,,,,,,,,,,,,,,,,,,,,,,,,,,,,,,,,,,,,,,,,,,,,,,,,,,,,,,,,,,798.9618386,None,801.9519302,None,space,14.4692722,801.9519302,None,798.9618386,None,1.8594,818.311399,None,None,1,818.311399,None,,P041,FENCOG,1,Post,2022_May_16_1217,N-Back (New Version 2021),2021.1.4,119.9531224
,,,,Conditions/Version_1/oneback(3)_v1.xlsx,New rule: Press 'space' when you see 1-back (i.e. the same letter as the one that appeared 1 letter ago.),O,space,,,,,,,,,0,11,11,11,0,1,1,1,,,,,,,,,,,,,,,,,,,,,,,,,,,,,,,,,,,,,,,,,,,,,,,,,,,,,,,,,,,,,,,,,,,,,1.909,822.228144,None,space,1,822.228144,None,0.3373369,P041,FENCOG,1,Post,2022_May_16_1217,N-Back (New Version 2021),2021.1.4,119.9531224
,,,,Conditions/Version_1/oneback(3)_v1.xlsx,New rule: Press 'space' when you see 1-back (i.e. the same letter as the one that appeared 1 letter ago.),h,None,,,,,,,,,0,11,11,11,0,2,2,2,,,,,,,,,,,,,,,,,,,,,,,,,,,,,,,,,,,,,,,,,,,,,,,,,,,,,,,,,,,,,,,,,,,,,1.971,826.2005106,None,None,1,826.2005106,None,,P041,FENCOG,1,Post,2022_May_16_1217,N-Back (New Version 2021),2021.1.4,119.9531224
,,,,Conditions/Version_1/oneback(3)_v1.xlsx,New rule: Press 'space' when you see 1-back (i.e. the same letter as the one that appeared 1 letter ago.),g,None,,,,,,,,,0,11,11,11,0,3,3,3,,,,,,,,,,,,,,,,,,,,,,,,,,,,,,,,,,,,,,,,,,,,,,,,,,,,,,,,,,,,,,,,,,,,,1.7974,830.0005465,None,None,1,830.0005465,None,,P041,FENCOG,1,Post,2022_May_16_1217,N-Back (New Version 2021),2021.1.4,119.9531224
,,,,Conditions/Version_1/oneback(3)_v1.xlsx,New rule: Press 'space' when you see 1-back (i.e. the same letter as the one that appeared 1 letter ago.),n,None,,,,,,,,,0,11,11,11,0,4,4,4,,,,,,,,,,,,,,,,,,,,,,,,,,,,,,,,,,,,,,,,,,,,,,,,,,,,,,,,,,,,,,,,,,,,,1.506,833.5190936,None,None,1,833.5190936,None,,P041,FENCOG,1,Post,2022_May_16_1217,N-Back (New Version 2021),2021.1.4,119.9531224
,,,,Conditions/Version_1/oneback(3)_v1.xlsx,New rule: Press 'space' when you see 1-back (i.e. the same letter as the one that appeared 1 letter ago.),z,None,,,,,,,,,0,11,11,11,0,5,5,5,,,,,,,,,,,,,,,,,,,,,,,,,,,,,,,,,,,,,,,,,,,,,,,,,,,,,,,,,,,,,,,,,,,,,1.1712,836.6974384,None,None,1,836.6974384,None,,P041,FENCOG,1,Post,2022_May_16_1217,N-Back (New Version 2021),2021.1.4,119.9531224
,,,,Conditions/Version_1/oneback(3)_v1.xlsx,New rule: Press 'space' when you see 1-back (i.e. the same letter as the one that appeared 1 letter ago.),X,None,,,,,,,,,0,11,11,11,0,6,6,6,,,,,,,,,,,,,,,,,,,,,,,,,,,,,,,,,,,,,,,,,,,,,,,,,,,,,,,,,,,,,,,,,,,,,1.754,840.4546332,None,None,1,840.4546332,None,,P041,FENCOG,1,Post,2022_May_16_1217,N-Back (New Version 2021),2021.1.4,119.9531224
,,,,Conditions/Version_1/oneback(3)_v1.xlsx,New rule: Press 'space' when you see 1-back (i.e. the same letter as the one that appeared 1 letter ago.),r,None,,,,,,,,,0,11,11,11,0,7,7,7,,,,,,,,,,,,,,,,,,,,,,,,,,,,,,,,,,,,,,,,,,,,,,,,,,,,,,,,,,,,,,,,,,,,,1.351,843.8117962,None,None,1,843.8117962,None,,P041,FENCOG,1,Post,2022_May_16_1217,N-Back (New Version 2021),2021.1.4,119.9531224
,,,,Conditions/Version_1/oneback(3)_v1.xlsx,New rule: Press 'space' when you see 1-back (i.e. the same letter as the one that appeared 1 letter ago.),r,space,,,,,,,,,0,11,11,11,0,8,8,8,,,,,,,,,,,,,,,,,,,,,,,,,,,,,,,,,,,,,,,,,,,,,,,,,,,,,,,,,,,,,,,,,,,,,1.692,847.5127206,None,space,1,847.5127206,None,0.5161043,P041,FENCOG,1,Post,2022_May_16_1217,N-Back (New Version 2021),2021.1.4,119.9531224
,,,,Conditions/Version_1/oneback(3)_v1.xlsx,New rule: Press 'space' when you see 1-back (i.e. the same letter as the one that appeared 1 letter ago.),P,None,,,,,,,,,0,11,11,11,0,9,9,9,,,,,,,,,,,,,,,,,,,,,,,,,,,,,,,,,,,,,,,,,,,,,,,,,,,,,,,,,,,,,,,,,,,,,1.9896,851.5576329,None,None,1,851.5576329,None,,P041,FENCOG,1,Post,2022_May_16_1217,N-Back (New Version 2021),2021.1.4,119.9531224
,,,,Conditions/Version_1/oneback(3)_v1.xlsx,New rule: Press 'space' when you see 1-back (i.e. the same letter as the one that appeared 1 letter ago.),,,,,,,,,,,0,11,11,11,,,,,,,,,,,,,,,,,,,,,,,,,,,,,,,,,,,,,,,,,,,,,,,,,,,,,,,,,,,,,,,,,,,,,,,,,,,,,,,,,P041,FENCOG,1,Post,2022_May_16_1217,N-Back (New Version 2021),2021.1.4,119.9531224
,,,,Conditions/Version_1/twoback(4)_v1.xlsx,New rule: Press 'space' when you see 2-back (i.e. the same letter as the one that appeared 2 letters ago.),r,None,,,,,,,,,0,12,12,12,0,0,0,0,,,,,,,,,,,,,,,,,,,,,,,,,,,,,,,,,,,,,,,,,,,,,,,,,,,,,,,,,,,853.5462228,None,856.5268355,None,space,0.0461323,856.5268355,None,853.5462228,None,1.0348,857.6437601,None,None,1,857.6437601,None,,P041,FENCOG,1,Post,2022_May_16_1217,N-Back (New Version 2021),2021.1.4,119.9531224
,,,,Conditions/Version_1/twoback(4)_v1.xlsx,New rule: Press 'space' when you see 2-back (i.e. the same letter as the one that appeared 2 letters ago.),T,None,,,,,,,,,0,12,12,12,0,1,1,1,,,,,,,,,,,,,,,,,,,,,,,,,,,,,,,,,,,,,,,,,,,,,,,,,,,,,,,,,,,,,,,,,,,,,1.0534,860.6997033,None,None,1,860.6997033,None,,P041,FENCOG,1,Post,2022_May_16_1217,N-Back (New Version 2021),2021.1.4,119.9531224
,,,,Conditions/Version_1/twoback(4)_v1.xlsx,New rule: Press 'space' when you see 2-back (i.e. the same letter as the one that appeared 2 letters ago.),o,None,,,,,,,,,0,12,12,12,0,2,2,2,,,,,,,,,,,,,,,,,,,,,,,,,,,,,,,,,,,,,,,,,,,,,,,,,,,,,,,,,,,,,,,,,,,,,1.0286,863.7311201,None,None,1,863.7311201,None,,P041,FENCOG,1,Post,2022_May_16_1217,N-Back (New Version 2021),2021.1.4,119.9531224
,,,,Conditions/Version_1/twoback(4)_v1.xlsx,New rule: Press 'space' when you see 2-back (i.e. the same letter as the one that appeared 2 letters ago.),p,None,,,,,,,,,0,12,12,12,0,3,3,3,,,,,,,,,,,,,,,,,,,,,,,,,,,,,,,,,,,,,,,,,,,,,,,,,,,,,,,,,,,,,,,,,,,,,1.6176,867.3551112,None,None,1,867.3551112,None,,P041,FENCOG,1,Post,2022_May_16_1217,N-Back (New Version 2021),2021.1.4,119.9531224
,,,,Conditions/Version_1/twoback(4)_v1.xlsx,New rule: Press 'space' when you see 2-back (i.e. the same letter as the one that appeared 2 letters ago.),p,None,,,,,,,,,0,12,12,12,0,4,4,4,,,,,,,,,,,,,,,,,,,,,,,,,,,,,,,,,,,,,,,,,,,,,,,,,,,,,,,,,,,,,,,,,,,,,1.3262,870.6875561,None,None,1,870.6875561,None,,P041,FENCOG,1,Post,2022_May_16_1217,N-Back (New Version 2021),2021.1.4,119.9531224
,,,,Conditions/Version_1/twoback(4)_v1.xlsx,New rule: Press 'space' when you see 2-back (i.e. the same letter as the one that appeared 2 letters ago.),y,None,,,,,,,,,0,12,12,12,0,5,5,5,,,,,,,,,,,,,,,,,,,,,,,,,,,,,,,,,,,,,,,,,,,,,,,,,,,,,,,,,,,,,,,,,,,,,1.4626,874.1531731,None,None,1,874.1531731,None,,P041,FENCOG,1,Post,2022_May_16_1217,N-Back (New Version 2021),2021.1.4,119.9531224
,,,,Conditions/Version_1/twoback(4)_v1.xlsx,New rule: Press 'space' when you see 2-back (i.e. the same letter as the one that appeared 2 letters ago.),P,space,,,,,,,,,0,12,12,12,0,6,6,6,,,,,,,,,,,,,,,,,,,,,,,,,,,,,,,,,,,,,,,,,,,,,,,,,,,,,,,,,,,,,,,,,,,,,1.7168,877.868658,None,space,1,877.868658,None,0.5200018,P041,FENCOG,1,Post,2022_May_16_1217,N-Back (New Version 2021),2021.1.4,119.9531224
,,,,Conditions/Version_1/twoback(4)_v1.xlsx,New rule: Press 'space' when you see 2-back (i.e. the same letter as the one that appeared 2 letters ago.),y,None,,,,,,,,,0,12,12,12,0,7,7,7,,,,,,,,,,,,,,,,,,,,,,,,,,,,,,,,,,,,,,,,,,,,,,,,,,,,,,,,,,,,,,,,,,,,,1.3138,881.1840163,None,space,0,881.1840163,None,0.7329341,P041,FENCOG,1,Post,2022_May_16_1217,N-Back (New Version 2021),2021.1.4,119.9531224
,,,,Conditions/Version_1/twoback(4)_v1.xlsx,New rule: Press 'space' when you see 2-back (i.e. the same letter as the one that appeared 2 letters ago.),y,space,,,,,,,,,0,12,12,12,0,8,8,8,,,,,,,,,,,,,,,,,,,,,,,,,,,,,,,,,,,,,,,,,,,,,,,,,,,,,,,,,,,,,,,,,,,,,1.01,884.1998411,None,None,0,884.1998411,None,,P041,FENCOG,1,Post,2022_May_16_1217,N-Back (New Version 2021),2021.1.4,119.9531224
,,,,Conditions/Version_1/twoback(4)_v1.xlsx,New rule: Press 'space' when you see 2-back (i.e. the same letter as the one that appeared 2 letters ago.),,,,,,,,,,,0,12,12,12,,,,,,,,,,,,,,,,,,,,,,,,,,,,,,,,,,,,,,,,,,,,,,,,,,,,,,,,,,,,,,,,,,,,,,,,,,,,,,,,,P041,FENCOG,1,Post,2022_May_16_1217,N-Back (New Version 2021),2021.1.4,119.9531224
,,,,Conditions/Version_1/zeroback(4)_v1.xlsx,New rule: Press 'space' when you see the letter 'x' or 'X'.,o,None,,,,,,,,,0,13,13,13,0,0,0,0,,,,,,,,,,,,,,,,,,,,,,,,,,,,,,,,,,,,,,,,,,,,,,,,,,,,,,,,,,,886.2201263,None,889.2090602,None,space,0.3639493,889.2090602,None,886.2201263,None,1.754,891.3573406,None,None,1,891.3573406,None,,P041,FENCOG,1,Post,2022_May_16_1217,N-Back (New Version 2021),2021.1.4,119.9531224
,,,,Conditions/Version_1/zeroback(4)_v1.xlsx,New rule: Press 'space' when you see the letter 'x' or 'X'.,X,space,,,,,,,,,0,13,13,13,0,1,1,1,,,,,,,,,,,,,,,,,,,,,,,,,,,,,,,,,,,,,,,,,,,,,,,,,,,,,,,,,,,,,,,,,,,,,1.7354,895.1033515,None,space,1,895.1033515,None,0.4377903,P041,FENCOG,1,Post,2022_May_16_1217,N-Back (New Version 2021),2021.1.4,119.9531224
,,,,Conditions/Version_1/zeroback(4)_v1.xlsx,New rule: Press 'space' when you see the letter 'x' or 'X'.,p,None,,,,,,,,,0,13,13,13,0,2,2,2,,,,,,,,,,,,,,,,,,,,,,,,,,,,,,,,,,,,,,,,,,,,,,,,,,,,,,,,,,,,,,,,,,,,,1.32,898.4292445,None,None,1,898.4292445,None,,P041,FENCOG,1,Post,2022_May_16_1217,N-Back (New Version 2021),2021.1.4,119.9531224
,,,,Conditions/Version_1/zeroback(4)_v1.xlsx,New rule: Press 'space' when you see the letter 'x' or 'X'.,m,None,,,,,,,,,0,13,13,13,0,3,3,3,,,,,,,,,,,,,,,,,,,,,,,,,,,,,,,,,,,,,,,,,,,,,,,,,,,,,,,,,,,,,,,,,,,,,1.4688,901.9031361,None,None,1,901.9031361,None,,P041,FENCOG,1,Post,2022_May_16_1217,N-Back (New Version 2021),2021.1.4,119.9531224
,,,,Conditions/Version_1/zeroback(4)_v1.xlsx,New rule: Press 'space' when you see the letter 'x' or 'X'.,n,None,,,,,,,,,0,13,13,13,0,4,4,4,,,,,,,,,,,,,,,,,,,,,,,,,,,,,,,,,,,,,,,,,,,,,,,,,,,,,,,,,,,,,,,,,,,,,1.2084,905.1243461,None,None,1,905.1243461,None,,P041,FENCOG,1,Post,2022_May_16_1217,N-Back (New Version 2021),2021.1.4,119.9531224
,,,,Conditions/Version_1/zeroback(4)_v1.xlsx,New rule: Press 'space' when you see the letter 'x' or 'X'.,m,None,,,,,,,,,0,13,13,13,0,5,5,5,,,,,,,,,,,,,,,,,,,,,,,,,,,,,,,,,,,,,,,,,,,,,,,,,,,,,,,,,,,,,,,,,,,,,1.0658,908.1950013,None,None,1,908.1950013,None,,P041,FENCOG,1,Post,2022_May_16_1217,N-Back (New Version 2021),2021.1.4,119.9531224
,,,,Conditions/Version_1/zeroback(4)_v1.xlsx,New rule: Press 'space' when you see the letter 'x' or 'X'.,C,None,,,,,,,,,0,13,13,13,0,6,6,6,,,,,,,,,,,,,,,,,,,,,,,,,,,,,,,,,,,,,,,,,,,,,,,,,,,,,,,,,,,,,,,,,,,,,1.7602,911.9598455,None,None,1,911.9598455,None,,P041,FENCOG,1,Post,2022_May_16_1217,N-Back (New Version 2021),2021.1.4,119.9531224
,,,,Conditions/Version_1/zeroback(4)_v1.xlsx,New rule: Press 'space' when you see the letter 'x' or 'X'.,m,None,,,,,,,,,0,13,13,13,0,7,7,7,,,,,,,,,,,,,,,,,,,,,,,,,,,,,,,,,,,,,,,,,,,,,,,,,,,,,,,,,,,,,,,,,,,,,1.723,915.6909648,None,None,1,915.6909648,None,,P041,FENCOG,1,Post,2022_May_16_1217,N-Back (New Version 2021),2021.1.4,119.9531224
,,,,Conditions/Version_1/zeroback(4)_v1.xlsx,New rule: Press 'space' when you see the letter 'x' or 'X'.,p,None,,,,,,,,,0,13,13,13,0,8,8,8,,,,,,,,,,,,,,,,,,,,,,,,,,,,,,,,,,,,,,,,,,,,,,,,,,,,,,,,,,,,,,,,,,,,,1.6238,919.3230338,None,None,1,919.3230338,None,,P041,FENCOG,1,Post,2022_May_16_1217,N-Back (New Version 2021),2021.1.4,119.9531224
,,,,Conditions/Version_1/zeroback(4)_v1.xlsx,New rule: Press 'space' when you see the letter 'x' or 'X'.,X,space,,,,,,,,,0,13,13,13,0,9,9,9,,,,,,,,,,,,,,,,,,,,,,,,,,,,,,,,,,,,,,,,,,,,,,,,,,,,,,,,,,,,,,,,,,,,,1.692,923.0190899,None,space,1,923.0190899,None,0.3703029,P041,FENCOG,1,Post,2022_May_16_1217,N-Back (New Version 2021),2021.1.4,119.9531224
,,,,Conditions/Version_1/zeroback(4)_v1.xlsx,New rule: Press 'space' when you see the letter 'x' or 'X'.,,,,,,,,,,,0,13,13,13,,,,,,,,,,,,,,,,,,,,,,,,,,,,,,,,,,,,,,,,,,,,,,,,,,,,,,,,,,,,,,,,,,,,,,,,,,,,,,,,,P041,FENCOG,1,Post,2022_May_16_1217,N-Back (New Version 2021),2021.1.4,119.9531224
,,,,Conditions/Version_1/oneback(4)_v1.xlsx,New rule: Press 'space' when you see 1-back (i.e. the same letter as the one that appeared 1 letter ago.),w,None,,,,,,,,,0,14,14,14,0,0,0,0,,,,,,,,,,,,,,,,,,,,,,,,,,,,,,,,,,,,,,,,,,,,,,,,,,,,,,,,,,,925.0523957,None,928.051112,None,space,1.0978579,928.051112,None,925.0523957,None,1.351,930.5363889,None,None,1,930.5363889,None,,P041,FENCOG,1,Post,2022_May_16_1217,N-Back (New Version 2021),2021.1.4,119.9531224
,,,,Conditions/Version_1/oneback(4)_v1.xlsx,New rule: Press 'space' when you see 1-back (i.e. the same letter as the one that appeared 1 letter ago.),q,None,,,,,,,,,0,14,14,14,0,1,1,1,,,,,,,,,,,,,,,,,,,,,,,,,,,,,,,,,,,,,,,,,,,,,,,,,,,,,,,,,,,,,,,,,,,,,1.7106,934.2519159,None,None,1,934.2519159,None,,P041,FENCOG,1,Post,2022_May_16_1217,N-Back (New Version 2021),2021.1.4,119.9531224
,,,,Conditions/Version_1/oneback(4)_v1.xlsx,New rule: Press 'space' when you see 1-back (i.e. the same letter as the one that appeared 1 letter ago.),i,None,,,,,,,,,0,14,14,14,0,2,2,2,,,,,,,,,,,,,,,,,,,,,,,,,,,,,,,,,,,,,,,,,,,,,,,,,,,,,,,,,,,,,,,,,,,,,1.4378,937.692612,None,None,1,937.692612,None,,P041,FENCOG,1,Post,2022_May_16_1217,N-Back (New Version 2021),2021.1.4,119.9531224
,,,,Conditions/Version_1/oneback(4)_v1.xlsx,New rule: Press 'space' when you see 1-back (i.e. the same letter as the one that appeared 1 letter ago.),t,None,,,,,,,,,0,14,14,14,0,3,3,3,,,,,,,,,,,,,,,,,,,,,,,,,,,,,,,,,,,,,,,,,,,,,,,,,,,,,,,,,,,,,,,,,,,,,1.5432,941.2414294,None,None,1,941.2414294,None,,P041,FENCOG,1,Post,2022_May_16_1217,N-Back (New Version 2021),2021.1.4,119.9531224
,,,,Conditions/Version_1/oneback(4)_v1.xlsx,New rule: Press 'space' when you see 1-back (i.e. the same letter as the one that appeared 1 letter ago.),v,None,,,,,,,,,0,14,14,14,0,4,4,4,,,,,,,,,,,,,,,,,,,,,,,,,,,,,,,,,,,,,,,,,,,,,,,,,,,,,,,,,,,,,,,,,,,,,1.8718,945.1293451,None,None,1,945.1293451,None,,P041,FENCOG,1,Post,2022_May_16_1217,N-Back (New Version 2021),2021.1.4,119.9531224
,,,,Conditions/Version_1/oneback(4)_v1.xlsx,New rule: Press 'space' when you see 1-back (i.e. the same letter as the one that appeared 1 letter ago.),V,space,,,,,,,,,0,14,14,14,0,5,5,5,,,,,,,,,,,,,,,,,,,,,,,,,,,,,,,,,,,,,,,,,,,,,,,,,,,,,,,,,,,,,,,,,,,,,1.7292,948.8669257,None,space,1,948.8669257,None,0.5787978,P041,FENCOG,1,Post,2022_May_16_1217,N-Back (New Version 2021),2021.1.4,119.9531224
,,,,Conditions/Version_1/oneback(4)_v1.xlsx,New rule: Press 'space' when you see 1-back (i.e. the same letter as the one that appeared 1 letter ago.),v,space,,,,,,,,,0,14,14,14,0,6,6,6,,,,,,,,,,,,,,,,,,,,,,,,,,,,,,,,,,,,,,,,,,,,,,,,,,,,,,,,,,,,,,,,,,,,,1.1774,952.0557678,None,space,1,952.0557678,None,0.4692684,P041,FENCOG,1,Post,2022_May_16_1217,N-Back (New Version 2021),2021.1.4,119.9531224
,,,,Conditions/Version_1/oneback(4)_v1.xlsx,New rule: Press 'space' when you see 1-back (i.e. the same letter as the one that appeared 1 letter ago.),p,None,,,,,,,,,0,14,14,14,0,7,7,7,,,,,,,,,,,,,,,,,,,,,,,,,,,,,,,,,,,,,,,,,,,,,,,,,,,,,,,,,,,,,,,,,,,,,1.103,955.1708995,None,None,1,955.1708995,None,,P041,FENCOG,1,Post,2022_May_16_1217,N-Back (New Version 2021),2021.1.4,119.9531224
,,,,Conditions/Version_1/oneback(4)_v1.xlsx,New rule: Press 'space' when you see 1-back (i.e. the same letter as the one that appeared 1 letter ago.),w,None,,,,,,,,,0,14,14,14,0,8,8,8,,,,,,,,,,,,,,,,,,,,,,,,,,,,,,,,,,,,,,,,,,,,,,,,,,,,,,,,,,,,,,,,,,,,,1.0162,958.187662,None,None,1,958.187662,None,,P041,FENCOG,1,Post,2022_May_16_1217,N-Back (New Version 2021),2021.1.4,119.9531224
,,,,Conditions/Version_1/oneback(4)_v1.xlsx,New rule: Press 'space' when you see 1-back (i.e. the same letter as the one that appeared 1 letter ago.),W,space,,,,,,,,,0,14,14,14,0,9,9,9,,,,,,,,,,,,,,,,,,,,,,,,,,,,,,,,,,,,,,,,,,,,,,,,,,,,,,,,,,,,,,,,,,,,,1.3758,961.5779135,None,space,1,961.5779135,None,0.4668961,P041,FENCOG,1,Post,2022_May_16_1217,N-Back (New Version 2021),2021.1.4,119.9531224
,,,,Conditions/Version_1/oneback(4)_v1.xlsx,New rule: Press 'space' when you see 1-back (i.e. the same letter as the one that appeared 1 letter ago.),,,,,,,,,,,0,14,14,14,,,,,,,,,,,,,,,,,,,,,,,,,,,,,,,,,,,,,,,,,,,,,,,,,,,,,,,,,,,,,,,,,,,,,,,,,,,,,,,,,P041,FENCOG,1,Post,2022_May_16_1217,N-Back (New Version 2021),2021.1.4,119.9531224
,,,,Conditions/Version_1/threeback(4)_v1.xlsx,New rule: Press 'space' when you see 3-back (i.e. the same letter as the one that appeared 3 letters ago.),A,None,,,,,,,,,0,15,15,15,0,0,0,0,,,,,,,,,,,,,,,,,,,,,,,,,,,,,,,,,,,,,,,,,,,,,,,,,,,,,,,,,,,963.6064966,None,966.594727,None,space,0.8262515,966.594727,None,963.6064966,None,1.3758,968.8332145,None,None,1,968.8332145,None,,P041,FENCOG,1,Post,2022_May_16_1217,N-Back (New Version 2021),2021.1.4,119.9531224
,,,,Conditions/Version_1/threeback(4)_v1.xlsx,New rule: Press 'space' when you see 3-back (i.e. the same letter as the one that appeared 3 letters ago.),n,None,,,,,,,,,0,15,15,15,0,1,1,1,,,,,,,,,,,,,,,,,,,,,,,,,,,,,,,,,,,,,,,,,,,,,,,,,,,,,,,,,,,,,,,,,,,,,1.4006,972.2407338,None,None,1,972.2407338,None,,P041,FENCOG,1,Post,2022_May_16_1217,N-Back (New Version 2021),2021.1.4,119.9531224
,,,,Conditions/Version_1/threeback(4)_v1.xlsx,New rule: Press 'space' when you see 3-back (i.e. the same letter as the one that appeared 3 letters ago.),g,None,,,,,,,,,0,15,15,15,0,2,2,2,,,,,,,,,,,,,,,,,,,,,,,,,,,,,,,,,,,,,,,,,,,,,,,,,,,,,,,,,,,,,,,,,,,,,1.971,976.2268016,None,None,1,976.2268016,None,,P041,FENCOG,1,Post,2022_May_16_1217,N-Back (New Version 2021),2021.1.4,119.9531224
,,,,Conditions/Version_1/threeback(4)_v1.xlsx,New rule: Press 'space' when you see 3-back (i.e. the same letter as the one that appeared 3 letters ago.),A,space,,,,,,,,,0,15,15,15,0,3,3,3,,,,,,,,,,,,,,,,,,,,,,,,,,,,,,,,,,,,,,,,,,,,,,,,,,,,,,,,,,,,,,,,,,,,,1.1216,979.3570534,None,space,1,979.3570534,None,0.4399612,P041,FENCOG,1,Post,2022_May_16_1217,N-Back (New Version 2021),2021.1.4,119.9531224
,,,,Conditions/Version_1/threeback(4)_v1.xlsx,New rule: Press 'space' when you see 3-back (i.e. the same letter as the one that appeared 3 letters ago.),p,None,,,,,,,,,0,15,15,15,0,4,4,4,,,,,,,,,,,,,,,,,,,,,,,,,,,,,,,,,,,,,,,,,,,,,,,,,,,,,,,,,,,,,,,,,,,,,1.4874,982.8548667,None,None,1,982.8548667,None,,P041,FENCOG,1,Post,2022_May_16_1217,N-Back (New Version 2021),2021.1.4,119.9531224
,,,,Conditions/Version_1/threeback(4)_v1.xlsx,New rule: Press 'space' when you see 3-back (i.e. the same letter as the one that appeared 3 letters ago.),O,None,,,,,,,,,0,15,15,15,0,5,5,5,,,,,,,,,,,,,,,,,,,,,,,,,,,,,,,,,,,,,,,,,,,,,,,,,,,,,,,,,,,,,,,,,,,,,1.8594,986.7283297,None,None,1,986.7283297,None,,P041,FENCOG,1,Post,2022_May_16_1217,N-Back (New Version 2021),2021.1.4,119.9531224
,,,,Conditions/Version_1/threeback(4)_v1.xlsx,New rule: Press 'space' when you see 3-back (i.e. the same letter as the one that appeared 3 letters ago.),a,space,,,,,,,,,0,15,15,15,0,6,6,6,,,,,,,,,,,,,,,,,,,,,,,,,,,,,,,,,,,,,,,,,,,,,,,,,,,,,,,,,,,,,,,,,,,,,1.3882,990.1196763,None,space,1,990.1196763,None,0.7254983,P041,FENCOG,1,Post,2022_May_16_1217,N-Back (New Version 2021),2021.1.4,119.9531224
,,,,Conditions/Version_1/threeback(4)_v1.xlsx,New rule: Press 'space' when you see 3-back (i.e. the same letter as the one that appeared 3 letters ago.),p,space,,,,,,,,,0,15,15,15,0,7,7,7,,,,,,,,,,,,,,,,,,,,,,,,,,,,,,,,,,,,,,,,,,,,,,,,,,,,,,,,,,,,,,,,,,,,,1.878,994.0092684,None,space,1,994.0092684,None,0.6517208,P041,FENCOG,1,Post,2022_May_16_1217,N-Back (New Version 2021),2021.1.4,119.9531224
,,,,Conditions/Version_1/threeback(4)_v1.xlsx,New rule: Press 'space' when you see 3-back (i.e. the same letter as the one that appeared 3 letters ago.),x,None,,,,,,,,,0,15,15,15,0,8,8,8,,,,,,,,,,,,,,,,,,,,,,,,,,,,,,,,,,,,,,,,,,,,,,,,,,,,,,,,,,,,,,,,,,,,,1.3572,997.3677776,None,None,1,997.3677776,None,,P041,FENCOG,1,Post,2022_May_16_1217,N-Back (New Version 2021),2021.1.4,119.9531224
,,,,Conditions/Version_1/threeback(4)_v1.xlsx,New rule: Press 'space' when you see 3-back (i.e. the same letter as the one that appeared 3 letters ago.),X,None,,,,,,,,,0,15,15,15,0,9,9,9,,,,,,,,,,,,,,,,,,,,,,,,,,,,,,,,,,,,,,,,,,,,,,,,,,,,,,,,,,,,,,,,,,,,,1.7788,1001.160746,None,None,1,1001.160746,None,,P041,FENCOG,1,Post,2022_May_16_1217,N-Back (New Version 2021),2021.1.4,119.9531224
,,,,Conditions/Version_1/threeback(4)_v1.xlsx,New rule: Press 'space' when you see 3-back (i.e. the same letter as the one that appeared 3 letters ago.),,,,,,,,,,,0,15,15,15,,,,,,,,,,,,,,,,,,,,,,,,,,,,,,,,,,,,,,,,,,,,,,,,,,,,,,,,,,,,,,,,,,,,,,,,,,,,,,,,,P041,FENCOG,1,Post,2022_May_16_1217,N-Back (New Version 2021),2021.1.4,119.9531224
