CondFileP,InstructionsP,LettersDisplayedP,CorrectnessP,CondFile,Instructions,LettersDisplayed,Correctness,practicetrials.thisRepN,practicetrials.thisTrialN,practicetrials.thisN,practicetrials.thisIndex,InnerLoopPractice.thisRepN,InnerLoopPractice.thisTrialN,InnerLoopPractice.thisN,InnerLoopPractice.thisIndex,trials.thisRepN,trials.thisTrialN,trials.thisN,trials.thisIndex,InnerLoop.thisRepN,InnerLoop.thisTrialN,InnerLoop.thisN,InnerLoop.thisIndex,TaskVersionText.started,TaskVersionText.stopped,InstrKey1.keys,InstrKey1.rt,InstrKey1.started,InstrKey1.stopped,text.started,text.stopped,key_resp_4.keys,key_resp_4.rt,key_resp_4.started,key_resp_4.stopped,text_2.started,text_2.stopped,key_resp_3.keys,key_resp_3.rt,key_resp_3.started,key_resp_3.stopped,text_3.started,text_3.stopped,key_resp_2.keys,key_resp_2.rt,key_resp_2.started,key_resp_2.stopped,PractIn1.started,PractIn1.stopped,PractIn2.started,PractIn2.stopped,PractInstructionPass.keys,PractInstructionPass.rt,PractInstructionPass.started,PractInstructionPass.stopped,PractBlock1.started,PractBlock1.stopped,ISIjitterPractice,ISI_Pract_Fixation.started,ISI_Pract_Fixation.stopped,N_backP.started,N_backP.stopped,KeyPractice.keys,KeyPractice.corr,KeyPractice.rt,KeyPractice.started,KeyPractice.stopped,text_4.started,text_4.stopped,TransitionText.started,TransitionText.stopped,key_resp_6.keys,key_resp_6.rt,key_resp_6.started,key_resp_6.stopped,text_5.started,text_5.stopped,key_resp_5.keys,key_resp_5.rt,key_resp_5.started,key_resp_5.stopped,MainInt1.started,MainInt1.stopped,MainInt2.started,MainInt2.stopped,InstructionPass.keys,InstructionPass.rt,InstructionPass.started,InstructionPass.stopped,Blocks1.started,Blocks1.stopped,ISIjitter,N_backD.started,N_backD.stopped,key_resp.keys,key_resp.corr,key_resp.started,key_resp.stopped,key_resp.rt,participant,Study Name,Task Version (required to run),PRE/POST,date,expName,psychopyVersion,frameRate
,,,,,,,,,,,,,,,,,,,,,,,,45.3766188,None,space,76.0172992,45.8658596,None,,,,,,,,,,,,,,,,,,,,,,,,,,,,,,,,,,,,,,,,,,,,,,,,,,,,,,,,,,,,,,,,,,,,,,,P041,FENCOG,2,Pre,2022_May_09_1128,N-Back (New Version 2021),2021.1.4,120.6460354
,,,,,,,,,,,,,,,,,,,,,,,,,,,,,,121.9155337,None,space,11.4487569,122.4104568,None,,,,,,,,,,,,,,,,,,,,,,,,,,,,,,,,,,,,,,,,,,,,,,,,,,,,,,,,,,,,,,,,,P041,FENCOG,2,Pre,2022_May_09_1128,N-Back (New Version 2021),2021.1.4,120.6460354
,,,,,,,,,,,,,,,,,,,,,,,,,,,,,,,,,,,,133.9085566,None,space,16.7964506,134.3987123,None,,,,,,,,,,,,,,,,,,,,,,,,,,,,,,,,,,,,,,,,,,,,,,,,,,,,,,,,,,,P041,FENCOG,2,Pre,2022_May_09_1128,N-Back (New Version 2021),2021.1.4,120.6460354
,,,,,,,,,,,,,,,,,,,,,,,,,,,,,,,,,,,,,,,,,,151.2283944,None,space,25.4125512,151.718511,None,,,,,,,,,,,,,,,,,,,,,,,,,,,,,,,,,,,,,,,,,,,,,,,,,,,,,P041,FENCOG,2,Pre,2022_May_09_1128,N-Back (New Version 2021),2021.1.4,120.6460354
Conditions/Version_2Pr/zeroback(1)_v2.xlsx,Rule: Press 'space' when you see the letter 'x' or 'X'.,x,space,,,,,0,0,0,0,0,0,0,0,,,,,,,,,,,,,,,,,,,,,,,,,,,,,,,,,178.5190338,None,181.502339,None,space,5.7813743,181.502339,None,178.5190338,None,1.49,187.3136177,None,188.8093394,None,space,1,0.377851,188.8093394,None,189.2067172,None,,,,,,,,,,,,,,,,,,,,,,,,,,,,,,,P041,FENCOG,2,Pre,2022_May_09_1128,N-Back (New Version 2021),2021.1.4,120.6460354
Conditions/Version_2Pr/zeroback(1)_v2.xlsx,Rule: Press 'space' when you see the letter 'x' or 'X'.,R,None,,,,,0,0,0,0,0,1,1,1,,,,,,,,,,,,,,,,,,,,,,,,,,,,,,,,,,,,,,,,,,,1.465,190.7060315,None,192.1803934,None,None,1,,192.1803934,None,194.1798434,None,,,,,,,,,,,,,,,,,,,,,,,,,,,,,,,P041,FENCOG,2,Pre,2022_May_09_1128,N-Back (New Version 2021),2021.1.4,120.6460354
Conditions/Version_2Pr/zeroback(1)_v2.xlsx,Rule: Press 'space' when you see the letter 'x' or 'X'.,p,None,,,,,0,0,0,0,0,2,2,2,,,,,,,,,,,,,,,,,,,,,,,,,,,,,,,,,,,,,,,,,,,1.24,195.6797187,None,196.9228674,None,None,1,,196.9228674,None,198.9288044,None,,,,,,,,,,,,,,,,,,,,,,,,,,,,,,,P041,FENCOG,2,Pre,2022_May_09_1128,N-Back (New Version 2021),2021.1.4,120.6460354
Conditions/Version_2Pr/zeroback(1)_v2.xlsx,Rule: Press 'space' when you see the letter 'x' or 'X'.,O,None,,,,,0,0,0,0,0,3,3,3,,,,,,,,,,,,,,,,,,,,,,,,,,,,,,,,,,,,,,,,,,,1.915,200.4283588,None,202.3483946,None,None,1,,202.3483946,None,204.3521227,None,,,,,,,,,,,,,,,,,,,,,,,,,,,,,,,P041,FENCOG,2,Pre,2022_May_09_1128,N-Back (New Version 2021),2021.1.4,120.6460354
Conditions/Version_2Pr/zeroback(1)_v2.xlsx,Rule: Press 'space' when you see the letter 'x' or 'X'.,i,None,,,,,0,0,0,0,0,4,4,4,,,,,,,,,,,,,,,,,,,,,,,,,,,,,,,,,,,,,,,,,,,1.34,205.851683,None,207.1931837,None,None,1,,207.1931837,None,209.1923799,None,,,,,,,,,,,,,,,,,,,,,,,,,,,,,,,P041,FENCOG,2,Pre,2022_May_09_1128,N-Back (New Version 2021),2021.1.4,120.6460354
Conditions/Version_2Pr/zeroback(1)_v2.xlsx,Rule: Press 'space' when you see the letter 'x' or 'X'.,U,None,,,,,0,0,0,0,0,5,5,5,,,,,,,,,,,,,,,,,,,,,,,,,,,,,,,,,,,,,,,,,,,1.165,210.6918264,None,211.8599461,None,None,1,,211.8599461,None,213.8624523,None,,,,,,,,,,,,,,,,,,,,,,,,,,,,,,,P041,FENCOG,2,Pre,2022_May_09_1128,N-Back (New Version 2021),2021.1.4,120.6460354
Conditions/Version_2Pr/zeroback(1)_v2.xlsx,Rule: Press 'space' when you see the letter 'x' or 'X'.,N,None,,,,,0,0,0,0,0,6,6,6,,,,,,,,,,,,,,,,,,,,,,,,,,,,,,,,,,,,,,,,,,,1.815,215.3655259,None,217.1841756,None,None,1,,217.1841756,None,219.189443,None,,,,,,,,,,,,,,,,,,,,,,,,,,,,,,,P041,FENCOG,2,Pre,2022_May_09_1128,N-Back (New Version 2021),2021.1.4,120.6460354
Conditions/Version_2Pr/zeroback(1)_v2.xlsx,Rule: Press 'space' when you see the letter 'x' or 'X'.,m,None,,,,,0,0,0,0,0,7,7,7,,,,,,,,,,,,,,,,,,,,,,,,,,,,,,,,,,,,,,,,,,,1.39,220.6889533,None,222.08107,None,None,1,,222.08107,None,224.0877992,None,,,,,,,,,,,,,,,,,,,,,,,,,,,,,,,P041,FENCOG,2,Pre,2022_May_09_1128,N-Back (New Version 2021),2021.1.4,120.6460354
Conditions/Version_2Pr/zeroback(1)_v2.xlsx,Rule: Press 'space' when you see the letter 'x' or 'X'.,x,space,,,,,0,0,0,0,0,8,8,8,,,,,,,,,,,,,,,,,,,,,,,,,,,,,,,,,,,,,,,,,,,1.59,225.5875346,None,227.1826959,None,space,1,0.3484163,227.1826959,None,227.546766,None,,,,,,,,,,,,,,,,,,,,,,,,,,,,,,,P041,FENCOG,2,Pre,2022_May_09_1128,N-Back (New Version 2021),2021.1.4,120.6460354
Conditions/Version_2Pr/zeroback(1)_v2.xlsx,Rule: Press 'space' when you see the letter 'x' or 'X'.,X,space,,,,,0,0,0,0,0,9,9,9,,,,,,,,,,,,,,,,,,,,,,,,,,,,,,,,,,,,,,,,,,,1.215,229.0530767,None,230.2709479,None,space,1,0.4924455,230.2709479,None,230.7791285,None,,,,,,,,,,,,,,,,,,,,,,,,,,,,,,,P041,FENCOG,2,Pre,2022_May_09_1128,N-Back (New Version 2021),2021.1.4,120.6460354
Conditions/Version_2Pr/zeroback(1)_v2.xlsx,Rule: Press 'space' when you see the letter 'x' or 'X'.,,,,,,,0,0,0,0,,,,,,,,,,,,,,,,,,,,,,,,,,,,,,,,,,,,,,,,,,,,,,,,,,,,,,,,,,,,,,,,,,,,,,,,,,,,,,,,,,,,,,,,,P041,FENCOG,2,Pre,2022_May_09_1128,N-Back (New Version 2021),2021.1.4,120.6460354
Conditions/Version_2Pr/oneback(1)_v2.xlsx,New rule: Press 'space' when you see 1-back (i.e. the same letter as the one that appeared 1 letter ago.),r,None,,,,,0,1,1,1,0,0,0,0,,,,,,,,,,,,,,,,,,,,,,,,,,,,,,,,,232.3113703,None,235.2962584,None,space,11.5388722,235.2962584,None,232.3113703,None,1.74,246.8664882,None,248.6071786,None,None,1,,248.6071786,None,250.6134712,None,,,,,,,,,,,,,,,,,,,,,,,,,,,,,,,P041,FENCOG,2,Pre,2022_May_09_1128,N-Back (New Version 2021),2021.1.4,120.6460354
Conditions/Version_2Pr/oneback(1)_v2.xlsx,New rule: Press 'space' when you see 1-back (i.e. the same letter as the one that appeared 1 letter ago.),t,None,,,,,0,1,1,1,0,1,1,1,,,,,,,,,,,,,,,,,,,,,,,,,,,,,,,,,,,,,,,,,,,1.34,252.1148071,None,253.454882,None,None,1,,253.454882,None,255.46203,None,,,,,,,,,,,,,,,,,,,,,,,,,,,,,,,P041,FENCOG,2,Pre,2022_May_09_1128,N-Back (New Version 2021),2021.1.4,120.6460354
Conditions/Version_2Pr/oneback(1)_v2.xlsx,New rule: Press 'space' when you see 1-back (i.e. the same letter as the one that appeared 1 letter ago.),Y,None,,,,,0,1,1,1,0,2,2,2,,,,,,,,,,,,,,,,,,,,,,,,,,,,,,,,,,,,,,,,,,,1.965,256.961624,None,258.9339617,None,None,1,,258.9339617,None,260.9355004,None,,,,,,,,,,,,,,,,,,,,,,,,,,,,,,,P041,FENCOG,2,Pre,2022_May_09_1128,N-Back (New Version 2021),2021.1.4,120.6460354
Conditions/Version_2Pr/oneback(1)_v2.xlsx,New rule: Press 'space' when you see 1-back (i.e. the same letter as the one that appeared 1 letter ago.),y,space,,,,,0,1,1,1,0,3,3,3,,,,,,,,,,,,,,,,,,,,,,,,,,,,,,,,,,,,,,,,,,,1.815,262.4348931,None,264.2525185,None,space,1,0.3426056,264.2525185,None,264.6095124,None,,,,,,,,,,,,,,,,,,,,,,,,,,,,,,,P041,FENCOG,2,Pre,2022_May_09_1128,N-Back (New Version 2021),2021.1.4,120.6460354
Conditions/Version_2Pr/oneback(1)_v2.xlsx,New rule: Press 'space' when you see 1-back (i.e. the same letter as the one that appeared 1 letter ago.),p,None,,,,,0,1,1,1,0,4,4,4,,,,,,,,,,,,,,,,,,,,,,,,,,,,,,,,,,,,,,,,,,,1.565,266.1088709,None,267.6810971,None,None,1,,267.6810971,None,269.6787633,None,,,,,,,,,,,,,,,,,,,,,,,,,,,,,,,P041,FENCOG,2,Pre,2022_May_09_1128,N-Back (New Version 2021),2021.1.4,120.6460354
Conditions/Version_2Pr/oneback(1)_v2.xlsx,New rule: Press 'space' when you see 1-back (i.e. the same letter as the one that appeared 1 letter ago.),P,space,,,,,0,1,1,1,0,5,5,5,,,,,,,,,,,,,,,,,,,,,,,,,,,,,,,,,,,,,,,,,,,1.49,271.18304,None,272.6765473,None,space,1,0.2783482,272.6765473,None,272.9673149,None,,,,,,,,,,,,,,,,,,,,,,,,,,,,,,,P041,FENCOG,2,Pre,2022_May_09_1128,N-Back (New Version 2021),2021.1.4,120.6460354
Conditions/Version_2Pr/oneback(1)_v2.xlsx,New rule: Press 'space' when you see 1-back (i.e. the same letter as the one that appeared 1 letter ago.),e,None,,,,,0,1,1,1,0,6,6,6,,,,,,,,,,,,,,,,,,,,,,,,,,,,,,,,,,,,,,,,,,,1.865,274.4728574,None,276.3397587,None,None,1,,276.3397587,None,278.3415271,None,,,,,,,,,,,,,,,,,,,,,,,,,,,,,,,P041,FENCOG,2,Pre,2022_May_09_1128,N-Back (New Version 2021),2021.1.4,120.6460354
Conditions/Version_2Pr/oneback(1)_v2.xlsx,New rule: Press 'space' when you see 1-back (i.e. the same letter as the one that appeared 1 letter ago.),r,None,,,,,0,1,1,1,0,7,7,7,,,,,,,,,,,,,,,,,,,,,,,,,,,,,,,,,,,,,,,,,,,1.415,279.8464944,None,281.2645067,None,None,1,,281.2645067,None,283.271101,None,,,,,,,,,,,,,,,,,,,,,,,,,,,,,,,P041,FENCOG,2,Pre,2022_May_09_1128,N-Back (New Version 2021),2021.1.4,120.6460354
Conditions/Version_2Pr/oneback(1)_v2.xlsx,New rule: Press 'space' when you see 1-back (i.e. the same letter as the one that appeared 1 letter ago.),R,space,,,,,0,1,1,1,0,8,8,8,,,,,,,,,,,,,,,,,,,,,,,,,,,,,,,,,,,,,,,,,,,1.19,284.7701037,None,285.9622551,None,space,1,0.408869,285.9622551,None,286.3821227,None,,,,,,,,,,,,,,,,,,,,,,,,,,,,,,,P041,FENCOG,2,Pre,2022_May_09_1128,N-Back (New Version 2021),2021.1.4,120.6460354
Conditions/Version_2Pr/oneback(1)_v2.xlsx,New rule: Press 'space' when you see 1-back (i.e. the same letter as the one that appeared 1 letter ago.),p,None,,,,,0,1,1,1,0,9,9,9,,,,,,,,,,,,,,,,,,,,,,,,,,,,,,,,,,,,,,,,,,,1.165,287.885849,None,289.0519178,None,None,1,,289.0519178,None,291.0515633,None,,,,,,,,,,,,,,,,,,,,,,,,,,,,,,,P041,FENCOG,2,Pre,2022_May_09_1128,N-Back (New Version 2021),2021.1.4,120.6460354
Conditions/Version_2Pr/oneback(1)_v2.xlsx,New rule: Press 'space' when you see 1-back (i.e. the same letter as the one that appeared 1 letter ago.),,,,,,,0,1,1,1,,,,,,,,,,,,,,,,,,,,,,,,,,,,,,,,,,,,,,,,,,,,,,,,,,,,,,,,,,,,,,,,,,,,,,,,,,,,,,,,,,,,,,,,,P041,FENCOG,2,Pre,2022_May_09_1128,N-Back (New Version 2021),2021.1.4,120.6460354
Conditions/Version_2Pr/twoback(1)_v2.xlsx,New rule: Press 'space' when you see 2-back (i.e. the same letter as the one that appeared 2 letters ago.),r,None,,,,,0,2,2,2,0,0,0,0,,,,,,,,,,,,,,,,,,,,,,,,,,,,,,,,,292.5737659,None,295.5606774,None,space,52.4825678,295.5606774,None,292.5737659,None,1.715,348.0747513,None,349.7944891,None,None,1,,349.7944891,None,351.8003129,None,,,,,,,,,,,,,,,,,,,,,,,,,,,,,,,P041,FENCOG,2,Pre,2022_May_09_1128,N-Back (New Version 2021),2021.1.4,120.6460354
Conditions/Version_2Pr/twoback(1)_v2.xlsx,New rule: Press 'space' when you see 2-back (i.e. the same letter as the one that appeared 2 letters ago.),P,None,,,,,0,2,2,2,0,1,1,1,,,,,,,,,,,,,,,,,,,,,,,,,,,,,,,,,,,,,,,,,,,1.865,353.2999044,None,355.1669098,None,None,1,,355.1669098,None,357.1735682,None,,,,,,,,,,,,,,,,,,,,,,,,,,,,,,,P041,FENCOG,2,Pre,2022_May_09_1128,N-Back (New Version 2021),2021.1.4,120.6460354
Conditions/Version_2Pr/twoback(1)_v2.xlsx,New rule: Press 'space' when you see 2-back (i.e. the same letter as the one that appeared 2 letters ago.),o,None,,,,,0,2,2,2,0,2,2,2,,,,,,,,,,,,,,,,,,,,,,,,,,,,,,,,,,,,,,,,,,,1.465,358.6731597,None,360.1409885,None,None,1,,360.1409885,None,362.1472476,None,,,,,,,,,,,,,,,,,,,,,,,,,,,,,,,P041,FENCOG,2,Pre,2022_May_09_1128,N-Back (New Version 2021),2021.1.4,120.6460354
Conditions/Version_2Pr/twoback(1)_v2.xlsx,New rule: Press 'space' when you see 2-back (i.e. the same letter as the one that appeared 2 letters ago.),p,space,,,,,0,2,2,2,0,3,3,3,,,,,,,,,,,,,,,,,,,,,,,,,,,,,,,,,,,,,,,,,,,1.09,363.6467694,None,364.7433063,None,space,1,0.611574,364.7433063,None,365.3636952,None,,,,,,,,,,,,,,,,,,,,,,,,,,,,,,,P041,FENCOG,2,Pre,2022_May_09_1128,N-Back (New Version 2021),2021.1.4,120.6460354
Conditions/Version_2Pr/twoback(1)_v2.xlsx,New rule: Press 'space' when you see 2-back (i.e. the same letter as the one that appeared 2 letters ago.),Y,None,,,,,0,2,2,2,0,4,4,4,,,,,,,,,,,,,,,,,,,,,,,,,,,,,,,,,,,,,,,,,,,1.365,366.8703998,None,368.2368449,None,None,1,,368.2368449,None,370.2364937,None,,,,,,,,,,,,,,,,,,,,,,,,,,,,,,,P041,FENCOG,2,Pre,2022_May_09_1128,N-Back (New Version 2021),2021.1.4,120.6460354
Conditions/Version_2Pr/twoback(1)_v2.xlsx,New rule: Press 'space' when you see 2-back (i.e. the same letter as the one that appeared 2 letters ago.),q,None,,,,,0,2,2,2,0,5,5,5,,,,,,,,,,,,,,,,,,,,,,,,,,,,,,,,,,,,,,,,,,,1.615,371.735786,None,373.3624143,None,None,1,,373.3624143,None,375.3599553,None,,,,,,,,,,,,,,,,,,,,,,,,,,,,,,,P041,FENCOG,2,Pre,2022_May_09_1128,N-Back (New Version 2021),2021.1.4,120.6460354
Conditions/Version_2Pr/twoback(1)_v2.xlsx,New rule: Press 'space' when you see 2-back (i.e. the same letter as the one that appeared 2 letters ago.),m,None,,,,,0,2,2,2,0,6,6,6,,,,,,,,,,,,,,,,,,,,,,,,,,,,,,,,,,,,,,,,,,,1.965,376.8595635,None,378.8259521,None,None,1,,378.8259521,None,380.8248359,None,,,,,,,,,,,,,,,,,,,,,,,,,,,,,,,P041,FENCOG,2,Pre,2022_May_09_1128,N-Back (New Version 2021),2021.1.4,120.6460354
Conditions/Version_2Pr/twoback(1)_v2.xlsx,New rule: Press 'space' when you see 2-back (i.e. the same letter as the one that appeared 2 letters ago.),Q,space,,,,,0,2,2,2,0,7,7,7,,,,,,,,,,,,,,,,,,,,,,,,,,,,,,,,,,,,,,,,,,,1.44,382.3243388,None,383.7679032,None,space,1,0.2830706,383.7679032,None,384.0670971,None,,,,,,,,,,,,,,,,,,,,,,,,,,,,,,,P041,FENCOG,2,Pre,2022_May_09_1128,N-Back (New Version 2021),2021.1.4,120.6460354
Conditions/Version_2Pr/twoback(1)_v2.xlsx,New rule: Press 'space' when you see 2-back (i.e. the same letter as the one that appeared 2 letters ago.),L,None,,,,,0,2,2,2,0,8,8,8,,,,,,,,,,,,,,,,,,,,,,,,,,,,,,,,,,,,,,,,,,,1.665,385.5734256,None,387.2403726,None,None,1,,387.2403726,None,389.2476177,None,,,,,,,,,,,,,,,,,,,,,,,,,,,,,,,P041,FENCOG,2,Pre,2022_May_09_1128,N-Back (New Version 2021),2021.1.4,120.6460354
Conditions/Version_2Pr/twoback(1)_v2.xlsx,New rule: Press 'space' when you see 2-back (i.e. the same letter as the one that appeared 2 letters ago.),q,space,,,,,0,2,2,2,0,9,9,9,,,,,,,,,,,,,,,,,,,,,,,,,,,,,,,,,,,,,,,,,,,1.115,390.7470571,None,391.8643141,None,space,1,0.866692,391.8643141,None,392.7407476,None,,,,,,,,,,,,,,,,,,,,,,,,,,,,,,,P041,FENCOG,2,Pre,2022_May_09_1128,N-Back (New Version 2021),2021.1.4,120.6460354
Conditions/Version_2Pr/twoback(1)_v2.xlsx,New rule: Press 'space' when you see 2-back (i.e. the same letter as the one that appeared 2 letters ago.),,,,,,,0,2,2,2,,,,,,,,,,,,,,,,,,,,,,,,,,,,,,,,,,,,,,,,,,,,,,,,,,,,,,,,,,,,,,,,,,,,,,,,,,,,,,,,,,,,,,,,,P041,FENCOG,2,Pre,2022_May_09_1128,N-Back (New Version 2021),2021.1.4,120.6460354
Conditions/Version_2Pr/threeback(1)_v2.xlsx,New rule: Press 'space' when you see 3-back (i.e. the same letter as the one that appeared 3 letters ago.),u,None,,,,,0,3,3,3,0,0,0,0,,,,,,,,,,,,,,,,,,,,,,,,,,,,,,,,,394.2749601,None,397.2578905,None,space,5.8891091,397.2578905,None,394.2749601,None,1.29,403.1746788,None,404.4718411,None,None,1,,404.4718411,None,406.475751,None,,,,,,,,,,,,,,,,,,,,,,,,,,,,,,,P041,FENCOG,2,Pre,2022_May_09_1128,N-Back (New Version 2021),2021.1.4,120.6460354
Conditions/Version_2Pr/threeback(1)_v2.xlsx,New rule: Press 'space' when you see 3-back (i.e. the same letter as the one that appeared 3 letters ago.),U,None,,,,,0,3,3,3,0,1,1,1,,,,,,,,,,,,,,,,,,,,,,,,,,,,,,,,,,,,,,,,,,,1.24,407.9752954,None,409.2165308,None,None,1,,409.2165308,None,411.216007,None,,,,,,,,,,,,,,,,,,,,,,,,,,,,,,,P041,FENCOG,2,Pre,2022_May_09_1128,N-Back (New Version 2021),2021.1.4,120.6460354
Conditions/Version_2Pr/threeback(1)_v2.xlsx,New rule: Press 'space' when you see 3-back (i.e. the same letter as the one that appeared 3 letters ago.),p,None,,,,,0,3,3,3,0,2,2,2,,,,,,,,,,,,,,,,,,,,,,,,,,,,,,,,,,,,,,,,,,,1.49,412.7167556,None,414.2076434,None,None,1,,414.2076434,None,416.2146242,None,,,,,,,,,,,,,,,,,,,,,,,,,,,,,,,P041,FENCOG,2,Pre,2022_May_09_1128,N-Back (New Version 2021),2021.1.4,120.6460354
Conditions/Version_2Pr/threeback(1)_v2.xlsx,New rule: Press 'space' when you see 3-back (i.e. the same letter as the one that appeared 3 letters ago.),U,space,,,,,0,3,3,3,0,3,3,3,,,,,,,,,,,,,,,,,,,,,,,,,,,,,,,,,,,,,,,,,,,1.715,417.714102,None,419.4355377,None,space,1,0.2634312,419.4355377,None,419.7126438,None,,,,,,,,,,,,,,,,,,,,,,,,,,,,,,,P041,FENCOG,2,Pre,2022_May_09_1128,N-Back (New Version 2021),2021.1.4,120.6460354
Conditions/Version_2Pr/threeback(1)_v2.xlsx,New rule: Press 'space' when you see 3-back (i.e. the same letter as the one that appeared 3 letters ago.),e,None,,,,,0,3,3,3,0,4,4,4,,,,,,,,,,,,,,,,,,,,,,,,,,,,,,,,,,,,,,,,,,,1.365,421.2130895,None,422.5801687,None,None,1,,422.5801687,None,424.5871432,None,,,,,,,,,,,,,,,,,,,,,,,,,,,,,,,P041,FENCOG,2,Pre,2022_May_09_1128,N-Back (New Version 2021),2021.1.4,120.6460354
Conditions/Version_2Pr/threeback(1)_v2.xlsx,New rule: Press 'space' when you see 3-back (i.e. the same letter as the one that appeared 3 letters ago.),R,None,,,,,0,3,3,3,0,5,5,5,,,,,,,,,,,,,,,,,,,,,,,,,,,,,,,,,,,,,,,,,,,1.39,426.0866767,None,427.4775565,None,None,1,,427.4775565,None,429.4773062,None,,,,,,,,,,,,,,,,,,,,,,,,,,,,,,,P041,FENCOG,2,Pre,2022_May_09_1128,N-Back (New Version 2021),2021.1.4,120.6460354
Conditions/Version_2Pr/threeback(1)_v2.xlsx,New rule: Press 'space' when you see 3-back (i.e. the same letter as the one that appeared 3 letters ago.),p,None,,,,,0,3,3,3,0,6,6,6,,,,,,,,,,,,,,,,,,,,,,,,,,,,,,,,,,,,,,,,,,,1.665,430.9766532,None,432.6438413,None,None,1,,432.6438413,None,434.6508158,None,,,,,,,,,,,,,,,,,,,,,,,,,,,,,,,P041,FENCOG,2,Pre,2022_May_09_1128,N-Back (New Version 2021),2021.1.4,120.6460354
Conditions/Version_2Pr/threeback(1)_v2.xlsx,New rule: Press 'space' when you see 3-back (i.e. the same letter as the one that appeared 3 letters ago.),E,space,,,,,0,3,3,3,0,7,7,7,,,,,,,,,,,,,,,,,,,,,,,,,,,,,,,,,,,,,,,,,,,1.415,436.1502818,None,437.5705757,None,space,1,0.5044835,437.5705757,None,438.0841453,None,,,,,,,,,,,,,,,,,,,,,,,,,,,,,,,P041,FENCOG,2,Pre,2022_May_09_1128,N-Back (New Version 2021),2021.1.4,120.6460354
Conditions/Version_2Pr/threeback(1)_v2.xlsx,New rule: Press 'space' when you see 3-back (i.e. the same letter as the one that appeared 3 letters ago.),k,None,,,,,0,3,3,3,0,8,8,8,,,,,,,,,,,,,,,,,,,,,,,,,,,,,,,,,,,,,,,,,,,1.615,439.5922461,None,441.2089387,None,None,1,,441.2089387,None,443.2149274,None,,,,,,,,,,,,,,,,,,,,,,,,,,,,,,,P041,FENCOG,2,Pre,2022_May_09_1128,N-Back (New Version 2021),2021.1.4,120.6460354
Conditions/Version_2Pr/threeback(1)_v2.xlsx,New rule: Press 'space' when you see 3-back (i.e. the same letter as the one that appeared 3 letters ago.),m,None,,,,,0,3,3,3,0,9,9,9,,,,,,,,,,,,,,,,,,,,,,,,,,,,,,,,,,,,,,,,,,,1.265,444.7145168,None,445.9816364,None,None,1,,445.9816364,None,447.9885758,None,,,,,,,,,,,,,,,,,,,,,,,,,,,,,,,P041,FENCOG,2,Pre,2022_May_09_1128,N-Back (New Version 2021),2021.1.4,120.6460354
Conditions/Version_2Pr/threeback(1)_v2.xlsx,New rule: Press 'space' when you see 3-back (i.e. the same letter as the one that appeared 3 letters ago.),,,,,,,0,3,3,3,,,,,,,,,,,,,,,,,,,,,,,,,,,,,,,,,,,,,,,,,,,,,,,,,,,,,,,,,,,,,,,,,,,,,,,,,,,,,,,,,,,,,,,,,P041,FENCOG,2,Pre,2022_May_09_1128,N-Back (New Version 2021),2021.1.4,120.6460354
,,,,,,,,,,,,,,,,,,,,,,,,,,,,,,,,,,,,,,,,,,,,,,,,,,,,,,,,,,,,,,,,,,,,,,449.5004498,None,space,14.5102516,449.9965381,None,,,,,,,,,,,,,,,,,,,,,,,,,P041,FENCOG,2,Pre,2022_May_09_1128,N-Back (New Version 2021),2021.1.4,120.6460354
,,,,,,,,,,,,,,,,,,,,,,,,,,,,,,,,,,,,,,,,,,,,,,,,,,,,,,,,,,,,,,,,,,,,,,,,,,,,464.5307591,None,space,6.8972105,465.0256976,None,,,,,,,,,,,,,,,,,,,P041,FENCOG,2,Pre,2022_May_09_1128,N-Back (New Version 2021),2021.1.4,120.6460354
,,,,Conditions/Version_1/zeroback(1)_v1.xlsx,Rule: Press 'space' when you see the letter 'x' or 'X'.,b,None,,,,,,,,,0,0,0,0,0,0,0,0,,,,,,,,,,,,,,,,,,,,,,,,,,,,,,,,,,,,,,,,,,,,,,,,,,,,,,,,,,,472.030065,None,475.0159725,None,space,89.610957,475.0159725,None,472.030065,None,1.63,566.2906638,None,None,1,566.2906638,None,,P041,FENCOG,2,Pre,2022_May_09_1128,N-Back (New Version 2021),2021.1.4,120.6460354
,,,,Conditions/Version_1/zeroback(1)_v1.xlsx,Rule: Press 'space' when you see the letter 'x' or 'X'.,T,None,,,,,,,,,0,0,0,0,0,1,1,1,,,,,,,,,,,,,,,,,,,,,,,,,,,,,,,,,,,,,,,,,,,,,,,,,,,,,,,,,,,,,,,,,,,,,1.351,569.6535749,None,None,1,569.6535749,None,,P041,FENCOG,2,Pre,2022_May_09_1128,N-Back (New Version 2021),2021.1.4,120.6460354
,,,,Conditions/Version_1/zeroback(1)_v1.xlsx,Rule: Press 'space' when you see the letter 'x' or 'X'.,L,None,,,,,,,,,0,0,0,0,0,2,2,2,,,,,,,,,,,,,,,,,,,,,,,,,,,,,,,,,,,,,,,,,,,,,,,,,,,,,,,,,,,,,,,,,,,,,1.6734,573.3355907,None,None,1,573.3355907,None,,P041,FENCOG,2,Pre,2022_May_09_1128,N-Back (New Version 2021),2021.1.4,120.6460354
,,,,Conditions/Version_1/zeroback(1)_v1.xlsx,Rule: Press 'space' when you see the letter 'x' or 'X'.,x,space,,,,,,,,,0,0,0,0,0,3,3,3,,,,,,,,,,,,,,,,,,,,,,,,,,,,,,,,,,,,,,,,,,,,,,,,,,,,,,,,,,,,,,,,,,,,,1.4068,576.7586149,None,space,1,576.7586149,None,1.3802989,P041,FENCOG,2,Pre,2022_May_09_1128,N-Back (New Version 2021),2021.1.4,120.6460354
,,,,Conditions/Version_1/zeroback(1)_v1.xlsx,Rule: Press 'space' when you see the letter 'x' or 'X'.,o,None,,,,,,,,,0,0,0,0,0,4,4,4,,,,,,,,,,,,,,,,,,,,,,,,,,,,,,,,,,,,,,,,,,,,,,,,,,,,,,,,,,,,,,,,,,,,,1.6672,580.4323933,None,None,1,580.4323933,None,,P041,FENCOG,2,Pre,2022_May_09_1128,N-Back (New Version 2021),2021.1.4,120.6460354
,,,,Conditions/Version_1/zeroback(1)_v1.xlsx,Rule: Press 'space' when you see the letter 'x' or 'X'.,P,None,,,,,,,,,0,0,0,0,0,5,5,5,,,,,,,,,,,,,,,,,,,,,,,,,,,,,,,,,,,,,,,,,,,,,,,,,,,,,,,,,,,,,,,,,,,,,1.041,583.4735122,None,None,1,583.4735122,None,,P041,FENCOG,2,Pre,2022_May_09_1128,N-Back (New Version 2021),2021.1.4,120.6460354
,,,,Conditions/Version_1/zeroback(1)_v1.xlsx,Rule: Press 'space' when you see the letter 'x' or 'X'.,X,space,,,,,,,,,0,0,0,0,0,6,6,6,,,,,,,,,,,,,,,,,,,,,,,,,,,,,,,,,,,,,,,,,,,,,,,,,,,,,,,,,,,,,,,,,,,,,1.2828,586.7604898,None,space,1,586.7604898,None,0.3380827,P041,FENCOG,2,Pre,2022_May_09_1128,N-Back (New Version 2021),2021.1.4,120.6460354
,,,,Conditions/Version_1/zeroback(1)_v1.xlsx,Rule: Press 'space' when you see the letter 'x' or 'X'.,n,None,,,,,,,,,0,0,0,0,0,7,7,7,,,,,,,,,,,,,,,,,,,,,,,,,,,,,,,,,,,,,,,,,,,,,,,,,,,,,,,,,,,,,,,,,,,,,1.6424,590.4148788,None,None,1,590.4148788,None,,P041,FENCOG,2,Pre,2022_May_09_1128,N-Back (New Version 2021),2021.1.4,120.6460354
,,,,Conditions/Version_1/zeroback(1)_v1.xlsx,Rule: Press 'space' when you see the letter 'x' or 'X'.,M,None,,,,,,,,,0,0,0,0,0,8,8,8,,,,,,,,,,,,,,,,,,,,,,,,,,,,,,,,,,,,,,,,,,,,,,,,,,,,,,,,,,,,,,,,,,,,,1.9772,594.4059206,None,None,1,594.4059206,None,,P041,FENCOG,2,Pre,2022_May_09_1128,N-Back (New Version 2021),2021.1.4,120.6460354
,,,,Conditions/Version_1/zeroback(1)_v1.xlsx,Rule: Press 'space' when you see the letter 'x' or 'X'.,a,None,,,,,,,,,0,0,0,0,0,9,9,9,,,,,,,,,,,,,,,,,,,,,,,,,,,,,,,,,,,,,,,,,,,,,,,,,,,,,,,,,,,,,,,,,,,,,1.7602,598.1849378,None,None,1,598.1849378,None,,P041,FENCOG,2,Pre,2022_May_09_1128,N-Back (New Version 2021),2021.1.4,120.6460354
,,,,Conditions/Version_1/zeroback(1)_v1.xlsx,Rule: Press 'space' when you see the letter 'x' or 'X'.,,,,,,,,,,,0,0,0,0,,,,,,,,,,,,,,,,,,,,,,,,,,,,,,,,,,,,,,,,,,,,,,,,,,,,,,,,,,,,,,,,,,,,,,,,,,,,,,,,,P041,FENCOG,2,Pre,2022_May_09_1128,N-Back (New Version 2021),2021.1.4,120.6460354
,,,,Conditions/Version_1/oneback(1)_v1.xlsx,New rule: Press 'space' when you see 1-back (i.e. the same letter as the one that appeared 1 letter ago.),b,None,,,,,,,,,0,1,1,1,0,0,0,0,,,,,,,,,,,,,,,,,,,,,,,,,,,,,,,,,,,,,,,,,,,,,,,,,,,,,,,,,,,600.2071791,None,603.19411,None,space,3.3446209,603.19411,None,600.2071791,None,1.2208,607.791148,None,None,1,607.791148,None,,P041,FENCOG,2,Pre,2022_May_09_1128,N-Back (New Version 2021),2021.1.4,120.6460354
,,,,Conditions/Version_1/oneback(1)_v1.xlsx,New rule: Press 'space' when you see 1-back (i.e. the same letter as the one that appeared 1 letter ago.),p,None,,,,,,,,,0,1,1,1,0,1,1,1,,,,,,,,,,,,,,,,,,,,,,,,,,,,,,,,,,,,,,,,,,,,,,,,,,,,,,,,,,,,,,,,,,,,,1.7292,611.5233255,None,None,1,611.5233255,None,,P041,FENCOG,2,Pre,2022_May_09_1128,N-Back (New Version 2021),2021.1.4,120.6460354
,,,,Conditions/Version_1/oneback(1)_v1.xlsx,New rule: Press 'space' when you see 1-back (i.e. the same letter as the one that appeared 1 letter ago.),M,None,,,,,,,,,0,1,1,1,0,2,2,2,,,,,,,,,,,,,,,,,,,,,,,,,,,,,,,,,,,,,,,,,,,,,,,,,,,,,,,,,,,,,,,,,,,,,1.1278,614.657671,None,None,1,614.657671,None,,P041,FENCOG,2,Pre,2022_May_09_1128,N-Back (New Version 2021),2021.1.4,120.6460354
,,,,Conditions/Version_1/oneback(1)_v1.xlsx,New rule: Press 'space' when you see 1-back (i.e. the same letter as the one that appeared 1 letter ago.),M,space,,,,,,,,,0,1,1,1,0,3,3,3,,,,,,,,,,,,,,,,,,,,,,,,,,,,,,,,,,,,,,,,,,,,,,,,,,,,,,,,,,,,,,,,,,,,,1.1154,617.7807338,None,space,1,617.7807338,None,0.3421782,P041,FENCOG,2,Pre,2022_May_09_1128,N-Back (New Version 2021),2021.1.4,120.6460354
,,,,Conditions/Version_1/oneback(1)_v1.xlsx,New rule: Press 'space' when you see 1-back (i.e. the same letter as the one that appeared 1 letter ago.),n,None,,,,,,,,,0,1,1,1,0,4,4,4,,,,,,,,,,,,,,,,,,,,,,,,,,,,,,,,,,,,,,,,,,,,,,,,,,,,,,,,,,,,,,,,,,,,,1.5618,621.3601828,None,None,1,621.3601828,None,,P041,FENCOG,2,Pre,2022_May_09_1128,N-Back (New Version 2021),2021.1.4,120.6460354
,,,,Conditions/Version_1/oneback(1)_v1.xlsx,New rule: Press 'space' when you see 1-back (i.e. the same letter as the one that appeared 1 letter ago.),g,None,,,,,,,,,0,1,1,1,0,5,5,5,,,,,,,,,,,,,,,,,,,,,,,,,,,,,,,,,,,,,,,,,,,,,,,,,,,,,,,,,,,,,,,,,,,,,1.4812,624.8523784,None,None,1,624.8523784,None,,P041,FENCOG,2,Pre,2022_May_09_1128,N-Back (New Version 2021),2021.1.4,120.6460354
,,,,Conditions/Version_1/oneback(1)_v1.xlsx,New rule: Press 'space' when you see 1-back (i.e. the same letter as the one that appeared 1 letter ago.),P,None,,,,,,,,,0,1,1,1,0,6,6,6,,,,,,,,,,,,,,,,,,,,,,,,,,,,,,,,,,,,,,,,,,,,,,,,,,,,,,,,,,,,,,,,,,,,,1.9152,628.7682633,None,None,1,628.7682633,None,,P041,FENCOG,2,Pre,2022_May_09_1128,N-Back (New Version 2021),2021.1.4,120.6460354
,,,,Conditions/Version_1/oneback(1)_v1.xlsx,New rule: Press 'space' when you see 1-back (i.e. the same letter as the one that appeared 1 letter ago.),o,None,,,,,,,,,0,1,1,1,0,7,7,7,,,,,,,,,,,,,,,,,,,,,,,,,,,,,,,,,,,,,,,,,,,,,,,,,,,,,,,,,,,,,,,,,,,,,1.7106,632.4841047,None,None,1,632.4841047,None,,P041,FENCOG,2,Pre,2022_May_09_1128,N-Back (New Version 2021),2021.1.4,120.6460354
,,,,Conditions/Version_1/oneback(1)_v1.xlsx,New rule: Press 'space' when you see 1-back (i.e. the same letter as the one that appeared 1 letter ago.),f,None,,,,,,,,,0,1,1,1,0,8,8,8,,,,,,,,,,,,,,,,,,,,,,,,,,,,,,,,,,,,,,,,,,,,,,,,,,,,,,,,,,,,,,,,,,,,,1.4626,635.9521652,None,None,1,635.9521652,None,,P041,FENCOG,2,Pre,2022_May_09_1128,N-Back (New Version 2021),2021.1.4,120.6460354
,,,,Conditions/Version_1/oneback(1)_v1.xlsx,New rule: Press 'space' when you see 1-back (i.e. the same letter as the one that appeared 1 letter ago.),F,space,,,,,,,,,0,1,1,1,0,9,9,9,,,,,,,,,,,,,,,,,,,,,,,,,,,,,,,,,,,,,,,,,,,,,,,,,,,,,,,,,,,,,,,,,,,,,1.63,639.5934465,None,space,1,639.5934465,None,0.3135922,P041,FENCOG,2,Pre,2022_May_09_1128,N-Back (New Version 2021),2021.1.4,120.6460354
,,,,Conditions/Version_1/oneback(1)_v1.xlsx,New rule: Press 'space' when you see 1-back (i.e. the same letter as the one that appeared 1 letter ago.),,,,,,,,,,,0,1,1,1,,,,,,,,,,,,,,,,,,,,,,,,,,,,,,,,,,,,,,,,,,,,,,,,,,,,,,,,,,,,,,,,,,,,,,,,,,,,,,,,,P041,FENCOG,2,Pre,2022_May_09_1128,N-Back (New Version 2021),2021.1.4,120.6460354
,,,,Conditions/Version_1/twoback(1)_v1.xlsx,New rule: Press 'space' when you see 2-back (i.e. the same letter as the one that appeared 2 letters ago.),b,None,,,,,,,,,0,2,2,2,0,0,0,0,,,,,,,,,,,,,,,,,,,,,,,,,,,,,,,,,,,,,,,,,,,,,,,,,,,,,,,,,,,641.6234333,None,644.6068952,None,space,1.7238482,644.6068952,None,641.6234333,None,1.8904,648.2547681,None,None,1,648.2547681,None,,P041,FENCOG,2,Pre,2022_May_09_1128,N-Back (New Version 2021),2021.1.4,120.6460354
,,,,Conditions/Version_1/twoback(1)_v1.xlsx,New rule: Press 'space' when you see 2-back (i.e. the same letter as the one that appeared 2 letters ago.),h,None,,,,,,,,,0,2,2,2,0,1,1,1,,,,,,,,,,,,,,,,,,,,,,,,,,,,,,,,,,,,,,,,,,,,,,,,,,,,,,,,,,,,,,,,,,,,,1.0348,651.2964979,None,None,1,651.2964979,None,,P041,FENCOG,2,Pre,2022_May_09_1128,N-Back (New Version 2021),2021.1.4,120.6460354
,,,,Conditions/Version_1/twoback(1)_v1.xlsx,New rule: Press 'space' when you see 2-back (i.e. the same letter as the one that appeared 2 letters ago.),j,None,,,,,,,,,0,2,2,2,0,2,2,2,,,,,,,,,,,,,,,,,,,,,,,,,,,,,,,,,,,,,,,,,,,,,,,,,,,,,,,,,,,,,,,,,,,,,1.0224,654.3328859,None,None,1,654.3328859,None,,P041,FENCOG,2,Pre,2022_May_09_1128,N-Back (New Version 2021),2021.1.4,120.6460354
,,,,Conditions/Version_1/twoback(1)_v1.xlsx,New rule: Press 'space' when you see 2-back (i.e. the same letter as the one that appeared 2 letters ago.),H,space,,,,,,,,,0,2,2,2,0,3,3,3,,,,,,,,,,,,,,,,,,,,,,,,,,,,,,,,,,,,,,,,,,,,,,,,,,,,,,,,,,,,,,,,,,,,,1.6858,658.0278197,None,space,1,658.0278197,None,1.5430576,P041,FENCOG,2,Pre,2022_May_09_1128,N-Back (New Version 2021),2021.1.4,120.6460354
,,,,Conditions/Version_1/twoback(1)_v1.xlsx,New rule: Press 'space' when you see 2-back (i.e. the same letter as the one that appeared 2 letters ago.),p,None,,,,,,,,,0,2,2,2,0,4,4,4,,,,,,,,,,,,,,,,,,,,,,,,,,,,,,,,,,,,,,,,,,,,,,,,,,,,,,,,,,,,,,,,,,,,,1.8966,661.9335223,None,None,1,661.9335223,None,,P041,FENCOG,2,Pre,2022_May_09_1128,N-Back (New Version 2021),2021.1.4,120.6460354
,,,,Conditions/Version_1/twoback(1)_v1.xlsx,New rule: Press 'space' when you see 2-back (i.e. the same letter as the one that appeared 2 letters ago.),p,None,,,,,,,,,0,2,2,2,0,5,5,5,,,,,,,,,,,,,,,,,,,,,,,,,,,,,,,,,,,,,,,,,,,,,,,,,,,,,,,,,,,,,,,,,,,,,1.0162,664.9494713,None,None,1,664.9494713,None,,P041,FENCOG,2,Pre,2022_May_09_1128,N-Back (New Version 2021),2021.1.4,120.6460354
,,,,Conditions/Version_1/twoback(1)_v1.xlsx,New rule: Press 'space' when you see 2-back (i.e. the same letter as the one that appeared 2 letters ago.),w,None,,,,,,,,,0,2,2,2,0,6,6,6,,,,,,,,,,,,,,,,,,,,,,,,,,,,,,,,,,,,,,,,,,,,,,,,,,,,,,,,,,,,,,,,,,,,,1.9338,668.891507,None,None,1,668.891507,None,,P041,FENCOG,2,Pre,2022_May_09_1128,N-Back (New Version 2021),2021.1.4,120.6460354
,,,,Conditions/Version_1/twoback(1)_v1.xlsx,New rule: Press 'space' when you see 2-back (i.e. the same letter as the one that appeared 2 letters ago.),R,None,,,,,,,,,0,2,2,2,0,7,7,7,,,,,,,,,,,,,,,,,,,,,,,,,,,,,,,,,,,,,,,,,,,,,,,,,,,,,,,,,,,,,,,,,,,,,1.0782,671.9804821,None,None,1,671.9804821,None,,P041,FENCOG,2,Pre,2022_May_09_1128,N-Back (New Version 2021),2021.1.4,120.6460354
,,,,Conditions/Version_1/twoback(1)_v1.xlsx,New rule: Press 'space' when you see 2-back (i.e. the same letter as the one that appeared 2 letters ago.),a,None,,,,,,,,,0,2,2,2,0,8,8,8,,,,,,,,,,,,,,,,,,,,,,,,,,,,,,,,,,,,,,,,,,,,,,,,,,,,,,,,,,,,,,,,,,,,,1.4998,675.4889633,None,None,1,675.4889633,None,,P041,FENCOG,2,Pre,2022_May_09_1128,N-Back (New Version 2021),2021.1.4,120.6460354
,,,,Conditions/Version_1/twoback(1)_v1.xlsx,New rule: Press 'space' when you see 2-back (i.e. the same letter as the one that appeared 2 letters ago.),r,space,,,,,,,,,0,2,2,2,0,9,9,9,,,,,,,,,,,,,,,,,,,,,,,,,,,,,,,,,,,,,,,,,,,,,,,,,,,,,,,,,,,,,,,,,,,,,1.4564,678.9546397,None,space,1,678.9546397,None,0.3119678,P041,FENCOG,2,Pre,2022_May_09_1128,N-Back (New Version 2021),2021.1.4,120.6460354
,,,,Conditions/Version_1/twoback(1)_v1.xlsx,New rule: Press 'space' when you see 2-back (i.e. the same letter as the one that appeared 2 letters ago.),,,,,,,,,,,0,2,2,2,,,,,,,,,,,,,,,,,,,,,,,,,,,,,,,,,,,,,,,,,,,,,,,,,,,,,,,,,,,,,,,,,,,,,,,,,,,,,,,,,P041,FENCOG,2,Pre,2022_May_09_1128,N-Back (New Version 2021),2021.1.4,120.6460354
,,,,Conditions/Version_1/threeback(1)_v1.xlsx,New rule: Press 'space' when you see 3-back (i.e. the same letter as the one that appeared 3 letters ago.),r,None,,,,,,,,,0,3,3,3,0,0,0,0,,,,,,,,,,,,,,,,,,,,,,,,,,,,,,,,,,,,,,,,,,,,,,,,,,,,,,,,,,,680.9830299,None,683.9708736,None,space,5.6717229,683.9708736,None,680.9830299,None,1.7664,691.4517914,None,None,1,691.4517914,None,,P041,FENCOG,2,Pre,2022_May_09_1128,N-Back (New Version 2021),2021.1.4,120.6460354
,,,,Conditions/Version_1/threeback(1)_v1.xlsx,New rule: Press 'space' when you see 3-back (i.e. the same letter as the one that appeared 3 letters ago.),o,None,,,,,,,,,0,3,3,3,0,1,1,1,,,,,,,,,,,,,,,,,,,,,,,,,,,,,,,,,,,,,,,,,,,,,,,,,,,,,,,,,,,,,,,,,,,,,1.4998,694.9571456,None,None,1,694.9571456,None,,P041,FENCOG,2,Pre,2022_May_09_1128,N-Back (New Version 2021),2021.1.4,120.6460354
,,,,Conditions/Version_1/threeback(1)_v1.xlsx,New rule: Press 'space' when you see 3-back (i.e. the same letter as the one that appeared 3 letters ago.),P,None,,,,,,,,,0,3,3,3,0,2,2,2,,,,,,,,,,,,,,,,,,,,,,,,,,,,,,,,,,,,,,,,,,,,,,,,,,,,,,,,,,,,,,,,,,,,,1.5556,698.5183937,None,None,1,698.5183937,None,,P041,FENCOG,2,Pre,2022_May_09_1128,N-Back (New Version 2021),2021.1.4,120.6460354
,,,,Conditions/Version_1/threeback(1)_v1.xlsx,New rule: Press 'space' when you see 3-back (i.e. the same letter as the one that appeared 3 letters ago.),R,space,,,,,,,,,0,3,3,3,0,3,3,3,,,,,,,,,,,,,,,,,,,,,,,,,,,,,,,,,,,,,,,,,,,,,,,,,,,,,,,,,,,,,,,,,,,,,1.6362,702.1644093,None,space,1,702.1644093,None,0.3983386,P041,FENCOG,2,Pre,2022_May_09_1128,N-Back (New Version 2021),2021.1.4,120.6460354
,,,,Conditions/Version_1/threeback(1)_v1.xlsx,New rule: Press 'space' when you see 3-back (i.e. the same letter as the one that appeared 3 letters ago.),p,None,,,,,,,,,0,3,3,3,0,4,4,4,,,,,,,,,,,,,,,,,,,,,,,,,,,,,,,,,,,,,,,,,,,,,,,,,,,,,,,,,,,,,,,,,,,,,1.32,705.5023812,None,None,1,705.5023812,None,,P041,FENCOG,2,Pre,2022_May_09_1128,N-Back (New Version 2021),2021.1.4,120.6460354
,,,,Conditions/Version_1/threeback(1)_v1.xlsx,New rule: Press 'space' when you see 3-back (i.e. the same letter as the one that appeared 3 letters ago.),E,None,,,,,,,,,0,3,3,3,0,5,5,5,,,,,,,,,,,,,,,,,,,,,,,,,,,,,,,,,,,,,,,,,,,,,,,,,,,,,,,,,,,,,,,,,,,,,1.4626,708.9697949,None,None,1,708.9697949,None,,P041,FENCOG,2,Pre,2022_May_09_1128,N-Back (New Version 2021),2021.1.4,120.6460354
,,,,Conditions/Version_1/threeback(1)_v1.xlsx,New rule: Press 'space' when you see 3-back (i.e. the same letter as the one that appeared 3 letters ago.),e,None,,,,,,,,,0,3,3,3,0,6,6,6,,,,,,,,,,,,,,,,,,,,,,,,,,,,,,,,,,,,,,,,,,,,,,,,,,,,,,,,,,,,,,,,,,,,,1.5308,712.5073261,None,None,1,712.5073261,None,,P041,FENCOG,2,Pre,2022_May_09_1128,N-Back (New Version 2021),2021.1.4,120.6460354
,,,,Conditions/Version_1/threeback(1)_v1.xlsx,New rule: Press 'space' when you see 3-back (i.e. the same letter as the one that appeared 3 letters ago.),m,None,,,,,,,,,0,3,3,3,0,7,7,7,,,,,,,,,,,,,,,,,,,,,,,,,,,,,,,,,,,,,,,,,,,,,,,,,,,,,,,,,,,,,,,,,,,,,1.7044,716.2194858,None,None,1,716.2194858,None,,P041,FENCOG,2,Pre,2022_May_09_1128,N-Back (New Version 2021),2021.1.4,120.6460354
,,,,Conditions/Version_1/threeback(1)_v1.xlsx,New rule: Press 'space' when you see 3-back (i.e. the same letter as the one that appeared 3 letters ago.),n,None,,,,,,,,,0,3,3,3,0,8,8,8,,,,,,,,,,,,,,,,,,,,,,,,,,,,,,,,,,,,,,,,,,,,,,,,,,,,,,,,,,,,,,,,,,,,,1.2828,719.5081792,None,None,1,719.5081792,None,,P041,FENCOG,2,Pre,2022_May_09_1128,N-Back (New Version 2021),2021.1.4,120.6460354
,,,,Conditions/Version_1/threeback(1)_v1.xlsx,New rule: Press 'space' when you see 3-back (i.e. the same letter as the one that appeared 3 letters ago.),e,space,,,,,,,,,0,3,3,3,0,9,9,9,,,,,,,,,,,,,,,,,,,,,,,,,,,,,,,,,,,,,,,,,,,,,,,,,,,,,,,,,,,,,,,,,,,,,1.227,722.7407554,None,space,1,722.7407554,None,0.6138723,P041,FENCOG,2,Pre,2022_May_09_1128,N-Back (New Version 2021),2021.1.4,120.6460354
,,,,Conditions/Version_1/threeback(1)_v1.xlsx,New rule: Press 'space' when you see 3-back (i.e. the same letter as the one that appeared 3 letters ago.),,,,,,,,,,,0,3,3,3,,,,,,,,,,,,,,,,,,,,,,,,,,,,,,,,,,,,,,,,,,,,,,,,,,,,,,,,,,,,,,,,,,,,,,,,,,,,,,,,,P041,FENCOG,2,Pre,2022_May_09_1128,N-Back (New Version 2021),2021.1.4,120.6460354
,,,,Conditions/Version_1/oneback(2)_v1.xlsx,New rule: Press 'space' when you see 1-back (i.e. the same letter as the one that appeared 1 letter ago.),q,None,,,,,,,,,0,4,4,4,0,0,0,0,,,,,,,,,,,,,,,,,,,,,,,,,,,,,,,,,,,,,,,,,,,,,,,,,,,,,,,,,,,724.7747649,None,727.7580011,None,space,4.6524863,727.7580011,None,724.7747649,None,1.5246,733.9622375,None,None,1,733.9622375,None,,P041,FENCOG,2,Pre,2022_May_09_1128,N-Back (New Version 2021),2021.1.4,120.6460354
,,,,Conditions/Version_1/oneback(2)_v1.xlsx,New rule: Press 'space' when you see 1-back (i.e. the same letter as the one that appeared 1 letter ago.),Q,space,,,,,,,,,0,4,4,4,0,1,1,1,,,,,,,,,,,,,,,,,,,,,,,,,,,,,,,,,,,,,,,,,,,,,,,,,,,,,,,,,,,,,,,,,,,,,1.568,737.5361639,None,space,1,737.5361639,None,0.2825163,P041,FENCOG,2,Pre,2022_May_09_1128,N-Back (New Version 2021),2021.1.4,120.6460354
,,,,Conditions/Version_1/oneback(2)_v1.xlsx,New rule: Press 'space' when you see 1-back (i.e. the same letter as the one that appeared 1 letter ago.),P,None,,,,,,,,,0,4,4,4,0,2,2,2,,,,,,,,,,,,,,,,,,,,,,,,,,,,,,,,,,,,,,,,,,,,,,,,,,,,,,,,,,,,,,,,,,,,,1.3882,740.9268309,None,None,1,740.9268309,None,,P041,FENCOG,2,Pre,2022_May_09_1128,N-Back (New Version 2021),2021.1.4,120.6460354
,,,,Conditions/Version_1/oneback(2)_v1.xlsx,New rule: Press 'space' when you see 1-back (i.e. the same letter as the one that appeared 1 letter ago.),o,None,,,,,,,,,0,4,4,4,0,3,3,3,,,,,,,,,,,,,,,,,,,,,,,,,,,,,,,,,,,,,,,,,,,,,,,,,,,,,,,,,,,,,,,,,,,,,1.9772,744.9089493,None,None,1,744.9089493,None,,P041,FENCOG,2,Pre,2022_May_09_1128,N-Back (New Version 2021),2021.1.4,120.6460354
,,,,Conditions/Version_1/oneback(2)_v1.xlsx,New rule: Press 'space' when you see 1-back (i.e. the same letter as the one that appeared 1 letter ago.),m,None,,,,,,,,,0,4,4,4,0,4,4,4,,,,,,,,,,,,,,,,,,,,,,,,,,,,,,,,,,,,,,,,,,,,,,,,,,,,,,,,,,,,,,,,,,,,,1.258,748.1683222,None,None,1,748.1683222,None,,P041,FENCOG,2,Pre,2022_May_09_1128,N-Back (New Version 2021),2021.1.4,120.6460354
,,,,Conditions/Version_1/oneback(2)_v1.xlsx,New rule: Press 'space' when you see 1-back (i.e. the same letter as the one that appeared 1 letter ago.),Z,None,,,,,,,,,0,4,4,4,0,5,5,5,,,,,,,,,,,,,,,,,,,,,,,,,,,,,,,,,,,,,,,,,,,,,,,,,,,,,,,,,,,,,,,,,,,,,1.2952,751.4808639,None,None,1,751.4808639,None,,P041,FENCOG,2,Pre,2022_May_09_1128,N-Back (New Version 2021),2021.1.4,120.6460354
,,,,Conditions/Version_1/oneback(2)_v1.xlsx,New rule: Press 'space' when you see 1-back (i.e. the same letter as the one that appeared 1 letter ago.),c,None,,,,,,,,,0,4,4,4,0,6,6,6,,,,,,,,,,,,,,,,,,,,,,,,,,,,,,,,,,,,,,,,,,,,,,,,,,,,,,,,,,,,,,,,,,,,,1.3944,754.8829495,None,None,1,754.8829495,None,,P041,FENCOG,2,Pre,2022_May_09_1128,N-Back (New Version 2021),2021.1.4,120.6460354
,,,,Conditions/Version_1/oneback(2)_v1.xlsx,New rule: Press 'space' when you see 1-back (i.e. the same letter as the one that appeared 1 letter ago.),c,space,,,,,,,,,0,4,4,4,0,7,7,7,,,,,,,,,,,,,,,,,,,,,,,,,,,,,,,,,,,,,,,,,,,,,,,,,,,,,,,,,,,,,,,,,,,,,1.6858,758.5801704,None,space,1,758.5801704,None,0.32666,P041,FENCOG,2,Pre,2022_May_09_1128,N-Back (New Version 2021),2021.1.4,120.6460354
,,,,Conditions/Version_1/oneback(2)_v1.xlsx,New rule: Press 'space' when you see 1-back (i.e. the same letter as the one that appeared 1 letter ago.),P,None,,,,,,,,,0,4,4,4,0,8,8,8,,,,,,,,,,,,,,,,,,,,,,,,,,,,,,,,,,,,,,,,,,,,,,,,,,,,,,,,,,,,,,,,,,,,,1.6424,762.2288453,None,None,1,762.2288453,None,,P041,FENCOG,2,Pre,2022_May_09_1128,N-Back (New Version 2021),2021.1.4,120.6460354
,,,,Conditions/Version_1/oneback(2)_v1.xlsx,New rule: Press 'space' when you see 1-back (i.e. the same letter as the one that appeared 1 letter ago.),p,space,,,,,,,,,0,4,4,4,0,9,9,9,,,,,,,,,,,,,,,,,,,,,,,,,,,,,,,,,,,,,,,,,,,,,,,,,,,,,,,,,,,,,,,,,,,,,1.5122,765.7446217,None,space,1,765.7446217,None,0.3539428,P041,FENCOG,2,Pre,2022_May_09_1128,N-Back (New Version 2021),2021.1.4,120.6460354
,,,,Conditions/Version_1/oneback(2)_v1.xlsx,New rule: Press 'space' when you see 1-back (i.e. the same letter as the one that appeared 1 letter ago.),,,,,,,,,,,0,4,4,4,,,,,,,,,,,,,,,,,,,,,,,,,,,,,,,,,,,,,,,,,,,,,,,,,,,,,,,,,,,,,,,,,,,,,,,,,,,,,,,,,P041,FENCOG,2,Pre,2022_May_09_1128,N-Back (New Version 2021),2021.1.4,120.6460354
,,,,Conditions/Version_1/zeroback(2)_v1.xlsx,New rule: Press 'space' when you see the letter 'x' or 'X'.,p,None,,,,,,,,,0,5,5,5,0,0,0,0,,,,,,,,,,,,,,,,,,,,,,,,,,,,,,,,,,,,,,,,,,,,,,,,,,,,,,,,,,,767.7646334,None,770.7456696,None,space,2.0330013,770.7456696,None,767.7646334,None,1.2704,774.0755571,None,None,1,774.0755571,None,,P041,FENCOG,2,Pre,2022_May_09_1128,N-Back (New Version 2021),2021.1.4,120.6460354
,,,,Conditions/Version_1/zeroback(2)_v1.xlsx,New rule: Press 'space' when you see the letter 'x' or 'X'.,L,None,,,,,,,,,0,5,5,5,0,1,1,1,,,,,,,,,,,,,,,,,,,,,,,,,,,,,,,,,,,,,,,,,,,,,,,,,,,,,,,,,,,,,,,,,,,,,1.7788,777.8651143,None,None,1,777.8651143,None,,P041,FENCOG,2,Pre,2022_May_09_1128,N-Back (New Version 2021),2021.1.4,120.6460354
,,,,Conditions/Version_1/zeroback(2)_v1.xlsx,New rule: Press 'space' when you see the letter 'x' or 'X'.,G,None,,,,,,,,,0,5,5,5,0,2,2,2,,,,,,,,,,,,,,,,,,,,,,,,,,,,,,,,,,,,,,,,,,,,,,,,,,,,,,,,,,,,,,,,,,,,,1.0968,780.9689522,None,None,1,780.9689522,None,,P041,FENCOG,2,Pre,2022_May_09_1128,N-Back (New Version 2021),2021.1.4,120.6460354
,,,,Conditions/Version_1/zeroback(2)_v1.xlsx,New rule: Press 'space' when you see the letter 'x' or 'X'.,y,None,,,,,,,,,0,5,5,5,0,3,3,3,,,,,,,,,,,,,,,,,,,,,,,,,,,,,,,,,,,,,,,,,,,,,,,,,,,,,,,,,,,,,,,,,,,,,1.1836,784.1569082,None,None,1,784.1569082,None,,P041,FENCOG,2,Pre,2022_May_09_1128,N-Back (New Version 2021),2021.1.4,120.6460354
,,,,Conditions/Version_1/zeroback(2)_v1.xlsx,New rule: Press 'space' when you see the letter 'x' or 'X'.,Y,None,,,,,,,,,0,5,5,5,0,4,4,4,,,,,,,,,,,,,,,,,,,,,,,,,,,,,,,,,,,,,,,,,,,,,,,,,,,,,,,,,,,,,,,,,,,,,1.3696,787.5380731,None,None,1,787.5380731,None,,P041,FENCOG,2,Pre,2022_May_09_1128,N-Back (New Version 2021),2021.1.4,120.6460354
,,,,Conditions/Version_1/zeroback(2)_v1.xlsx,New rule: Press 'space' when you see the letter 'x' or 'X'.,W,None,,,,,,,,,0,5,5,5,0,5,5,5,,,,,,,,,,,,,,,,,,,,,,,,,,,,,,,,,,,,,,,,,,,,,,,,,,,,,,,,,,,,,,,,,,,,,1.5184,791.0672324,None,None,1,791.0672324,None,,P041,FENCOG,2,Pre,2022_May_09_1128,N-Back (New Version 2021),2021.1.4,120.6460354
,,,,Conditions/Version_1/zeroback(2)_v1.xlsx,New rule: Press 'space' when you see the letter 'x' or 'X'.,x,space,,,,,,,,,0,5,5,5,0,6,6,6,,,,,,,,,,,,,,,,,,,,,,,,,,,,,,,,,,,,,,,,,,,,,,,,,,,,,,,,,,,,,,,,,,,,,1.9338,795.0046625,None,space,1,795.0046625,None,0.3018543,P041,FENCOG,2,Pre,2022_May_09_1128,N-Back (New Version 2021),2021.1.4,120.6460354
,,,,Conditions/Version_1/zeroback(2)_v1.xlsx,New rule: Press 'space' when you see the letter 'x' or 'X'.,X,space,,,,,,,,,0,5,5,5,0,7,7,7,,,,,,,,,,,,,,,,,,,,,,,,,,,,,,,,,,,,,,,,,,,,,,,,,,,,,,,,,,,,,,,,,,,,,1.9958,799.0096884,None,space,1,799.0096884,None,0.4897804,P041,FENCOG,2,Pre,2022_May_09_1128,N-Back (New Version 2021),2021.1.4,120.6460354
,,,,Conditions/Version_1/zeroback(2)_v1.xlsx,New rule: Press 'space' when you see the letter 'x' or 'X'.,p,None,,,,,,,,,0,5,5,5,0,8,8,8,,,,,,,,,,,,,,,,,,,,,,,,,,,,,,,,,,,,,,,,,,,,,,,,,,,,,,,,,,,,,,,,,,,,,1.32,802.3339043,None,None,1,802.3339043,None,,P041,FENCOG,2,Pre,2022_May_09_1128,N-Back (New Version 2021),2021.1.4,120.6460354
,,,,Conditions/Version_1/zeroback(2)_v1.xlsx,New rule: Press 'space' when you see the letter 'x' or 'X'.,h,None,,,,,,,,,0,5,5,5,0,9,9,9,,,,,,,,,,,,,,,,,,,,,,,,,,,,,,,,,,,,,,,,,,,,,,,,,,,,,,,,,,,,,,,,,,,,,1.4192,805.7587339,None,None,1,805.7587339,None,,P041,FENCOG,2,Pre,2022_May_09_1128,N-Back (New Version 2021),2021.1.4,120.6460354
,,,,Conditions/Version_1/zeroback(2)_v1.xlsx,New rule: Press 'space' when you see the letter 'x' or 'X'.,,,,,,,,,,,0,5,5,5,,,,,,,,,,,,,,,,,,,,,,,,,,,,,,,,,,,,,,,,,,,,,,,,,,,,,,,,,,,,,,,,,,,,,,,,,,,,,,,,,P041,FENCOG,2,Pre,2022_May_09_1128,N-Back (New Version 2021),2021.1.4,120.6460354
,,,,Conditions/Version_1/threeback(2)_v1.xlsx,New rule: Press 'space' when you see 3-back (i.e. the same letter as the one that appeared 3 letters ago.),q,None,,,,,,,,,0,6,6,6,0,0,0,0,,,,,,,,,,,,,,,,,,,,,,,,,,,,,,,,,,,,,,,,,,,,,,,,,,,,,,,,,,,807.7872479,None,810.7751625,None,space,40.315365,810.7751625,None,807.7872479,None,1.1402,852.2607086,None,None,1,852.2607086,None,,P041,FENCOG,2,Pre,2022_May_09_1128,N-Back (New Version 2021),2021.1.4,120.6460354
,,,,Conditions/Version_1/threeback(2)_v1.xlsx,New rule: Press 'space' when you see 3-back (i.e. the same letter as the one that appeared 3 letters ago.),Y,None,,,,,,,,,0,6,6,6,0,1,1,1,,,,,,,,,,,,,,,,,,,,,,,,,,,,,,,,,,,,,,,,,,,,,,,,,,,,,,,,,,,,,,,,,,,,,1.2704,855.5348793,None,None,1,855.5348793,None,,P041,FENCOG,2,Pre,2022_May_09_1128,N-Back (New Version 2021),2021.1.4,120.6460354
,,,,Conditions/Version_1/threeback(2)_v1.xlsx,New rule: Press 'space' when you see 3-back (i.e. the same letter as the one that appeared 3 letters ago.),p,None,,,,,,,,,0,6,6,6,0,2,2,2,,,,,,,,,,,,,,,,,,,,,,,,,,,,,,,,,,,,,,,,,,,,,,,,,,,,,,,,,,,,,,,,,,,,,1.6486,859.1837935,None,None,1,859.1837935,None,,P041,FENCOG,2,Pre,2022_May_09_1128,N-Back (New Version 2021),2021.1.4,120.6460354
,,,,Conditions/Version_1/threeback(2)_v1.xlsx,New rule: Press 'space' when you see 3-back (i.e. the same letter as the one that appeared 3 letters ago.),p,None,,,,,,,,,0,6,6,6,0,3,3,3,,,,,,,,,,,,,,,,,,,,,,,,,,,,,,,,,,,,,,,,,,,,,,,,,,,,,,,,,,,,,,,,,,,,,1.5494,862.7328782,None,None,1,862.7328782,None,,P041,FENCOG,2,Pre,2022_May_09_1128,N-Back (New Version 2021),2021.1.4,120.6460354
,,,,Conditions/Version_1/threeback(2)_v1.xlsx,New rule: Press 'space' when you see 3-back (i.e. the same letter as the one that appeared 3 letters ago.),y,space,,,,,,,,,0,6,6,6,0,4,4,4,,,,,,,,,,,,,,,,,,,,,,,,,,,,,,,,,,,,,,,,,,,,,,,,,,,,,,,,,,,,,,,,,,,,,1.1216,865.8620784,None,space,1,865.8620784,None,0.7726772,P041,FENCOG,2,Pre,2022_May_09_1128,N-Back (New Version 2021),2021.1.4,120.6460354
,,,,Conditions/Version_1/threeback(2)_v1.xlsx,New rule: Press 'space' when you see 3-back (i.e. the same letter as the one that appeared 3 letters ago.),u,None,,,,,,,,,0,6,6,6,0,5,5,5,,,,,,,,,,,,,,,,,,,,,,,,,,,,,,,,,,,,,,,,,,,,,,,,,,,,,,,,,,,,,,,,,,,,,1.3448,869.2200332,None,None,1,869.2200332,None,,P041,FENCOG,2,Pre,2022_May_09_1128,N-Back (New Version 2021),2021.1.4,120.6460354
,,,,Conditions/Version_1/threeback(2)_v1.xlsx,New rule: Press 'space' when you see 3-back (i.e. the same letter as the one that appeared 3 letters ago.),P,space,,,,,,,,,0,6,6,6,0,6,6,6,,,,,,,,,,,,,,,,,,,,,,,,,,,,,,,,,,,,,,,,,,,,,,,,,,,,,,,,,,,,,,,,,,,,,1.1712,872.3970582,None,space,1,872.3970582,None,0.3414802,P041,FENCOG,2,Pre,2022_May_09_1128,N-Back (New Version 2021),2021.1.4,120.6460354
,,,,Conditions/Version_1/threeback(2)_v1.xlsx,New rule: Press 'space' when you see 3-back (i.e. the same letter as the one that appeared 3 letters ago.),a,None,,,,,,,,,0,6,6,6,0,7,7,7,,,,,,,,,,,,,,,,,,,,,,,,,,,,,,,,,,,,,,,,,,,,,,,,,,,,,,,,,,,,,,,,,,,,,1.258,875.6620167,None,None,1,875.6620167,None,,P041,FENCOG,2,Pre,2022_May_09_1128,N-Back (New Version 2021),2021.1.4,120.6460354
,,,,Conditions/Version_1/threeback(2)_v1.xlsx,New rule: Press 'space' when you see 3-back (i.e. the same letter as the one that appeared 3 letters ago.),U,space,,,,,,,,,0,6,6,6,0,8,8,8,,,,,,,,,,,,,,,,,,,,,,,,,,,,,,,,,,,,,,,,,,,,,,,,,,,,,,,,,,,,,,,,,,,,,1.7664,879.4303666,None,space,1,879.4303666,None,0.6681161,P041,FENCOG,2,Pre,2022_May_09_1128,N-Back (New Version 2021),2021.1.4,120.6460354
,,,,Conditions/Version_1/threeback(2)_v1.xlsx,New rule: Press 'space' when you see 3-back (i.e. the same letter as the one that appeared 3 letters ago.),q,None,,,,,,,,,0,6,6,6,0,9,9,9,,,,,,,,,,,,,,,,,,,,,,,,,,,,,,,,,,,,,,,,,,,,,,,,,,,,,,,,,,,,,,,,,,,,,1.0968,882.5352429,None,None,1,882.5352429,None,,P041,FENCOG,2,Pre,2022_May_09_1128,N-Back (New Version 2021),2021.1.4,120.6460354
,,,,Conditions/Version_1/threeback(2)_v1.xlsx,New rule: Press 'space' when you see 3-back (i.e. the same letter as the one that appeared 3 letters ago.),,,,,,,,,,,0,6,6,6,,,,,,,,,,,,,,,,,,,,,,,,,,,,,,,,,,,,,,,,,,,,,,,,,,,,,,,,,,,,,,,,,,,,,,,,,,,,,,,,,P041,FENCOG,2,Pre,2022_May_09_1128,N-Back (New Version 2021),2021.1.4,120.6460354
,,,,Conditions/Version_1/twoback(2)_v1.xlsx,New rule: Press 'space' when you see 2-back (i.e. the same letter as the one that appeared 2 letters ago.),q,None,,,,,,,,,0,7,7,7,0,0,0,0,,,,,,,,,,,,,,,,,,,,,,,,,,,,,,,,,,,,,,,,,,,,,,,,,,,,,,,,,,,884.5660154,None,887.5546523,None,space,2.1042683,887.5546523,None,884.5660154,None,1.2766,890.9744076,None,None,1,890.9744076,None,,P041,FENCOG,2,Pre,2022_May_09_1128,N-Back (New Version 2021),2021.1.4,120.6460354
,,,,Conditions/Version_1/twoback(2)_v1.xlsx,New rule: Press 'space' when you see 2-back (i.e. the same letter as the one that appeared 2 letters ago.),r,None,,,,,,,,,0,7,7,7,0,1,1,1,,,,,,,,,,,,,,,,,,,,,,,,,,,,,,,,,,,,,,,,,,,,,,,,,,,,,,,,,,,,,,,,,,,,,1.5184,894.4991534,None,None,1,894.4991534,None,,P041,FENCOG,2,Pre,2022_May_09_1128,N-Back (New Version 2021),2021.1.4,120.6460354
,,,,Conditions/Version_1/twoback(2)_v1.xlsx,New rule: Press 'space' when you see 2-back (i.e. the same letter as the one that appeared 2 letters ago.),q,space,,,,,,,,,0,7,7,7,0,2,2,2,,,,,,,,,,,,,,,,,,,,,,,,,,,,,,,,,,,,,,,,,,,,,,,,,,,,,,,,,,,,,,,,,,,,,1.8346,898.3497991,None,space,1,898.3497991,None,0.9967984,P041,FENCOG,2,Pre,2022_May_09_1128,N-Back (New Version 2021),2021.1.4,120.6460354
,,,,Conditions/Version_1/twoback(2)_v1.xlsx,New rule: Press 'space' when you see 2-back (i.e. the same letter as the one that appeared 2 letters ago.),P,None,,,,,,,,,0,7,7,7,0,3,3,3,,,,,,,,,,,,,,,,,,,,,,,,,,,,,,,,,,,,,,,,,,,,,,,,,,,,,,,,,,,,,,,,,,,,,1.9586,902.3125231,None,None,1,902.3125231,None,,P041,FENCOG,2,Pre,2022_May_09_1128,N-Back (New Version 2021),2021.1.4,120.6460354
,,,,Conditions/Version_1/twoback(2)_v1.xlsx,New rule: Press 'space' when you see 2-back (i.e. the same letter as the one that appeared 2 letters ago.),p,None,,,,,,,,,0,7,7,7,0,4,4,4,,,,,,,,,,,,,,,,,,,,,,,,,,,,,,,,,,,,,,,,,,,,,,,,,,,,,,,,,,,,,,,,,,,,,1.0162,905.3285471,None,None,1,905.3285471,None,,P041,FENCOG,2,Pre,2022_May_09_1128,N-Back (New Version 2021),2021.1.4,120.6460354
,,,,Conditions/Version_1/twoback(2)_v1.xlsx,New rule: Press 'space' when you see 2-back (i.e. the same letter as the one that appeared 2 letters ago.),H,None,,,,,,,,,0,7,7,7,0,5,5,5,,,,,,,,,,,,,,,,,,,,,,,,,,,,,,,,,,,,,,,,,,,,,,,,,,,,,,,,,,,,,,,,,,,,,1.6548,908.9881944,None,None,1,908.9881944,None,,P041,FENCOG,2,Pre,2022_May_09_1128,N-Back (New Version 2021),2021.1.4,120.6460354
,,,,Conditions/Version_1/twoback(2)_v1.xlsx,New rule: Press 'space' when you see 2-back (i.e. the same letter as the one that appeared 2 letters ago.),g,None,,,,,,,,,0,7,7,7,0,6,6,6,,,,,,,,,,,,,,,,,,,,,,,,,,,,,,,,,,,,,,,,,,,,,,,,,,,,,,,,,,,,,,,,,,,,,1.754,912.748184,None,None,1,912.748184,None,,P041,FENCOG,2,Pre,2022_May_09_1128,N-Back (New Version 2021),2021.1.4,120.6460354
,,,,Conditions/Version_1/twoback(2)_v1.xlsx,New rule: Press 'space' when you see 2-back (i.e. the same letter as the one that appeared 2 letters ago.),j,None,,,,,,,,,0,7,7,7,0,7,7,7,,,,,,,,,,,,,,,,,,,,,,,,,,,,,,,,,,,,,,,,,,,,,,,,,,,,,,,,,,,,,,,,,,,,,1.8408,916.5972026,None,None,1,916.5972026,None,,P041,FENCOG,2,Pre,2022_May_09_1128,N-Back (New Version 2021),2021.1.4,120.6460354
,,,,Conditions/Version_1/twoback(2)_v1.xlsx,New rule: Press 'space' when you see 2-back (i.e. the same letter as the one that appeared 2 letters ago.),g,space,,,,,,,,,0,7,7,7,0,8,8,8,,,,,,,,,,,,,,,,,,,,,,,,,,,,,,,,,,,,,,,,,,,,,,,,,,,,,,,,,,,,,,,,,,,,,1.816,920.4154613,None,space,1,920.4154613,None,0.5151769,P041,FENCOG,2,Pre,2022_May_09_1128,N-Back (New Version 2021),2021.1.4,120.6460354
,,,,Conditions/Version_1/twoback(2)_v1.xlsx,New rule: Press 'space' when you see 2-back (i.e. the same letter as the one that appeared 2 letters ago.),G,None,,,,,,,,,0,7,7,7,0,9,9,9,,,,,,,,,,,,,,,,,,,,,,,,,,,,,,,,,,,,,,,,,,,,,,,,,,,,,,,,,,,,,,,,,,,,,1.2952,923.7145875,None,None,1,923.7145875,None,,P041,FENCOG,2,Pre,2022_May_09_1128,N-Back (New Version 2021),2021.1.4,120.6460354
,,,,Conditions/Version_1/twoback(2)_v1.xlsx,New rule: Press 'space' when you see 2-back (i.e. the same letter as the one that appeared 2 letters ago.),,,,,,,,,,,0,7,7,7,,,,,,,,,,,,,,,,,,,,,,,,,,,,,,,,,,,,,,,,,,,,,,,,,,,,,,,,,,,,,,,,,,,,,,,,,,,,,,,,,P041,FENCOG,2,Pre,2022_May_09_1128,N-Back (New Version 2021),2021.1.4,120.6460354
,,,,Conditions/Version_1/threeback(3)_v1.xlsx,New rule: Press 'space' when you see 3-back (i.e. the same letter as the one that appeared 3 letters ago.),w,None,,,,,,,,,0,8,8,8,0,0,0,0,,,,,,,,,,,,,,,,,,,,,,,,,,,,,,,,,,,,,,,,,,,,,,,,,,,,,,,,,,,925.7374268,None,928.7236441,None,space,264.798604,928.7236441,None,925.7374268,None,1.2208,1194.776188,None,None,1,1194.776188,None,,P041,FENCOG,2,Pre,2022_May_09_1128,N-Back (New Version 2021),2021.1.4,120.6460354
,,,,Conditions/Version_1/threeback(3)_v1.xlsx,New rule: Press 'space' when you see 3-back (i.e. the same letter as the one that appeared 3 letters ago.),p,None,,,,,,,,,0,8,8,8,0,1,1,1,,,,,,,,,,,,,,,,,,,,,,,,,,,,,,,,,,,,,,,,,,,,,,,,,,,,,,,,,,,,,,,,,,,,,1.723,1198.501994,None,None,1,1198.501994,None,,P041,FENCOG,2,Pre,2022_May_09_1128,N-Back (New Version 2021),2021.1.4,120.6460354
,,,,Conditions/Version_1/threeback(3)_v1.xlsx,New rule: Press 'space' when you see 3-back (i.e. the same letter as the one that appeared 3 letters ago.),P,None,,,,,,,,,0,8,8,8,0,2,2,2,,,,,,,,,,,,,,,,,,,,,,,,,,,,,,,,,,,,,,,,,,,,,,,,,,,,,,,,,,,,,,,,,,,,,1.2766,1201.782581,None,None,1,1201.782581,None,,P041,FENCOG,2,Pre,2022_May_09_1128,N-Back (New Version 2021),2021.1.4,120.6460354
,,,,Conditions/Version_1/threeback(3)_v1.xlsx,New rule: Press 'space' when you see 3-back (i.e. the same letter as the one that appeared 3 letters ago.),i,None,,,,,,,,,0,8,8,8,0,3,3,3,,,,,,,,,,,,,,,,,,,,,,,,,,,,,,,,,,,,,,,,,,,,,,,,,,,,,,,,,,,,,,,,,,,,,1.4564,1205.242298,None,None,1,1205.242298,None,,P041,FENCOG,2,Pre,2022_May_09_1128,N-Back (New Version 2021),2021.1.4,120.6460354
,,,,Conditions/Version_1/threeback(3)_v1.xlsx,New rule: Press 'space' when you see 3-back (i.e. the same letter as the one that appeared 3 letters ago.),f,None,,,,,,,,,0,8,8,8,0,4,4,4,,,,,,,,,,,,,,,,,,,,,,,,,,,,,,,,,,,,,,,,,,,,,,,,,,,,,,,,,,,,,,,,,,,,,1.3262,1208.572429,None,None,1,1208.572429,None,,P041,FENCOG,2,Pre,2022_May_09_1128,N-Back (New Version 2021),2021.1.4,120.6460354
,,,,Conditions/Version_1/threeback(3)_v1.xlsx,New rule: Press 'space' when you see 3-back (i.e. the same letter as the one that appeared 3 letters ago.),o,None,,,,,,,,,0,8,8,8,0,5,5,5,,,,,,,,,,,,,,,,,,,,,,,,,,,,,,,,,,,,,,,,,,,,,,,,,,,,,,,,,,,,,,,,,,,,,1.32,1211.896081,None,None,1,1211.896081,None,,P041,FENCOG,2,Pre,2022_May_09_1128,N-Back (New Version 2021),2021.1.4,120.6460354
,,,,Conditions/Version_1/threeback(3)_v1.xlsx,New rule: Press 'space' when you see 3-back (i.e. the same letter as the one that appeared 3 letters ago.),w,None,,,,,,,,,0,8,8,8,0,6,6,6,,,,,,,,,,,,,,,,,,,,,,,,,,,,,,,,,,,,,,,,,,,,,,,,,,,,,,,,,,,,,,,,,,,,,1.4812,1215.380799,None,None,1,1215.380799,None,,P041,FENCOG,2,Pre,2022_May_09_1128,N-Back (New Version 2021),2021.1.4,120.6460354
,,,,Conditions/Version_1/threeback(3)_v1.xlsx,New rule: Press 'space' when you see 3-back (i.e. the same letter as the one that appeared 3 letters ago.),F,space,,,,,,,,,0,8,8,8,0,7,7,7,,,,,,,,,,,,,,,,,,,,,,,,,,,,,,,,,,,,,,,,,,,,,,,,,,,,,,,,,,,,,,,,,,,,,1.4254,1218.810748,None,space,1,1218.810748,None,0.5756185,P041,FENCOG,2,Pre,2022_May_09_1128,N-Back (New Version 2021),2021.1.4,120.6460354
,,,,Conditions/Version_1/threeback(3)_v1.xlsx,New rule: Press 'space' when you see 3-back (i.e. the same letter as the one that appeared 3 letters ago.),p,None,,,,,,,,,0,8,8,8,0,8,8,8,,,,,,,,,,,,,,,,,,,,,,,,,,,,,,,,,,,,,,,,,,,,,,,,,,,,,,,,,,,,,,,,,,,,,1.1278,1221.94592,None,None,1,1221.94592,None,,P041,FENCOG,2,Pre,2022_May_09_1128,N-Back (New Version 2021),2021.1.4,120.6460354
,,,,Conditions/Version_1/threeback(3)_v1.xlsx,New rule: Press 'space' when you see 3-back (i.e. the same letter as the one that appeared 3 letters ago.),W,space,,,,,,,,,0,8,8,8,0,9,9,9,,,,,,,,,,,,,,,,,,,,,,,,,,,,,,,,,,,,,,,,,,,,,,,,,,,,,,,,,,,,,,,,,,,,,1.5308,1225.488059,None,space,1,1225.488059,None,0.5304336,P041,FENCOG,2,Pre,2022_May_09_1128,N-Back (New Version 2021),2021.1.4,120.6460354
,,,,Conditions/Version_1/threeback(3)_v1.xlsx,New rule: Press 'space' when you see 3-back (i.e. the same letter as the one that appeared 3 letters ago.),,,,,,,,,,,0,8,8,8,,,,,,,,,,,,,,,,,,,,,,,,,,,,,,,,,,,,,,,,,,,,,,,,,,,,,,,,,,,,,,,,,,,,,,,,,,,,,,,,,P041,FENCOG,2,Pre,2022_May_09_1128,N-Back (New Version 2021),2021.1.4,120.6460354
,,,,Conditions/Version_1/zeroback(3)_v1.xlsx,New rule: Press 'space' when you see the letter 'x' or 'X'.,X,space,,,,,,,,,0,9,9,9,0,0,0,0,,,,,,,,,,,,,,,,,,,,,,,,,,,,,,,,,,,,,,,,,,,,,,,,,,,,,,,,,,,1227.510865,None,1230.504768,None,space,0.7454886,1230.504768,None,1227.510865,None,1.4626,1232.740006,None,space,1,1232.740006,None,0.4384513,P041,FENCOG,2,Pre,2022_May_09_1128,N-Back (New Version 2021),2021.1.4,120.6460354
,,,,Conditions/Version_1/zeroback(3)_v1.xlsx,New rule: Press 'space' when you see the letter 'x' or 'X'.,B,None,,,,,,,,,0,9,9,9,0,1,1,1,,,,,,,,,,,,,,,,,,,,,,,,,,,,,,,,,,,,,,,,,,,,,,,,,,,,,,,,,,,,,,,,,,,,,1.3758,1236.124065,None,None,1,1236.124065,None,,P041,FENCOG,2,Pre,2022_May_09_1128,N-Back (New Version 2021),2021.1.4,120.6460354
,,,,Conditions/Version_1/zeroback(3)_v1.xlsx,New rule: Press 'space' when you see the letter 'x' or 'X'.,m,None,,,,,,,,,0,9,9,9,0,2,2,2,,,,,,,,,,,,,,,,,,,,,,,,,,,,,,,,,,,,,,,,,,,,,,,,,,,,,,,,,,,,,,,,,,,,,1.2084,1239.338093,None,None,1,1239.338093,None,,P041,FENCOG,2,Pre,2022_May_09_1128,N-Back (New Version 2021),2021.1.4,120.6460354
,,,,Conditions/Version_1/zeroback(3)_v1.xlsx,New rule: Press 'space' when you see the letter 'x' or 'X'.,m,None,,,,,,,,,0,9,9,9,0,3,3,3,,,,,,,,,,,,,,,,,,,,,,,,,,,,,,,,,,,,,,,,,,,,,,,,,,,,,,,,,,,,,,,,,,,,,1.6548,1242.996814,None,None,1,1242.996814,None,,P041,FENCOG,2,Pre,2022_May_09_1128,N-Back (New Version 2021),2021.1.4,120.6460354
,,,,Conditions/Version_1/zeroback(3)_v1.xlsx,New rule: Press 'space' when you see the letter 'x' or 'X'.,o,None,,,,,,,,,0,9,9,9,0,4,4,4,,,,,,,,,,,,,,,,,,,,,,,,,,,,,,,,,,,,,,,,,,,,,,,,,,,,,,,,,,,,,,,,,,,,,1.2952,1246.302574,None,None,1,1246.302574,None,,P041,FENCOG,2,Pre,2022_May_09_1128,N-Back (New Version 2021),2021.1.4,120.6460354
,,,,Conditions/Version_1/zeroback(3)_v1.xlsx,New rule: Press 'space' when you see the letter 'x' or 'X'.,p,None,,,,,,,,,0,9,9,9,0,5,5,5,,,,,,,,,,,,,,,,,,,,,,,,,,,,,,,,,,,,,,,,,,,,,,,,,,,,,,,,,,,,,,,,,,,,,1.3944,1249.706924,None,None,1,1249.706924,None,,P041,FENCOG,2,Pre,2022_May_09_1128,N-Back (New Version 2021),2021.1.4,120.6460354
,,,,Conditions/Version_1/zeroback(3)_v1.xlsx,New rule: Press 'space' when you see the letter 'x' or 'X'.,G,None,,,,,,,,,0,9,9,9,0,6,6,6,,,,,,,,,,,,,,,,,,,,,,,,,,,,,,,,,,,,,,,,,,,,,,,,,,,,,,,,,,,,,,,,,,,,,1.4378,1253.15057,None,None,1,1253.15057,None,,P041,FENCOG,2,Pre,2022_May_09_1128,N-Back (New Version 2021),2021.1.4,120.6460354
,,,,Conditions/Version_1/zeroback(3)_v1.xlsx,New rule: Press 'space' when you see the letter 'x' or 'X'.,X,space,,,,,,,,,0,9,9,9,0,7,7,7,,,,,,,,,,,,,,,,,,,,,,,,,,,,,,,,,,,,,,,,,,,,,,,,,,,,,,,,,,,,,,,,,,,,,1.94,1257.097473,None,space,1,1257.097473,None,0.4008756,P041,FENCOG,2,Pre,2022_May_09_1128,N-Back (New Version 2021),2021.1.4,120.6460354
,,,,Conditions/Version_1/zeroback(3)_v1.xlsx,New rule: Press 'space' when you see the letter 'x' or 'X'.,p,None,,,,,,,,,0,9,9,9,0,8,8,8,,,,,,,,,,,,,,,,,,,,,,,,,,,,,,,,,,,,,,,,,,,,,,,,,,,,,,,,,,,,,,,,,,,,,1.0782,1260.184044,None,None,1,1260.184044,None,,P041,FENCOG,2,Pre,2022_May_09_1128,N-Back (New Version 2021),2021.1.4,120.6460354
,,,,Conditions/Version_1/zeroback(3)_v1.xlsx,New rule: Press 'space' when you see the letter 'x' or 'X'.,x,space,,,,,,,,,0,9,9,9,0,9,9,9,,,,,,,,,,,,,,,,,,,,,,,,,,,,,,,,,,,,,,,,,,,,,,,,,,,,,,,,,,,,,,,,,,,,,1.5184,1263.714354,None,space,1,1263.714354,None,0.6240262,P041,FENCOG,2,Pre,2022_May_09_1128,N-Back (New Version 2021),2021.1.4,120.6460354
,,,,Conditions/Version_1/zeroback(3)_v1.xlsx,New rule: Press 'space' when you see the letter 'x' or 'X'.,,,,,,,,,,,0,9,9,9,,,,,,,,,,,,,,,,,,,,,,,,,,,,,,,,,,,,,,,,,,,,,,,,,,,,,,,,,,,,,,,,,,,,,,,,,,,,,,,,,P041,FENCOG,2,Pre,2022_May_09_1128,N-Back (New Version 2021),2021.1.4,120.6460354
,,,,Conditions/Version_1/twoback(3)_v1.xlsx,New rule: Press 'space' when you see 2-back (i.e. the same letter as the one that appeared 2 letters ago.),e,None,,,,,,,,,0,10,10,10,0,0,0,0,,,,,,,,,,,,,,,,,,,,,,,,,,,,,,,,,,,,,,,,,,,,,,,,,,,,,,,,,,,1265.734111,None,1268.737509,None,space,1.5447794,1268.737509,None,1265.734111,None,1.0844,1271.403909,None,None,1,1271.403909,None,,P041,FENCOG,2,Pre,2022_May_09_1128,N-Back (New Version 2021),2021.1.4,120.6460354
,,,,Conditions/Version_1/twoback(3)_v1.xlsx,New rule: Press 'space' when you see 2-back (i.e. the same letter as the one that appeared 2 letters ago.),o,None,,,,,,,,,0,10,10,10,0,1,1,1,,,,,,,,,,,,,,,,,,,,,,,,,,,,,,,,,,,,,,,,,,,,,,,,,,,,,,,,,,,,,,,,,,,,,1.2146,1274.627459,None,None,1,1274.627459,None,,P041,FENCOG,2,Pre,2022_May_09_1128,N-Back (New Version 2021),2021.1.4,120.6460354
,,,,Conditions/Version_1/twoback(3)_v1.xlsx,New rule: Press 'space' when you see 2-back (i.e. the same letter as the one that appeared 2 letters ago.),P,None,,,,,,,,,0,10,10,10,0,2,2,2,,,,,,,,,,,,,,,,,,,,,,,,,,,,,,,,,,,,,,,,,,,,,,,,,,,,,,,,,,,,,,,,,,,,,1.506,1278.141154,None,None,1,1278.141154,None,,P041,FENCOG,2,Pre,2022_May_09_1128,N-Back (New Version 2021),2021.1.4,120.6460354
,,,,Conditions/Version_1/twoback(3)_v1.xlsx,New rule: Press 'space' when you see 2-back (i.e. the same letter as the one that appeared 2 letters ago.),z,None,,,,,,,,,0,10,10,10,0,3,3,3,,,,,,,,,,,,,,,,,,,,,,,,,,,,,,,,,,,,,,,,,,,,,,,,,,,,,,,,,,,,,,,,,,,,,1.568,1281.721478,None,None,1,1281.721478,None,,P041,FENCOG,2,Pre,2022_May_09_1128,N-Back (New Version 2021),2021.1.4,120.6460354
,,,,Conditions/Version_1/twoback(3)_v1.xlsx,New rule: Press 'space' when you see 2-back (i.e. the same letter as the one that appeared 2 letters ago.),X,None,,,,,,,,,0,10,10,10,0,4,4,4,,,,,,,,,,,,,,,,,,,,,,,,,,,,,,,,,,,,,,,,,,,,,,,,,,,,,,,,,,,,,,,,,,,,,1.537,1285.266186,None,None,1,1285.266186,None,,P041,FENCOG,2,Pre,2022_May_09_1128,N-Back (New Version 2021),2021.1.4,120.6460354
,,,,Conditions/Version_1/twoback(3)_v1.xlsx,New rule: Press 'space' when you see 2-back (i.e. the same letter as the one that appeared 2 letters ago.),z,space,,,,,,,,,0,10,10,10,0,5,5,5,,,,,,,,,,,,,,,,,,,,,,,,,,,,,,,,,,,,,,,,,,,,,,,,,,,,,,,,,,,,,,,,,,,,,1.4688,1288.742628,None,space,1,1288.742628,None,0.4998516,P041,FENCOG,2,Pre,2022_May_09_1128,N-Back (New Version 2021),2021.1.4,120.6460354
,,,,Conditions/Version_1/twoback(3)_v1.xlsx,New rule: Press 'space' when you see 2-back (i.e. the same letter as the one that appeared 2 letters ago.),x,space,,,,,,,,,0,10,10,10,0,6,6,6,,,,,,,,,,,,,,,,,,,,,,,,,,,,,,,,,,,,,,,,,,,,,,,,,,,,,,,,,,,,,,,,,,,,,1.8656,1292.621064,None,space,1,1292.621064,None,0.5092062,P041,FENCOG,2,Pre,2022_May_09_1128,N-Back (New Version 2021),2021.1.4,120.6460354
,,,,Conditions/Version_1/twoback(3)_v1.xlsx,New rule: Press 'space' when you see 2-back (i.e. the same letter as the one that appeared 2 letters ago.),c,None,,,,,,,,,0,10,10,10,0,7,7,7,,,,,,,,,,,,,,,,,,,,,,,,,,,,,,,,,,,,,,,,,,,,,,,,,,,,,,,,,,,,,,,,,,,,,1.5432,1296.171365,None,None,1,1296.171365,None,,P041,FENCOG,2,Pre,2022_May_09_1128,N-Back (New Version 2021),2021.1.4,120.6460354
,,,,Conditions/Version_1/twoback(3)_v1.xlsx,New rule: Press 'space' when you see 2-back (i.e. the same letter as the one that appeared 2 letters ago.),i,None,,,,,,,,,0,10,10,10,0,8,8,8,,,,,,,,,,,,,,,,,,,,,,,,,,,,,,,,,,,,,,,,,,,,,,,,,,,,,,,,,,,,,,,,,,,,,1.1836,1299.353644,None,None,1,1299.353644,None,,P041,FENCOG,2,Pre,2022_May_09_1128,N-Back (New Version 2021),2021.1.4,120.6460354
,,,,Conditions/Version_1/twoback(3)_v1.xlsx,New rule: Press 'space' when you see 2-back (i.e. the same letter as the one that appeared 2 letters ago.),C,space,,,,,,,,,0,10,10,10,0,9,9,9,,,,,,,,,,,,,,,,,,,,,,,,,,,,,,,,,,,,,,,,,,,,,,,,,,,,,,,,,,,,,,,,,,,,,1.7044,1303.06285,None,space,1,1303.06285,None,0.4915895,P041,FENCOG,2,Pre,2022_May_09_1128,N-Back (New Version 2021),2021.1.4,120.6460354
,,,,Conditions/Version_1/twoback(3)_v1.xlsx,New rule: Press 'space' when you see 2-back (i.e. the same letter as the one that appeared 2 letters ago.),,,,,,,,,,,0,10,10,10,,,,,,,,,,,,,,,,,,,,,,,,,,,,,,,,,,,,,,,,,,,,,,,,,,,,,,,,,,,,,,,,,,,,,,,,,,,,,,,,,P041,FENCOG,2,Pre,2022_May_09_1128,N-Back (New Version 2021),2021.1.4,120.6460354
,,,,Conditions/Version_1/oneback(3)_v1.xlsx,New rule: Press 'space' when you see 1-back (i.e. the same letter as the one that appeared 1 letter ago.),o,None,,,,,,,,,0,11,11,11,0,0,0,0,,,,,,,,,,,,,,,,,,,,,,,,,,,,,,,,,,,,,,,,,,,,,,,,,,,,,,,,,,,1305.090801,None,1308.077688,None,space,2.1325163,1308.077688,None,1305.090801,None,1.8966,1312.135998,None,None,1,1312.135998,None,,P041,FENCOG,2,Pre,2022_May_09_1128,N-Back (New Version 2021),2021.1.4,120.6460354
,,,,Conditions/Version_1/oneback(3)_v1.xlsx,New rule: Press 'space' when you see 1-back (i.e. the same letter as the one that appeared 1 letter ago.),O,space,,,,,,,,,0,11,11,11,0,1,1,1,,,,,,,,,,,,,,,,,,,,,,,,,,,,,,,,,,,,,,,,,,,,,,,,,,,,,,,,,,,,,,,,,,,,,1.7168,1315.857944,None,space,1,1315.857944,None,0.5844145,P041,FENCOG,2,Pre,2022_May_09_1128,N-Back (New Version 2021),2021.1.4,120.6460354
,,,,Conditions/Version_1/oneback(3)_v1.xlsx,New rule: Press 'space' when you see 1-back (i.e. the same letter as the one that appeared 1 letter ago.),h,None,,,,,,,,,0,11,11,11,0,2,2,2,,,,,,,,,,,,,,,,,,,,,,,,,,,,,,,,,,,,,,,,,,,,,,,,,,,,,,,,,,,,,,,,,,,,,1.8904,1319.747724,None,None,1,1319.747724,None,,P041,FENCOG,2,Pre,2022_May_09_1128,N-Back (New Version 2021),2021.1.4,120.6460354
,,,,Conditions/Version_1/oneback(3)_v1.xlsx,New rule: Press 'space' when you see 1-back (i.e. the same letter as the one that appeared 1 letter ago.),g,None,,,,,,,,,0,11,11,11,0,3,3,3,,,,,,,,,,,,,,,,,,,,,,,,,,,,,,,,,,,,,,,,,,,,,,,,,,,,,,,,,,,,,,,,,,,,,1.2394,1322.988368,None,None,1,1322.988368,None,,P041,FENCOG,2,Pre,2022_May_09_1128,N-Back (New Version 2021),2021.1.4,120.6460354
,,,,Conditions/Version_1/oneback(3)_v1.xlsx,New rule: Press 'space' when you see 1-back (i.e. the same letter as the one that appeared 1 letter ago.),n,None,,,,,,,,,0,11,11,11,0,4,4,4,,,,,,,,,,,,,,,,,,,,,,,,,,,,,,,,,,,,,,,,,,,,,,,,,,,,,,,,,,,,,,,,,,,,,1.3262,1326.322033,None,None,1,1326.322033,None,,P041,FENCOG,2,Pre,2022_May_09_1128,N-Back (New Version 2021),2021.1.4,120.6460354
,,,,Conditions/Version_1/oneback(3)_v1.xlsx,New rule: Press 'space' when you see 1-back (i.e. the same letter as the one that appeared 1 letter ago.),z,None,,,,,,,,,0,11,11,11,0,5,5,5,,,,,,,,,,,,,,,,,,,,,,,,,,,,,,,,,,,,,,,,,,,,,,,,,,,,,,,,,,,,,,,,,,,,,1.4936,1329.828001,None,None,1,1329.828001,None,,P041,FENCOG,2,Pre,2022_May_09_1128,N-Back (New Version 2021),2021.1.4,120.6460354
,,,,Conditions/Version_1/oneback(3)_v1.xlsx,New rule: Press 'space' when you see 1-back (i.e. the same letter as the one that appeared 1 letter ago.),X,None,,,,,,,,,0,11,11,11,0,6,6,6,,,,,,,,,,,,,,,,,,,,,,,,,,,,,,,,,,,,,,,,,,,,,,,,,,,,,,,,,,,,,,,,,,,,,1.6114,1333.454231,None,None,1,1333.454231,None,,P041,FENCOG,2,Pre,2022_May_09_1128,N-Back (New Version 2021),2021.1.4,120.6460354
,,,,Conditions/Version_1/oneback(3)_v1.xlsx,New rule: Press 'space' when you see 1-back (i.e. the same letter as the one that appeared 1 letter ago.),r,None,,,,,,,,,0,11,11,11,0,7,7,7,,,,,,,,,,,,,,,,,,,,,,,,,,,,,,,,,,,,,,,,,,,,,,,,,,,,,,,,,,,,,,,,,,,,,1.7974,1337.259125,None,None,1,1337.259125,None,,P041,FENCOG,2,Pre,2022_May_09_1128,N-Back (New Version 2021),2021.1.4,120.6460354
,,,,Conditions/Version_1/oneback(3)_v1.xlsx,New rule: Press 'space' when you see 1-back (i.e. the same letter as the one that appeared 1 letter ago.),r,space,,,,,,,,,0,11,11,11,0,8,8,8,,,,,,,,,,,,,,,,,,,,,,,,,,,,,,,,,,,,,,,,,,,,,,,,,,,,,,,,,,,,,,,,,,,,,1.6424,1340.908006,None,space,1,1340.908006,None,0.5104633,P041,FENCOG,2,Pre,2022_May_09_1128,N-Back (New Version 2021),2021.1.4,120.6460354
,,,,Conditions/Version_1/oneback(3)_v1.xlsx,New rule: Press 'space' when you see 1-back (i.e. the same letter as the one that appeared 1 letter ago.),P,None,,,,,,,,,0,11,11,11,0,9,9,9,,,,,,,,,,,,,,,,,,,,,,,,,,,,,,,,,,,,,,,,,,,,,,,,,,,,,,,,,,,,,,,,,,,,,1.9586,1344.86643,None,None,1,1344.86643,None,,P041,FENCOG,2,Pre,2022_May_09_1128,N-Back (New Version 2021),2021.1.4,120.6460354
,,,,Conditions/Version_1/oneback(3)_v1.xlsx,New rule: Press 'space' when you see 1-back (i.e. the same letter as the one that appeared 1 letter ago.),,,,,,,,,,,0,11,11,11,,,,,,,,,,,,,,,,,,,,,,,,,,,,,,,,,,,,,,,,,,,,,,,,,,,,,,,,,,,,,,,,,,,,,,,,,,,,,,,,,P041,FENCOG,2,Pre,2022_May_09_1128,N-Back (New Version 2021),2021.1.4,120.6460354
,,,,Conditions/Version_1/twoback(4)_v1.xlsx,New rule: Press 'space' when you see 2-back (i.e. the same letter as the one that appeared 2 letters ago.),r,None,,,,,,,,,0,12,12,12,0,0,0,0,,,,,,,,,,,,,,,,,,,,,,,,,,,,,,,,,,,,,,,,,,,,,,,,,,,,,,,,,,,1346.893106,None,1349.882817,None,space,4.2793969,1349.882817,None,1346.893106,None,1.041,1355.270388,None,None,1,1355.270388,None,,P041,FENCOG,2,Pre,2022_May_09_1128,N-Back (New Version 2021),2021.1.4,120.6460354
,,,,Conditions/Version_1/twoback(4)_v1.xlsx,New rule: Press 'space' when you see 2-back (i.e. the same letter as the one that appeared 2 letters ago.),T,None,,,,,,,,,0,12,12,12,0,1,1,1,,,,,,,,,,,,,,,,,,,,,,,,,,,,,,,,,,,,,,,,,,,,,,,,,,,,,,,,,,,,,,,,,,,,,1.1278,1358.406339,None,None,1,1358.406339,None,,P041,FENCOG,2,Pre,2022_May_09_1128,N-Back (New Version 2021),2021.1.4,120.6460354
,,,,Conditions/Version_1/twoback(4)_v1.xlsx,New rule: Press 'space' when you see 2-back (i.e. the same letter as the one that appeared 2 letters ago.),o,None,,,,,,,,,0,12,12,12,0,2,2,2,,,,,,,,,,,,,,,,,,,,,,,,,,,,,,,,,,,,,,,,,,,,,,,,,,,,,,,,,,,,,,,,,,,,,1.0534,1361.471356,None,None,1,1361.471356,None,,P041,FENCOG,2,Pre,2022_May_09_1128,N-Back (New Version 2021),2021.1.4,120.6460354
,,,,Conditions/Version_1/twoback(4)_v1.xlsx,New rule: Press 'space' when you see 2-back (i.e. the same letter as the one that appeared 2 letters ago.),p,None,,,,,,,,,0,12,12,12,0,3,3,3,,,,,,,,,,,,,,,,,,,,,,,,,,,,,,,,,,,,,,,,,,,,,,,,,,,,,,,,,,,,,,,,,,,,,1.8408,1365.319374,None,None,1,1365.319374,None,,P041,FENCOG,2,Pre,2022_May_09_1128,N-Back (New Version 2021),2021.1.4,120.6460354
,,,,Conditions/Version_1/twoback(4)_v1.xlsx,New rule: Press 'space' when you see 2-back (i.e. the same letter as the one that appeared 2 letters ago.),p,None,,,,,,,,,0,12,12,12,0,4,4,4,,,,,,,,,,,,,,,,,,,,,,,,,,,,,,,,,,,,,,,,,,,,,,,,,,,,,,,,,,,,,,,,,,,,,1.5184,1368.849977,None,None,1,1368.849977,None,,P041,FENCOG,2,Pre,2022_May_09_1128,N-Back (New Version 2021),2021.1.4,120.6460354
,,,,Conditions/Version_1/twoback(4)_v1.xlsx,New rule: Press 'space' when you see 2-back (i.e. the same letter as the one that appeared 2 letters ago.),y,None,,,,,,,,,0,12,12,12,0,5,5,5,,,,,,,,,,,,,,,,,,,,,,,,,,,,,,,,,,,,,,,,,,,,,,,,,,,,,,,,,,,,,,,,,,,,,1.5432,1372.403442,None,None,1,1372.403442,None,,P041,FENCOG,2,Pre,2022_May_09_1128,N-Back (New Version 2021),2021.1.4,120.6460354
,,,,Conditions/Version_1/twoback(4)_v1.xlsx,New rule: Press 'space' when you see 2-back (i.e. the same letter as the one that appeared 2 letters ago.),P,space,,,,,,,,,0,12,12,12,0,6,6,6,,,,,,,,,,,,,,,,,,,,,,,,,,,,,,,,,,,,,,,,,,,,,,,,,,,,,,,,,,,,,,,,,,,,,1.8966,1376.31147,None,space,1,1376.31147,None,0.5867695,P041,FENCOG,2,Pre,2022_May_09_1128,N-Back (New Version 2021),2021.1.4,120.6460354
,,,,Conditions/Version_1/twoback(4)_v1.xlsx,New rule: Press 'space' when you see 2-back (i.e. the same letter as the one that appeared 2 letters ago.),y,None,,,,,,,,,0,12,12,12,0,7,7,7,,,,,,,,,,,,,,,,,,,,,,,,,,,,,,,,,,,,,,,,,,,,,,,,,,,,,,,,,,,,,,,,,,,,,1.4936,1379.814858,None,space,0,1379.814858,None,0.843505,P041,FENCOG,2,Pre,2022_May_09_1128,N-Back (New Version 2021),2021.1.4,120.6460354
,,,,Conditions/Version_1/twoback(4)_v1.xlsx,New rule: Press 'space' when you see 2-back (i.e. the same letter as the one that appeared 2 letters ago.),y,space,,,,,,,,,0,12,12,12,0,8,8,8,,,,,,,,,,,,,,,,,,,,,,,,,,,,,,,,,,,,,,,,,,,,,,,,,,,,,,,,,,,,,,,,,,,,,1.0472,1382.87067,None,None,0,1382.87067,None,,P041,FENCOG,2,Pre,2022_May_09_1128,N-Back (New Version 2021),2021.1.4,120.6460354
,,,,Conditions/Version_1/twoback(4)_v1.xlsx,New rule: Press 'space' when you see 2-back (i.e. the same letter as the one that appeared 2 letters ago.),,,,,,,,,,,0,12,12,12,,,,,,,,,,,,,,,,,,,,,,,,,,,,,,,,,,,,,,,,,,,,,,,,,,,,,,,,,,,,,,,,,,,,,,,,,,,,,,,,,P041,FENCOG,2,Pre,2022_May_09_1128,N-Back (New Version 2021),2021.1.4,120.6460354
,,,,Conditions/Version_1/zeroback(4)_v1.xlsx,New rule: Press 'space' when you see the letter 'x' or 'X'.,o,None,,,,,,,,,0,13,13,13,0,0,0,0,,,,,,,,,,,,,,,,,,,,,,,,,,,,,,,,,,,,,,,,,,,,,,,,,,,,,,,,,,,1384.888138,None,1387.872111,None,space,1.1061501,1387.872111,None,1384.888138,None,1.9152,1390.928466,None,None,1,1390.928466,None,,P041,FENCOG,2,Pre,2022_May_09_1128,N-Back (New Version 2021),2021.1.4,120.6460354
,,,,Conditions/Version_1/zeroback(4)_v1.xlsx,New rule: Press 'space' when you see the letter 'x' or 'X'.,X,space,,,,,,,,,0,13,13,13,0,1,1,1,,,,,,,,,,,,,,,,,,,,,,,,,,,,,,,,,,,,,,,,,,,,,,,,,,,,,,,,,,,,,,,,,,,,,1.6548,1394.592363,None,space,1,1394.592363,None,0.5780245,P041,FENCOG,2,Pre,2022_May_09_1128,N-Back (New Version 2021),2021.1.4,120.6460354
,,,,Conditions/Version_1/zeroback(4)_v1.xlsx,New rule: Press 'space' when you see the letter 'x' or 'X'.,p,None,,,,,,,,,0,13,13,13,0,2,2,2,,,,,,,,,,,,,,,,,,,,,,,,,,,,,,,,,,,,,,,,,,,,,,,,,,,,,,,,,,,,,,,,,,,,,1.0906,1397.695995,None,None,1,1397.695995,None,,P041,FENCOG,2,Pre,2022_May_09_1128,N-Back (New Version 2021),2021.1.4,120.6460354
,,,,Conditions/Version_1/zeroback(4)_v1.xlsx,New rule: Press 'space' when you see the letter 'x' or 'X'.,m,None,,,,,,,,,0,13,13,13,0,3,3,3,,,,,,,,,,,,,,,,,,,,,,,,,,,,,,,,,,,,,,,,,,,,,,,,,,,,,,,,,,,,,,,,,,,,,1.3448,1401.040349,None,None,1,1401.040349,None,,P041,FENCOG,2,Pre,2022_May_09_1128,N-Back (New Version 2021),2021.1.4,120.6460354
,,,,Conditions/Version_1/zeroback(4)_v1.xlsx,New rule: Press 'space' when you see the letter 'x' or 'X'.,n,None,,,,,,,,,0,13,13,13,0,4,4,4,,,,,,,,,,,,,,,,,,,,,,,,,,,,,,,,,,,,,,,,,,,,,,,,,,,,,,,,,,,,,,,,,,,,,1.1712,1404.215657,None,None,1,1404.215657,None,,P041,FENCOG,2,Pre,2022_May_09_1128,N-Back (New Version 2021),2021.1.4,120.6460354
,,,,Conditions/Version_1/zeroback(4)_v1.xlsx,New rule: Press 'space' when you see the letter 'x' or 'X'.,m,None,,,,,,,,,0,13,13,13,0,5,5,5,,,,,,,,,,,,,,,,,,,,,,,,,,,,,,,,,,,,,,,,,,,,,,,,,,,,,,,,,,,,,,,,,,,,,1.1154,1407.338407,None,None,1,1407.338407,None,,P041,FENCOG,2,Pre,2022_May_09_1128,N-Back (New Version 2021),2021.1.4,120.6460354
,,,,Conditions/Version_1/zeroback(4)_v1.xlsx,New rule: Press 'space' when you see the letter 'x' or 'X'.,C,None,,,,,,,,,0,13,13,13,0,6,6,6,,,,,,,,,,,,,,,,,,,,,,,,,,,,,,,,,,,,,,,,,,,,,,,,,,,,,,,,,,,,,,,,,,,,,1.9958,1411.33723,None,None,1,1411.33723,None,,P041,FENCOG,2,Pre,2022_May_09_1128,N-Back (New Version 2021),2021.1.4,120.6460354
,,,,Conditions/Version_1/zeroback(4)_v1.xlsx,New rule: Press 'space' when you see the letter 'x' or 'X'.,m,None,,,,,,,,,0,13,13,13,0,7,7,7,,,,,,,,,,,,,,,,,,,,,,,,,,,,,,,,,,,,,,,,,,,,,,,,,,,,,,,,,,,,,,,,,,,,,1.5494,1414.895783,None,None,1,1414.895783,None,,P041,FENCOG,2,Pre,2022_May_09_1128,N-Back (New Version 2021),2021.1.4,120.6460354
,,,,Conditions/Version_1/zeroback(4)_v1.xlsx,New rule: Press 'space' when you see the letter 'x' or 'X'.,p,None,,,,,,,,,0,13,13,13,0,8,8,8,,,,,,,,,,,,,,,,,,,,,,,,,,,,,,,,,,,,,,,,,,,,,,,,,,,,,,,,,,,,,,,,,,,,,1.9462,1418.852281,None,None,1,1418.852281,None,,P041,FENCOG,2,Pre,2022_May_09_1128,N-Back (New Version 2021),2021.1.4,120.6460354
,,,,Conditions/Version_1/zeroback(4)_v1.xlsx,New rule: Press 'space' when you see the letter 'x' or 'X'.,X,space,,,,,,,,,0,13,13,13,0,9,9,9,,,,,,,,,,,,,,,,,,,,,,,,,,,,,,,,,,,,,,,,,,,,,,,,,,,,,,,,,,,,,,,,,,,,,1.413,1422.280076,None,space,1,1422.280076,None,0.5302053,P041,FENCOG,2,Pre,2022_May_09_1128,N-Back (New Version 2021),2021.1.4,120.6460354
,,,,Conditions/Version_1/zeroback(4)_v1.xlsx,New rule: Press 'space' when you see the letter 'x' or 'X'.,,,,,,,,,,,0,13,13,13,,,,,,,,,,,,,,,,,,,,,,,,,,,,,,,,,,,,,,,,,,,,,,,,,,,,,,,,,,,,,,,,,,,,,,,,,,,,,,,,,P041,FENCOG,2,Pre,2022_May_09_1128,N-Back (New Version 2021),2021.1.4,120.6460354
,,,,Conditions/Version_1/oneback(4)_v1.xlsx,New rule: Press 'space' when you see 1-back (i.e. the same letter as the one that appeared 1 letter ago.),w,None,,,,,,,,,0,14,14,14,0,0,0,0,,,,,,,,,,,,,,,,,,,,,,,,,,,,,,,,,,,,,,,,,,,,,,,,,,,,,,,,,,,1424.305163,None,1427.293196,None,space,1.1010767,1427.293196,None,1424.305163,None,1.6548,1430.081775,None,None,1,1430.081775,None,,P041,FENCOG,2,Pre,2022_May_09_1128,N-Back (New Version 2021),2021.1.4,120.6460354
,,,,Conditions/Version_1/oneback(4)_v1.xlsx,New rule: Press 'space' when you see 1-back (i.e. the same letter as the one that appeared 1 letter ago.),q,None,,,,,,,,,0,14,14,14,0,1,1,1,,,,,,,,,,,,,,,,,,,,,,,,,,,,,,,,,,,,,,,,,,,,,,,,,,,,,,,,,,,,,,,,,,,,,1.3882,1433.472429,None,None,1,1433.472429,None,,P041,FENCOG,2,Pre,2022_May_09_1128,N-Back (New Version 2021),2021.1.4,120.6460354
,,,,Conditions/Version_1/oneback(4)_v1.xlsx,New rule: Press 'space' when you see 1-back (i.e. the same letter as the one that appeared 1 letter ago.),i,None,,,,,,,,,0,14,14,14,0,2,2,2,,,,,,,,,,,,,,,,,,,,,,,,,,,,,,,,,,,,,,,,,,,,,,,,,,,,,,,,,,,,,,,,,,,,,1.6982,1437.171324,None,None,1,1437.171324,None,,P041,FENCOG,2,Pre,2022_May_09_1128,N-Back (New Version 2021),2021.1.4,120.6460354
,,,,Conditions/Version_1/oneback(4)_v1.xlsx,New rule: Press 'space' when you see 1-back (i.e. the same letter as the one that appeared 1 letter ago.),t,None,,,,,,,,,0,14,14,14,0,3,3,3,,,,,,,,,,,,,,,,,,,,,,,,,,,,,,,,,,,,,,,,,,,,,,,,,,,,,,,,,,,,,,,,,,,,,1.0906,1440.264761,None,None,1,1440.264761,None,,P041,FENCOG,2,Pre,2022_May_09_1128,N-Back (New Version 2021),2021.1.4,120.6460354
,,,,Conditions/Version_1/oneback(4)_v1.xlsx,New rule: Press 'space' when you see 1-back (i.e. the same letter as the one that appeared 1 letter ago.),v,None,,,,,,,,,0,14,14,14,0,4,4,4,,,,,,,,,,,,,,,,,,,,,,,,,,,,,,,,,,,,,,,,,,,,,,,,,,,,,,,,,,,,,,,,,,,,,1.4192,1443.69596,None,None,1,1443.69596,None,,P041,FENCOG,2,Pre,2022_May_09_1128,N-Back (New Version 2021),2021.1.4,120.6460354
,,,,Conditions/Version_1/oneback(4)_v1.xlsx,New rule: Press 'space' when you see 1-back (i.e. the same letter as the one that appeared 1 letter ago.),V,space,,,,,,,,,0,14,14,14,0,5,5,5,,,,,,,,,,,,,,,,,,,,,,,,,,,,,,,,,,,,,,,,,,,,,,,,,,,,,,,,,,,,,,,,,,,,,1.4564,1447.160861,None,space,1,1447.160861,None,0.5373069,P041,FENCOG,2,Pre,2022_May_09_1128,N-Back (New Version 2021),2021.1.4,120.6460354
,,,,Conditions/Version_1/oneback(4)_v1.xlsx,New rule: Press 'space' when you see 1-back (i.e. the same letter as the one that appeared 1 letter ago.),v,space,,,,,,,,,0,14,14,14,0,6,6,6,,,,,,,,,,,,,,,,,,,,,,,,,,,,,,,,,,,,,,,,,,,,,,,,,,,,,,,,,,,,,,,,,,,,,1.847,1451.020857,None,space,1,1451.020857,None,0.4933655,P041,FENCOG,2,Pre,2022_May_09_1128,N-Back (New Version 2021),2021.1.4,120.6460354
,,,,Conditions/Version_1/oneback(4)_v1.xlsx,New rule: Press 'space' when you see 1-back (i.e. the same letter as the one that appeared 1 letter ago.),p,None,,,,,,,,,0,14,14,14,0,7,7,7,,,,,,,,,,,,,,,,,,,,,,,,,,,,,,,,,,,,,,,,,,,,,,,,,,,,,,,,,,,,,,,,,,,,,1.5308,1454.558793,None,None,1,1454.558793,None,,P041,FENCOG,2,Pre,2022_May_09_1128,N-Back (New Version 2021),2021.1.4,120.6460354
,,,,Conditions/Version_1/oneback(4)_v1.xlsx,New rule: Press 'space' when you see 1-back (i.e. the same letter as the one that appeared 1 letter ago.),w,None,,,,,,,,,0,14,14,14,0,8,8,8,,,,,,,,,,,,,,,,,,,,,,,,,,,,,,,,,,,,,,,,,,,,,,,,,,,,,,,,,,,,,,,,,,,,,1.8036,1458.373313,None,None,1,1458.373313,None,,P041,FENCOG,2,Pre,2022_May_09_1128,N-Back (New Version 2021),2021.1.4,120.6460354
,,,,Conditions/Version_1/oneback(4)_v1.xlsx,New rule: Press 'space' when you see 1-back (i.e. the same letter as the one that appeared 1 letter ago.),W,space,,,,,,,,,0,14,14,14,0,9,9,9,,,,,,,,,,,,,,,,,,,,,,,,,,,,,,,,,,,,,,,,,,,,,,,,,,,,,,,,,,,,,,,,,,,,,1.2332,1461.605704,None,space,1,1461.605704,None,0.4444522,P041,FENCOG,2,Pre,2022_May_09_1128,N-Back (New Version 2021),2021.1.4,120.6460354
,,,,Conditions/Version_1/oneback(4)_v1.xlsx,New rule: Press 'space' when you see 1-back (i.e. the same letter as the one that appeared 1 letter ago.),,,,,,,,,,,0,14,14,14,,,,,,,,,,,,,,,,,,,,,,,,,,,,,,,,,,,,,,,,,,,,,,,,,,,,,,,,,,,,,,,,,,,,,,,,,,,,,,,,,P041,FENCOG,2,Pre,2022_May_09_1128,N-Back (New Version 2021),2021.1.4,120.6460354
,,,,Conditions/Version_1/threeback(4)_v1.xlsx,New rule: Press 'space' when you see 3-back (i.e. the same letter as the one that appeared 3 letters ago.),A,None,,,,,,,,,0,15,15,15,0,0,0,0,,,,,,,,,,,,,,,,,,,,,,,,,,,,,,,,,,,,,,,,,,,,,,,,,,,,,,,,,,,1463.628415,None,1466.618363,None,space,4.7037685,1466.618363,None,1463.628415,None,1.6672,1473.021746,None,None,1,1473.021746,None,,P041,FENCOG,2,Pre,2022_May_09_1128,N-Back (New Version 2021),2021.1.4,120.6460354
,,,,Conditions/Version_1/threeback(4)_v1.xlsx,New rule: Press 'space' when you see 3-back (i.e. the same letter as the one that appeared 3 letters ago.),n,None,,,,,,,,,0,15,15,15,0,1,1,1,,,,,,,,,,,,,,,,,,,,,,,,,,,,,,,,,,,,,,,,,,,,,,,,,,,,,,,,,,,,,,,,,,,,,1.413,1476.445342,None,None,1,1476.445342,None,,P041,FENCOG,2,Pre,2022_May_09_1128,N-Back (New Version 2021),2021.1.4,120.6460354
,,,,Conditions/Version_1/threeback(4)_v1.xlsx,New rule: Press 'space' when you see 3-back (i.e. the same letter as the one that appeared 3 letters ago.),g,None,,,,,,,,,0,15,15,15,0,2,2,2,,,,,,,,,,,,,,,,,,,,,,,,,,,,,,,,,,,,,,,,,,,,,,,,,,,,,,,,,,,,,,,,,,,,,1.3758,1479.83361,None,None,1,1479.83361,None,,P041,FENCOG,2,Pre,2022_May_09_1128,N-Back (New Version 2021),2021.1.4,120.6460354
,,,,Conditions/Version_1/threeback(4)_v1.xlsx,New rule: Press 'space' when you see 3-back (i.e. the same letter as the one that appeared 3 letters ago.),A,space,,,,,,,,,0,15,15,15,0,3,3,3,,,,,,,,,,,,,,,,,,,,,,,,,,,,,,,,,,,,,,,,,,,,,,,,,,,,,,,,,,,,,,,,,,,,,1.1464,1482.984964,None,space,1,1482.984964,None,0.4732433,P041,FENCOG,2,Pre,2022_May_09_1128,N-Back (New Version 2021),2021.1.4,120.6460354
,,,,Conditions/Version_1/threeback(4)_v1.xlsx,New rule: Press 'space' when you see 3-back (i.e. the same letter as the one that appeared 3 letters ago.),p,None,,,,,,,,,0,15,15,15,0,4,4,4,,,,,,,,,,,,,,,,,,,,,,,,,,,,,,,,,,,,,,,,,,,,,,,,,,,,,,,,,,,,,,,,,,,,,1.568,1486.566735,None,None,1,1486.566735,None,,P041,FENCOG,2,Pre,2022_May_09_1128,N-Back (New Version 2021),2021.1.4,120.6460354
,,,,Conditions/Version_1/threeback(4)_v1.xlsx,New rule: Press 'space' when you see 3-back (i.e. the same letter as the one that appeared 3 letters ago.),O,None,,,,,,,,,0,15,15,15,0,5,5,5,,,,,,,,,,,,,,,,,,,,,,,,,,,,,,,,,,,,,,,,,,,,,,,,,,,,,,,,,,,,,,,,,,,,,1.7478,1490.323341,None,None,1,1490.323341,None,,P041,FENCOG,2,Pre,2022_May_09_1128,N-Back (New Version 2021),2021.1.4,120.6460354
,,,,Conditions/Version_1/threeback(4)_v1.xlsx,New rule: Press 'space' when you see 3-back (i.e. the same letter as the one that appeared 3 letters ago.),a,space,,,,,,,,,0,15,15,15,0,6,6,6,,,,,,,,,,,,,,,,,,,,,,,,,,,,,,,,,,,,,,,,,,,,,,,,,,,,,,,,,,,,,,,,,,,,,1.8346,1494.167034,None,space,1,1494.167034,None,0.6591974,P041,FENCOG,2,Pre,2022_May_09_1128,N-Back (New Version 2021),2021.1.4,120.6460354
,,,,Conditions/Version_1/threeback(4)_v1.xlsx,New rule: Press 'space' when you see 3-back (i.e. the same letter as the one that appeared 3 letters ago.),p,space,,,,,,,,,0,15,15,15,0,7,7,7,,,,,,,,,,,,,,,,,,,,,,,,,,,,,,,,,,,,,,,,,,,,,,,,,,,,,,,,,,,,,,,,,,,,,1.4874,1497.662905,None,space,1,1497.662905,None,0.451235,P041,FENCOG,2,Pre,2022_May_09_1128,N-Back (New Version 2021),2021.1.4,120.6460354
,,,,Conditions/Version_1/threeback(4)_v1.xlsx,New rule: Press 'space' when you see 3-back (i.e. the same letter as the one that appeared 3 letters ago.),x,None,,,,,,,,,0,15,15,15,0,8,8,8,,,,,,,,,,,,,,,,,,,,,,,,,,,,,,,,,,,,,,,,,,,,,,,,,,,,,,,,,,,,,,,,,,,,,1.8656,1501.539999,None,None,1,1501.539999,None,,P041,FENCOG,2,Pre,2022_May_09_1128,N-Back (New Version 2021),2021.1.4,120.6460354
,,,,Conditions/Version_1/threeback(4)_v1.xlsx,New rule: Press 'space' when you see 3-back (i.e. the same letter as the one that appeared 3 letters ago.),X,None,,,,,,,,,0,15,15,15,0,9,9,9,,,,,,,,,,,,,,,,,,,,,,,,,,,,,,,,,,,,,,,,,,,,,,,,,,,,,,,,,,,,,,,,,,,,,1.1092,1504.66179,None,None,1,1504.66179,None,,P041,FENCOG,2,Pre,2022_May_09_1128,N-Back (New Version 2021),2021.1.4,120.6460354
,,,,Conditions/Version_1/threeback(4)_v1.xlsx,New rule: Press 'space' when you see 3-back (i.e. the same letter as the one that appeared 3 letters ago.),,,,,,,,,,,0,15,15,15,,,,,,,,,,,,,,,,,,,,,,,,,,,,,,,,,,,,,,,,,,,,,,,,,,,,,,,,,,,,,,,,,,,,,,,,,,,,,,,,,P041,FENCOG,2,Pre,2022_May_09_1128,N-Back (New Version 2021),2021.1.4,120.6460354
