CondFileP,InstructionsP,LettersDisplayedP,CorrectnessP,CondFile,Instructions,LettersDisplayed,Correctness,practicetrials.thisRepN,practicetrials.thisTrialN,practicetrials.thisN,practicetrials.thisIndex,InnerLoopPractice.thisRepN,InnerLoopPractice.thisTrialN,InnerLoopPractice.thisN,InnerLoopPractice.thisIndex,trials.thisRepN,trials.thisTrialN,trials.thisN,trials.thisIndex,InnerLoop.thisRepN,InnerLoop.thisTrialN,InnerLoop.thisN,InnerLoop.thisIndex,TaskVersionText.started,TaskVersionText.stopped,InstrKey1.keys,InstrKey1.rt,InstrKey1.started,InstrKey1.stopped,text.started,text.stopped,key_resp_4.keys,key_resp_4.rt,key_resp_4.started,key_resp_4.stopped,text_2.started,text_2.stopped,key_resp_3.keys,key_resp_3.rt,key_resp_3.started,key_resp_3.stopped,text_3.started,text_3.stopped,key_resp_2.keys,key_resp_2.rt,key_resp_2.started,key_resp_2.stopped,PractIn1.started,PractIn1.stopped,PractIn2.started,PractIn2.stopped,PractInstructionPass.keys,PractInstructionPass.rt,PractInstructionPass.started,PractInstructionPass.stopped,PractBlock1.started,PractBlock1.stopped,ISIjitterPractice,ISI_Pract_Fixation.started,ISI_Pract_Fixation.stopped,N_backP.started,N_backP.stopped,KeyPractice.keys,KeyPractice.corr,KeyPractice.started,KeyPractice.stopped,text_4.started,text_4.stopped,KeyPractice.rt,TransitionText.started,TransitionText.stopped,key_resp_6.keys,key_resp_6.rt,key_resp_6.started,key_resp_6.stopped,text_5.started,text_5.stopped,key_resp_5.keys,key_resp_5.rt,key_resp_5.started,key_resp_5.stopped,MainInt1.started,MainInt1.stopped,MainInt2.started,MainInt2.stopped,InstructionPass.keys,InstructionPass.rt,InstructionPass.started,InstructionPass.stopped,Blocks1.started,Blocks1.stopped,ISIjitter,N_backD.started,N_backD.stopped,key_resp.keys,key_resp.corr,key_resp.started,key_resp.stopped,key_resp.rt,participant,Study Name,Task Version (required to run),PRE/POST,date,expName,psychopyVersion,frameRate
,,,,,,,,,,,,,,,,,,,,,,,,19.9201609,None,space,28.2919522,20.4086049,None,,,,,,,,,,,,,,,,,,,,,,,,,,,,,,,,,,,,,,,,,,,,,,,,,,,,,,,,,,,,,,,,,,,,,,,P042,fencog,1,Post,2022_May_17_1150,N-Back (New Version 2021),2021.1.4,120.4759765
,,,,,,,,,,,,,,,,,,,,,,,,,,,,,,48.7558475,None,space,7.7384844,49.2500997,None,,,,,,,,,,,,,,,,,,,,,,,,,,,,,,,,,,,,,,,,,,,,,,,,,,,,,,,,,,,,,,,,,P042,fencog,1,Post,2022_May_17_1150,N-Back (New Version 2021),2021.1.4,120.4759765
,,,,,,,,,,,,,,,,,,,,,,,,,,,,,,,,,,,,57.0490258,None,space,8.5608004,57.5399403,None,,,,,,,,,,,,,,,,,,,,,,,,,,,,,,,,,,,,,,,,,,,,,,,,,,,,,,,,,,,P042,fencog,1,Post,2022_May_17_1150,N-Back (New Version 2021),2021.1.4,120.4759765
,,,,,,,,,,,,,,,,,,,,,,,,,,,,,,,,,,,,,,,,,,66.1523592,None,space,2.6636028,66.6449686,None,,,,,,,,,,,,,,,,,,,,,,,,,,,,,,,,,,,,,,,,,,,,,,,,,,,,,P042,fencog,1,Post,2022_May_17_1150,N-Back (New Version 2021),2021.1.4,120.4759765
Conditions/Version_1Pr/zeroback(1)_v1.xlsx,Rule: Press 'space' when you see the letter 'x' or 'X'.,Z,None,,,,,0,0,0,0,0,0,0,0,,,,,,,,,,,,,,,,,,,,,,,,,,,,,,,,,70.9187314,None,73.9054353,None,space,0.8030973,73.9054353,None,70.9187314,None,1.815,74.7511672,None,76.5780735,None,None,1,76.5780735,None,78.5772825,None,,,,,,,,,,,,,,,,,,,,,,,,,,,,,,,,P042,fencog,1,Post,2022_May_17_1150,N-Back (New Version 2021),2021.1.4,120.4759765
Conditions/Version_1Pr/zeroback(1)_v1.xlsx,Rule: Press 'space' when you see the letter 'x' or 'X'.,r,None,,,,,0,0,0,0,0,1,1,1,,,,,,,,,,,,,,,,,,,,,,,,,,,,,,,,,,,,,,,,,,,1.44,80.0735309,None,81.5205669,None,None,1,81.5205669,None,83.5278479,None,,,,,,,,,,,,,,,,,,,,,,,,,,,,,,,,P042,fencog,1,Post,2022_May_17_1150,N-Back (New Version 2021),2021.1.4,120.4759765
Conditions/Version_1Pr/zeroback(1)_v1.xlsx,Rule: Press 'space' when you see the letter 'x' or 'X'.,X,space,,,,,0,0,0,0,0,2,2,2,,,,,,,,,,,,,,,,,,,,,,,,,,,,,,,,,,,,,,,,,,,1.59,85.0221083,None,86.622571,None,space,1,86.622571,None,86.9337716,None,0.2942326,,,,,,,,,,,,,,,,,,,,,,,,,,,,,,,P042,fencog,1,Post,2022_May_17_1150,N-Back (New Version 2021),2021.1.4,120.4759765
Conditions/Version_1Pr/zeroback(1)_v1.xlsx,Rule: Press 'space' when you see the letter 'x' or 'X'.,p,None,,,,,0,0,0,0,0,3,3,3,,,,,,,,,,,,,,,,,,,,,,,,,,,,,,,,,,,,,,,,,,,1.74,88.4395238,None,90.1864848,None,None,1,90.1864848,None,92.1920811,None,,,,,,,,,,,,,,,,,,,,,,,,,,,,,,,,P042,fencog,1,Post,2022_May_17_1150,N-Back (New Version 2021),2021.1.4,120.4759765
Conditions/Version_1Pr/zeroback(1)_v1.xlsx,Rule: Press 'space' when you see the letter 'x' or 'X'.,w,None,,,,,0,0,0,0,0,4,4,4,,,,,,,,,,,,,,,,,,,,,,,,,,,,,,,,,,,,,,,,,,,1.89,93.6861637,None,95.5863856,None,None,1,95.5863856,None,97.5847694,None,,,,,,,,,,,,,,,,,,,,,,,,,,,,,,,,P042,fencog,1,Post,2022_May_17_1150,N-Back (New Version 2021),2021.1.4,120.4759765
Conditions/Version_1Pr/zeroback(1)_v1.xlsx,Rule: Press 'space' when you see the letter 'x' or 'X'.,e,None,,,,,0,0,0,0,0,5,5,5,,,,,,,,,,,,,,,,,,,,,,,,,,,,,,,,,,,,,,,,,,,1.315,99.0843005,None,100.4017479,None,None,1,100.4017479,None,102.4083101,None,,,,,,,,,,,,,,,,,,,,,,,,,,,,,,,,P042,fencog,1,Post,2022_May_17_1150,N-Back (New Version 2021),2021.1.4,120.4759765
Conditions/Version_1Pr/zeroback(1)_v1.xlsx,Rule: Press 'space' when you see the letter 'x' or 'X'.,X,space,,,,,0,0,0,0,0,6,6,6,,,,,,,,,,,,,,,,,,,,,,,,,,,,,,,,,,,,,,,,,,,1.965,103.9079355,None,105.8741394,None,space,1,105.8741394,None,106.2415749,None,0.3544271,,,,,,,,,,,,,,,,,,,,,,,,,,,,,,,P042,fencog,1,Post,2022_May_17_1150,N-Back (New Version 2021),2021.1.4,120.4759765
Conditions/Version_1Pr/zeroback(1)_v1.xlsx,Rule: Press 'space' when you see the letter 'x' or 'X'.,x,space,,,,,0,0,0,0,0,7,7,7,,,,,,,,,,,,,,,,,,,,,,,,,,,,,,,,,,,,,,,,,,,1.165,107.7484732,None,108.9153227,None,space,1,108.9153227,None,109.3407147,None,0.4170269,,,,,,,,,,,,,,,,,,,,,,,,,,,,,,,P042,fencog,1,Post,2022_May_17_1150,N-Back (New Version 2021),2021.1.4,120.4759765
Conditions/Version_1Pr/zeroback(1)_v1.xlsx,Rule: Press 'space' when you see the letter 'x' or 'X'.,p,None,,,,,0,0,0,0,0,8,8,8,,,,,,,,,,,,,,,,,,,,,,,,,,,,,,,,,,,,,,,,,,,1.715,110.8475459,None,112.563678,None,None,1,112.563678,None,114.5630503,None,,,,,,,,,,,,,,,,,,,,,,,,,,,,,,,,P042,fencog,1,Post,2022_May_17_1150,N-Back (New Version 2021),2021.1.4,120.4759765
Conditions/Version_1Pr/zeroback(1)_v1.xlsx,Rule: Press 'space' when you see the letter 'x' or 'X'.,r,None,,,,,0,0,0,0,0,9,9,9,,,,,,,,,,,,,,,,,,,,,,,,,,,,,,,,,,,,,,,,,,,1.79,116.0626708,None,117.853877,None,None,1,117.853877,None,119.8532055,None,,,,,,,,,,,,,,,,,,,,,,,,,,,,,,,,P042,fencog,1,Post,2022_May_17_1150,N-Back (New Version 2021),2021.1.4,120.4759765
Conditions/Version_1Pr/zeroback(1)_v1.xlsx,Rule: Press 'space' when you see the letter 'x' or 'X'.,,,,,,,0,0,0,0,,,,,,,,,,,,,,,,,,,,,,,,,,,,,,,,,,,,,,,,,,,,,,,,,,,,,,,,,,,,,,,,,,,,,,,,,,,,,,,,,,,,,,,,,P042,fencog,1,Post,2022_May_17_1150,N-Back (New Version 2021),2021.1.4,120.4759765
Conditions/Version_1Pr/oneback(1)_v1.xlsx,New rule: Press 'space' when you see 1-back (i.e. the same letter as the one that appeared 1 letter ago.),a,None,,,,,0,1,1,1,0,0,0,0,,,,,,,,,,,,,,,,,,,,,,,,,,,,,,,,,121.384466,None,124.3634871,None,space,0.752932,124.3634871,None,121.384466,None,1.64,125.1453019,None,126.7873604,None,None,1,126.7873604,None,128.7922436,None,,,,,,,,,,,,,,,,,,,,,,,,,,,,,,,,P042,fencog,1,Post,2022_May_17_1150,N-Back (New Version 2021),2021.1.4,120.4759765
Conditions/Version_1Pr/oneback(1)_v1.xlsx,New rule: Press 'space' when you see 1-back (i.e. the same letter as the one that appeared 1 letter ago.),x,None,,,,,0,1,1,1,0,1,1,1,,,,,,,,,,,,,,,,,,,,,,,,,,,,,,,,,,,,,,,,,,,1.49,130.2918291,None,131.7829912,None,None,1,131.7829912,None,133.7824097,None,,,,,,,,,,,,,,,,,,,,,,,,,,,,,,,,P042,fencog,1,Post,2022_May_17_1150,N-Back (New Version 2021),2021.1.4,120.4759765
Conditions/Version_1Pr/oneback(1)_v1.xlsx,New rule: Press 'space' when you see 1-back (i.e. the same letter as the one that appeared 1 letter ago.),g,None,,,,,0,1,1,1,0,2,2,2,,,,,,,,,,,,,,,,,,,,,,,,,,,,,,,,,,,,,,,,,,,1.565,135.2819767,None,136.8496324,None,None,1,136.8496324,None,138.8559799,None,,,,,,,,,,,,,,,,,,,,,,,,,,,,,,,,P042,fencog,1,Post,2022_May_17_1150,N-Back (New Version 2021),2021.1.4,120.4759765
Conditions/Version_1Pr/oneback(1)_v1.xlsx,New rule: Press 'space' when you see 1-back (i.e. the same letter as the one that appeared 1 letter ago.),G,space,,,,,0,1,1,1,0,3,3,3,,,,,,,,,,,,,,,,,,,,,,,,,,,,,,,,,,,,,,,,,,,1.315,140.3555204,None,141.6735427,None,space,1,141.6735427,None,142.1302637,None,0.4428422,,,,,,,,,,,,,,,,,,,,,,,,,,,,,,,P042,fencog,1,Post,2022_May_17_1150,N-Back (New Version 2021),2021.1.4,120.4759765
Conditions/Version_1Pr/oneback(1)_v1.xlsx,New rule: Press 'space' when you see 1-back (i.e. the same letter as the one that appeared 1 letter ago.),u,None,,,,,0,1,1,1,0,4,4,4,,,,,,,,,,,,,,,,,,,,,,,,,,,,,,,,,,,,,,,,,,,1.915,143.6294971,None,145.5475102,None,None,1,145.5475102,None,147.5533911,None,,,,,,,,,,,,,,,,,,,,,,,,,,,,,,,,P042,fencog,1,Post,2022_May_17_1150,N-Back (New Version 2021),2021.1.4,120.4759765
Conditions/Version_1Pr/oneback(1)_v1.xlsx,New rule: Press 'space' when you see 1-back (i.e. the same letter as the one that appeared 1 letter ago.),y,None,,,,,0,1,1,1,0,5,5,5,,,,,,,,,,,,,,,,,,,,,,,,,,,,,,,,,,,,,,,,,,,1.74,149.0529067,None,150.7950622,None,None,1,150.7950622,None,152.8017847,None,,,,,,,,,,,,,,,,,,,,,,,,,,,,,,,,P042,fencog,1,Post,2022_May_17_1150,N-Back (New Version 2021),2021.1.4,120.4759765
Conditions/Version_1Pr/oneback(1)_v1.xlsx,New rule: Press 'space' when you see 1-back (i.e. the same letter as the one that appeared 1 letter ago.),y,space,,,,,0,1,1,1,0,6,6,6,,,,,,,,,,,,,,,,,,,,,,,,,,,,,,,,,,,,,,,,,,,1.465,154.3013402,None,155.767617,None,space,1,155.767617,None,156.3104923,None,0.5329054,,,,,,,,,,,,,,,,,,,,,,,,,,,,,,,P042,fencog,1,Post,2022_May_17_1150,N-Back (New Version 2021),2021.1.4,120.4759765
Conditions/Version_1Pr/oneback(1)_v1.xlsx,New rule: Press 'space' when you see 1-back (i.e. the same letter as the one that appeared 1 letter ago.),k,None,,,,,0,1,1,1,0,7,7,7,,,,,,,,,,,,,,,,,,,,,,,,,,,,,,,,,,,,,,,,,,,1.24,157.8169742,None,159.0593147,None,None,1,159.0593147,None,161.0660488,None,,,,,,,,,,,,,,,,,,,,,,,,,,,,,,,,P042,fencog,1,Post,2022_May_17_1150,N-Back (New Version 2021),2021.1.4,120.4759765
Conditions/Version_1Pr/oneback(1)_v1.xlsx,New rule: Press 'space' when you see 1-back (i.e. the same letter as the one that appeared 1 letter ago.),c,None,,,,,0,1,1,1,0,8,8,8,,,,,,,,,,,,,,,,,,,,,,,,,,,,,,,,,,,,,,,,,,,1.715,162.5655712,None,164.2838162,None,None,1,164.2838162,None,166.2895211,None,,,,,,,,,,,,,,,,,,,,,,,,,,,,,,,,P042,fencog,1,Post,2022_May_17_1150,N-Back (New Version 2021),2021.1.4,120.4759765
Conditions/Version_1Pr/oneback(1)_v1.xlsx,New rule: Press 'space' when you see 1-back (i.e. the same letter as the one that appeared 1 letter ago.),r,None,,,,,0,1,1,1,0,9,9,9,,,,,,,,,,,,,,,,,,,,,,,,,,,,,,,,,,,,,,,,,,,1.04,167.789069,None,168.8319943,None,None,1,168.8319943,None,170.8381234,None,,,,,,,,,,,,,,,,,,,,,,,,,,,,,,,,P042,fencog,1,Post,2022_May_17_1150,N-Back (New Version 2021),2021.1.4,120.4759765
Conditions/Version_1Pr/oneback(1)_v1.xlsx,New rule: Press 'space' when you see 1-back (i.e. the same letter as the one that appeared 1 letter ago.),,,,,,,0,1,1,1,,,,,,,,,,,,,,,,,,,,,,,,,,,,,,,,,,,,,,,,,,,,,,,,,,,,,,,,,,,,,,,,,,,,,,,,,,,,,,,,,,,,,,,,,P042,fencog,1,Post,2022_May_17_1150,N-Back (New Version 2021),2021.1.4,120.4759765
Conditions/Version_1Pr/twoback(1)_v1.xlsx,New rule: Press 'space' when you see 2-back (i.e. the same letter as the one that appeared 2 letters ago.),E,None,,,,,0,2,2,2,0,0,0,0,,,,,,,,,,,,,,,,,,,,,,,,,,,,,,,,,172.3653712,None,175.3507301,None,space,0.3577419,175.3507301,None,172.3653712,None,1.815,175.7490431,None,177.5731218,None,None,1,177.5731218,None,179.5774713,None,,,,,,,,,,,,,,,,,,,,,,,,,,,,,,,,P042,fencog,1,Post,2022_May_17_1150,N-Back (New Version 2021),2021.1.4,120.4759765
Conditions/Version_1Pr/twoback(1)_v1.xlsx,New rule: Press 'space' when you see 2-back (i.e. the same letter as the one that appeared 2 letters ago.),p,None,,,,,0,2,2,2,0,1,1,1,,,,,,,,,,,,,,,,,,,,,,,,,,,,,,,,,,,,,,,,,,,1.04,181.0767742,None,182.1186522,None,None,1,182.1186522,None,184.1178861,None,,,,,,,,,,,,,,,,,,,,,,,,,,,,,,,,P042,fencog,1,Post,2022_May_17_1150,N-Back (New Version 2021),2021.1.4,120.4759765
Conditions/Version_1Pr/twoback(1)_v1.xlsx,New rule: Press 'space' when you see 2-back (i.e. the same letter as the one that appeared 2 letters ago.),e,space,,,,,0,2,2,2,0,2,2,2,,,,,,,,,,,,,,,,,,,,,,,,,,,,,,,,,,,,,,,,,,,1.515,185.6173044,None,187.133285,None,space,1,187.133285,None,187.5348726,None,0.390984,,,,,,,,,,,,,,,,,,,,,,,,,,,,,,,P042,fencog,1,Post,2022_May_17_1150,N-Back (New Version 2021),2021.1.4,120.4759765
Conditions/Version_1Pr/twoback(1)_v1.xlsx,New rule: Press 'space' when you see 2-back (i.e. the same letter as the one that appeared 2 letters ago.),s,None,,,,,0,2,2,2,0,3,3,3,,,,,,,,,,,,,,,,,,,,,,,,,,,,,,,,,,,,,,,,,,,1.415,189.0410851,None,190.4584897,None,None,1,190.4584897,None,192.4650851,None,,,,,,,,,,,,,,,,,,,,,,,,,,,,,,,,P042,fencog,1,Post,2022_May_17_1150,N-Back (New Version 2021),2021.1.4,120.4759765
Conditions/Version_1Pr/twoback(1)_v1.xlsx,New rule: Press 'space' when you see 2-back (i.e. the same letter as the one that appeared 2 letters ago.),S,None,,,,,0,2,2,2,0,4,4,4,,,,,,,,,,,,,,,,,,,,,,,,,,,,,,,,,,,,,,,,,,,1.665,193.9646636,None,195.6348166,None,None,1,195.6348166,None,197.6386109,None,,,,,,,,,,,,,,,,,,,,,,,,,,,,,,,,P042,fencog,1,Post,2022_May_17_1150,N-Back (New Version 2021),2021.1.4,120.4759765
Conditions/Version_1Pr/twoback(1)_v1.xlsx,New rule: Press 'space' when you see 2-back (i.e. the same letter as the one that appeared 2 letters ago.),s,space,,,,,0,2,2,2,0,5,5,5,,,,,,,,,,,,,,,,,,,,,,,,,,,,,,,,,,,,,,,,,,,1.265,199.1381343,None,200.4044078,None,space,1,200.4044078,None,201.1713973,None,0.7519492,,,,,,,,,,,,,,,,,,,,,,,,,,,,,,,P042,fencog,1,Post,2022_May_17_1150,N-Back (New Version 2021),2021.1.4,120.4759765
Conditions/Version_1Pr/twoback(1)_v1.xlsx,New rule: Press 'space' when you see 2-back (i.e. the same letter as the one that appeared 2 letters ago.),P,None,,,,,0,2,2,2,0,6,6,6,,,,,,,,,,,,,,,,,,,,,,,,,,,,,,,,,,,,,,,,,,,1.59,202.6708754,None,204.263477,None,None,1,204.263477,None,206.269394,None,,,,,,,,,,,,,,,,,,,,,,,,,,,,,,,,P042,fencog,1,Post,2022_May_17_1150,N-Back (New Version 2021),2021.1.4,120.4759765
Conditions/Version_1Pr/twoback(1)_v1.xlsx,New rule: Press 'space' when you see 2-back (i.e. the same letter as the one that appeared 2 letters ago.),C,None,,,,,0,2,2,2,0,7,7,7,,,,,,,,,,,,,,,,,,,,,,,,,,,,,,,,,,,,,,,,,,,1.84,207.7688744,None,209.6115397,None,None,1,209.6115397,None,211.6178306,None,,,,,,,,,,,,,,,,,,,,,,,,,,,,,,,,P042,fencog,1,Post,2022_May_17_1150,N-Back (New Version 2021),2021.1.4,120.4759765
Conditions/Version_1Pr/twoback(1)_v1.xlsx,New rule: Press 'space' when you see 2-back (i.e. the same letter as the one that appeared 2 letters ago.),x,None,,,,,0,2,2,2,0,8,8,8,,,,,,,,,,,,,,,,,,,,,,,,,,,,,,,,,,,,,,,,,,,1.44,213.1173973,None,214.5587222,None,None,1,214.5587222,None,216.5580539,None,,,,,,,,,,,,,,,,,,,,,,,,,,,,,,,,P042,fencog,1,Post,2022_May_17_1150,N-Back (New Version 2021),2021.1.4,120.4759765
Conditions/Version_1Pr/twoback(1)_v1.xlsx,New rule: Press 'space' when you see 2-back (i.e. the same letter as the one that appeared 2 letters ago.),Z,None,,,,,0,2,2,2,0,9,9,9,,,,,,,,,,,,,,,,,,,,,,,,,,,,,,,,,,,,,,,,,,,1.94,218.0597431,None,220.0034243,None,None,1,220.0034243,None,222.0028336,None,,,,,,,,,,,,,,,,,,,,,,,,,,,,,,,,P042,fencog,1,Post,2022_May_17_1150,N-Back (New Version 2021),2021.1.4,120.4759765
Conditions/Version_1Pr/twoback(1)_v1.xlsx,New rule: Press 'space' when you see 2-back (i.e. the same letter as the one that appeared 2 letters ago.),,,,,,,0,2,2,2,,,,,,,,,,,,,,,,,,,,,,,,,,,,,,,,,,,,,,,,,,,,,,,,,,,,,,,,,,,,,,,,,,,,,,,,,,,,,,,,,,,,,,,,,P042,fencog,1,Post,2022_May_17_1150,N-Back (New Version 2021),2021.1.4,120.4759765
Conditions/Version_1Pr/threeback(1)_v1.xlsx,New rule: Press 'space' when you see 3-back (i.e. the same letter as the one that appeared 3 letters ago.),r,None,,,,,0,3,3,3,0,0,0,0,,,,,,,,,,,,,,,,,,,,,,,,,,,,,,,,,223.5439014,None,226.5262997,None,space,0.4061871,226.5262997,None,223.5439014,None,1.99,226.964905,None,228.9545842,None,None,1,228.9545842,None,230.954134,None,,,,,,,,,,,,,,,,,,,,,,,,,,,,,,,,P042,fencog,1,Post,2022_May_17_1150,N-Back (New Version 2021),2021.1.4,120.4759765
Conditions/Version_1Pr/threeback(1)_v1.xlsx,New rule: Press 'space' when you see 3-back (i.e. the same letter as the one that appeared 3 letters ago.),a,None,,,,,0,3,3,3,0,1,1,1,,,,,,,,,,,,,,,,,,,,,,,,,,,,,,,,,,,,,,,,,,,1.34,232.4555222,None,233.7977373,None,None,1,233.7977373,None,235.7987702,None,,,,,,,,,,,,,,,,,,,,,,,,,,,,,,,,P042,fencog,1,Post,2022_May_17_1150,N-Back (New Version 2021),2021.1.4,120.4759765
Conditions/Version_1Pr/threeback(1)_v1.xlsx,New rule: Press 'space' when you see 3-back (i.e. the same letter as the one that appeared 3 letters ago.),t,None,,,,,0,3,3,3,0,2,2,2,,,,,,,,,,,,,,,,,,,,,,,,,,,,,,,,,,,,,,,,,,,1.29,237.3020614,None,238.6031573,None,None,1,238.6031573,None,240.6026761,None,,,,,,,,,,,,,,,,,,,,,,,,,,,,,,,,P042,fencog,1,Post,2022_May_17_1150,N-Back (New Version 2021),2021.1.4,120.4759765
Conditions/Version_1Pr/threeback(1)_v1.xlsx,New rule: Press 'space' when you see 3-back (i.e. the same letter as the one that appeared 3 letters ago.),r,space,,,,,0,3,3,3,0,3,3,3,,,,,,,,,,,,,,,,,,,,,,,,,,,,,,,,,,,,,,,,,,,1.74,242.1006332,None,243.8466954,None,space,1,243.8466954,None,244.2674957,None,0.3979866,,,,,,,,,,,,,,,,,,,,,,,,,,,,,,,P042,fencog,1,Post,2022_May_17_1150,N-Back (New Version 2021),2021.1.4,120.4759765
Conditions/Version_1Pr/threeback(1)_v1.xlsx,New rule: Press 'space' when you see 3-back (i.e. the same letter as the one that appeared 3 letters ago.),a,None,,,,,0,3,3,3,0,4,4,4,,,,,,,,,,,,,,,,,,,,,,,,,,,,,,,,,,,,,,,,,,,1.465,245.7768002,None,247.2452774,None,space,0,247.2452774,None,247.766881,None,0.4952301,,,,,,,,,,,,,,,,,,,,,,,,,,,,,,,P042,fencog,1,Post,2022_May_17_1150,N-Back (New Version 2021),2021.1.4,120.4759765
Conditions/Version_1Pr/threeback(1)_v1.xlsx,New rule: Press 'space' when you see 3-back (i.e. the same letter as the one that appeared 3 letters ago.),Y,None,,,,,0,3,3,3,0,5,5,5,,,,,,,,,,,,,,,,,,,,,,,,,,,,,,,,,,,,,,,,,,,1.39,249.273645,None,250.6713332,None,None,1,250.6713332,None,252.6782754,None,,,,,,,,,,,,,,,,,,,,,,,,,,,,,,,,P042,fencog,1,Post,2022_May_17_1150,N-Back (New Version 2021),2021.1.4,120.4759765
Conditions/Version_1Pr/threeback(1)_v1.xlsx,New rule: Press 'space' when you see 3-back (i.e. the same letter as the one that appeared 3 letters ago.),q,None,,,,,0,3,3,3,0,6,6,6,,,,,,,,,,,,,,,,,,,,,,,,,,,,,,,,,,,,,,,,,,,1.315,254.172195,None,255.4946746,None,None,1,255.4946746,None,257.4962035,None,,,,,,,,,,,,,,,,,,,,,,,,,,,,,,,,P042,fencog,1,Post,2022_May_17_1150,N-Back (New Version 2021),2021.1.4,120.4759765
Conditions/Version_1Pr/threeback(1)_v1.xlsx,New rule: Press 'space' when you see 3-back (i.e. the same letter as the one that appeared 3 letters ago.),A,space,,,,,0,3,3,3,0,7,7,7,,,,,,,,,,,,,,,,,,,,,,,,,,,,,,,,,,,,,,,,,,,1.44,258.995745,None,260.44553,None,None,0,260.44553,None,262.4575391,None,,,,,,,,,,,,,,,,,,,,,,,,,,,,,,,,P042,fencog,1,Post,2022_May_17_1150,N-Back (New Version 2021),2021.1.4,120.4759765
Conditions/Version_1Pr/threeback(1)_v1.xlsx,New rule: Press 'space' when you see 3-back (i.e. the same letter as the one that appeared 3 letters ago.),y,None,,,,,0,3,3,3,0,8,8,8,,,,,,,,,,,,,,,,,,,,,,,,,,,,,,,,,,,,,,,,,,,1.69,263.9442328,None,265.6396734,None,space,0,265.6396734,None,266.4854102,None,0.8207772,,,,,,,,,,,,,,,,,,,,,,,,,,,,,,,P042,fencog,1,Post,2022_May_17_1150,N-Back (New Version 2021),2021.1.4,120.4759765
Conditions/Version_1Pr/threeback(1)_v1.xlsx,New rule: Press 'space' when you see 3-back (i.e. the same letter as the one that appeared 3 letters ago.),r,None,,,,,0,3,3,3,0,9,9,9,,,,,,,,,,,,,,,,,,,,,,,,,,,,,,,,,,,,,,,,,,,1.865,267.9868702,None,269.8559552,None,space,0,269.8559552,None,270.6240758,None,0.7565674,,,,,,,,,,,,,,,,,,,,,,,,,,,,,,,P042,fencog,1,Post,2022_May_17_1150,N-Back (New Version 2021),2021.1.4,120.4759765
Conditions/Version_1Pr/threeback(1)_v1.xlsx,New rule: Press 'space' when you see 3-back (i.e. the same letter as the one that appeared 3 letters ago.),,,,,,,0,3,3,3,,,,,,,,,,,,,,,,,,,,,,,,,,,,,,,,,,,,,,,,,,,,,,,,,,,,,,,,,,,,,,,,,,,,,,,,,,,,,,,,,,,,,,,,,P042,fencog,1,Post,2022_May_17_1150,N-Back (New Version 2021),2021.1.4,120.4759765
,,,,,,,,,,,,,,,,,,,,,,,,,,,,,,,,,,,,,,,,,,,,,,,,,,,,,,,,,,,,,,,,,,,,,,272.1392681,None,space,1.6108272,272.6335829,None,,,,,,,,,,,,,,,,,,,,,,,,,P042,fencog,1,Post,2022_May_17_1150,N-Back (New Version 2021),2021.1.4,120.4759765
,,,,,,,,,,,,,,,,,,,,,,,,,,,,,,,,,,,,,,,,,,,,,,,,,,,,,,,,,,,,,,,,,,,,,,,,,,,,274.2900746,None,space,2.1333671,274.7831953,None,,,,,,,,,,,,,,,,,,,P042,fencog,1,Post,2022_May_17_1150,N-Back (New Version 2021),2021.1.4,120.4759765
,,,,Conditions/Version_1/zeroback(1)_v1.xlsx,Rule: Press 'space' when you see the letter 'x' or 'X'.,b,None,,,,,,,,,0,0,0,0,0,0,0,0,,,,,,,,,,,,,,,,,,,,,,,,,,,,,,,,,,,,,,,,,,,,,,,,,,,,,,,,,,,277.0664097,None,280.0539221,None,space,0.326399,280.0539221,None,277.0664097,None,1.7788,282.2028876,None,None,1,282.2028876,None,,P042,fencog,1,Post,2022_May_17_1150,N-Back (New Version 2021),2021.1.4,120.4759765
,,,,Conditions/Version_1/zeroback(1)_v1.xlsx,Rule: Press 'space' when you see the letter 'x' or 'X'.,T,None,,,,,,,,,0,0,0,0,0,1,1,1,,,,,,,,,,,,,,,,,,,,,,,,,,,,,,,,,,,,,,,,,,,,,,,,,,,,,,,,,,,,,,,,,,,,,1.2704,285.485407,None,None,1,285.485407,None,,P042,fencog,1,Post,2022_May_17_1150,N-Back (New Version 2021),2021.1.4,120.4759765
,,,,Conditions/Version_1/zeroback(1)_v1.xlsx,Rule: Press 'space' when you see the letter 'x' or 'X'.,L,None,,,,,,,,,0,0,0,0,0,2,2,2,,,,,,,,,,,,,,,,,,,,,,,,,,,,,,,,,,,,,,,,,,,,,,,,,,,,,,,,,,,,,,,,,,,,,1.3696,288.8720582,None,None,1,288.8720582,None,,P042,fencog,1,Post,2022_May_17_1150,N-Back (New Version 2021),2021.1.4,120.4759765
,,,,Conditions/Version_1/zeroback(1)_v1.xlsx,Rule: Press 'space' when you see the letter 'x' or 'X'.,x,space,,,,,,,,,0,0,0,0,0,3,3,3,,,,,,,,,,,,,,,,,,,,,,,,,,,,,,,,,,,,,,,,,,,,,,,,,,,,,,,,,,,,,,,,,,,,,1.0348,291.9071193,None,space,1,291.9071193,None,0.329639,P042,fencog,1,Post,2022_May_17_1150,N-Back (New Version 2021),2021.1.4,120.4759765
,,,,Conditions/Version_1/zeroback(1)_v1.xlsx,Rule: Press 'space' when you see the letter 'x' or 'X'.,o,None,,,,,,,,,0,0,0,0,0,4,4,4,,,,,,,,,,,,,,,,,,,,,,,,,,,,,,,,,,,,,,,,,,,,,,,,,,,,,,,,,,,,,,,,,,,,,1.0658,294.9931665,None,None,1,294.9931665,None,,P042,fencog,1,Post,2022_May_17_1150,N-Back (New Version 2021),2021.1.4,120.4759765
,,,,Conditions/Version_1/zeroback(1)_v1.xlsx,Rule: Press 'space' when you see the letter 'x' or 'X'.,P,None,,,,,,,,,0,0,0,0,0,5,5,5,,,,,,,,,,,,,,,,,,,,,,,,,,,,,,,,,,,,,,,,,,,,,,,,,,,,,,,,,,,,,,,,,,,,,1.5618,298.5633382,None,None,1,298.5633382,None,,P042,fencog,1,Post,2022_May_17_1150,N-Back (New Version 2021),2021.1.4,120.4759765
,,,,Conditions/Version_1/zeroback(1)_v1.xlsx,Rule: Press 'space' when you see the letter 'x' or 'X'.,X,space,,,,,,,,,0,0,0,0,0,6,6,6,,,,,,,,,,,,,,,,,,,,,,,,,,,,,,,,,,,,,,,,,,,,,,,,,,,,,,,,,,,,,,,,,,,,,1.6176,302.1838258,None,space,1,302.1838258,None,0.348481,P042,fencog,1,Post,2022_May_17_1150,N-Back (New Version 2021),2021.1.4,120.4759765
,,,,Conditions/Version_1/zeroback(1)_v1.xlsx,Rule: Press 'space' when you see the letter 'x' or 'X'.,n,None,,,,,,,,,0,0,0,0,0,7,7,7,,,,,,,,,,,,,,,,,,,,,,,,,,,,,,,,,,,,,,,,,,,,,,,,,,,,,,,,,,,,,,,,,,,,,1.2952,305.4907356,None,None,1,305.4907356,None,,P042,fencog,1,Post,2022_May_17_1150,N-Back (New Version 2021),2021.1.4,120.4759765
,,,,Conditions/Version_1/zeroback(1)_v1.xlsx,Rule: Press 'space' when you see the letter 'x' or 'X'.,M,None,,,,,,,,,0,0,0,0,0,8,8,8,,,,,,,,,,,,,,,,,,,,,,,,,,,,,,,,,,,,,,,,,,,,,,,,,,,,,,,,,,,,,,,,,,,,,1.9896,309.4872618,None,None,1,309.4872618,None,,P042,fencog,1,Post,2022_May_17_1150,N-Back (New Version 2021),2021.1.4,120.4759765
,,,,Conditions/Version_1/zeroback(1)_v1.xlsx,Rule: Press 'space' when you see the letter 'x' or 'X'.,a,None,,,,,,,,,0,0,0,0,0,9,9,9,,,,,,,,,,,,,,,,,,,,,,,,,,,,,,,,,,,,,,,,,,,,,,,,,,,,,,,,,,,,,,,,,,,,,1.878,313.3652066,None,None,1,313.3652066,None,,P042,fencog,1,Post,2022_May_17_1150,N-Back (New Version 2021),2021.1.4,120.4759765
,,,,Conditions/Version_1/zeroback(1)_v1.xlsx,Rule: Press 'space' when you see the letter 'x' or 'X'.,,,,,,,,,,,0,0,0,0,,,,,,,,,,,,,,,,,,,,,,,,,,,,,,,,,,,,,,,,,,,,,,,,,,,,,,,,,,,,,,,,,,,,,,,,,,,,,,,,,P042,fencog,1,Post,2022_May_17_1150,N-Back (New Version 2021),2021.1.4,120.4759765
,,,,Conditions/Version_1/oneback(1)_v1.xlsx,New rule: Press 'space' when you see 1-back (i.e. the same letter as the one that appeared 1 letter ago.),b,None,,,,,,,,,0,1,1,1,0,0,0,0,,,,,,,,,,,,,,,,,,,,,,,,,,,,,,,,,,,,,,,,,,,,,,,,,,,,,,,,,,,315.4138125,None,318.3982099,None,space,0.5100519,318.3982099,None,315.4138125,None,1.3138,320.2574727,None,None,1,320.2574727,None,,P042,fencog,1,Post,2022_May_17_1150,N-Back (New Version 2021),2021.1.4,120.4759765
,,,,Conditions/Version_1/oneback(1)_v1.xlsx,New rule: Press 'space' when you see 1-back (i.e. the same letter as the one that appeared 1 letter ago.),p,None,,,,,,,,,0,1,1,1,0,1,1,1,,,,,,,,,,,,,,,,,,,,,,,,,,,,,,,,,,,,,,,,,,,,,,,,,,,,,,,,,,,,,,,,,,,,,1.258,323.5310942,None,None,1,323.5310942,None,,P042,fencog,1,Post,2022_May_17_1150,N-Back (New Version 2021),2021.1.4,120.4759765
,,,,Conditions/Version_1/oneback(1)_v1.xlsx,New rule: Press 'space' when you see 1-back (i.e. the same letter as the one that appeared 1 letter ago.),M,None,,,,,,,,,0,1,1,1,0,2,2,2,,,,,,,,,,,,,,,,,,,,,,,,,,,,,,,,,,,,,,,,,,,,,,,,,,,,,,,,,,,,,,,,,,,,,1.1154,326.6544027,None,None,1,326.6544027,None,,P042,fencog,1,Post,2022_May_17_1150,N-Back (New Version 2021),2021.1.4,120.4759765
,,,,Conditions/Version_1/oneback(1)_v1.xlsx,New rule: Press 'space' when you see 1-back (i.e. the same letter as the one that appeared 1 letter ago.),M,space,,,,,,,,,0,1,1,1,0,3,3,3,,,,,,,,,,,,,,,,,,,,,,,,,,,,,,,,,,,,,,,,,,,,,,,,,,,,,,,,,,,,,,,,,,,,,1.2022,329.8669354,None,space,1,329.8669354,None,0.4574528,P042,fencog,1,Post,2022_May_17_1150,N-Back (New Version 2021),2021.1.4,120.4759765
,,,,Conditions/Version_1/oneback(1)_v1.xlsx,New rule: Press 'space' when you see 1-back (i.e. the same letter as the one that appeared 1 letter ago.),n,None,,,,,,,,,0,1,1,1,0,4,4,4,,,,,,,,,,,,,,,,,,,,,,,,,,,,,,,,,,,,,,,,,,,,,,,,,,,,,,,,,,,,,,,,,,,,,1.4192,333.2963945,None,None,1,333.2963945,None,,P042,fencog,1,Post,2022_May_17_1150,N-Back (New Version 2021),2021.1.4,120.4759765
,,,,Conditions/Version_1/oneback(1)_v1.xlsx,New rule: Press 'space' when you see 1-back (i.e. the same letter as the one that appeared 1 letter ago.),g,None,,,,,,,,,0,1,1,1,0,5,5,5,,,,,,,,,,,,,,,,,,,,,,,,,,,,,,,,,,,,,,,,,,,,,,,,,,,,,,,,,,,,,,,,,,,,,1.692,337.003432,None,None,1,337.003432,None,,P042,fencog,1,Post,2022_May_17_1150,N-Back (New Version 2021),2021.1.4,120.4759765
,,,,Conditions/Version_1/oneback(1)_v1.xlsx,New rule: Press 'space' when you see 1-back (i.e. the same letter as the one that appeared 1 letter ago.),P,None,,,,,,,,,0,1,1,1,0,6,6,6,,,,,,,,,,,,,,,,,,,,,,,,,,,,,,,,,,,,,,,,,,,,,,,,,,,,,,,,,,,,,,,,,,,,,1.5866,340.5946315,None,None,1,340.5946315,None,,P042,fencog,1,Post,2022_May_17_1150,N-Back (New Version 2021),2021.1.4,120.4759765
,,,,Conditions/Version_1/oneback(1)_v1.xlsx,New rule: Press 'space' when you see 1-back (i.e. the same letter as the one that appeared 1 letter ago.),o,None,,,,,,,,,0,1,1,1,0,7,7,7,,,,,,,,,,,,,,,,,,,,,,,,,,,,,,,,,,,,,,,,,,,,,,,,,,,,,,,,,,,,,,,,,,,,,1.2208,343.8213066,None,None,1,343.8213066,None,,P042,fencog,1,Post,2022_May_17_1150,N-Back (New Version 2021),2021.1.4,120.4759765
,,,,Conditions/Version_1/oneback(1)_v1.xlsx,New rule: Press 'space' when you see 1-back (i.e. the same letter as the one that appeared 1 letter ago.),f,None,,,,,,,,,0,1,1,1,0,8,8,8,,,,,,,,,,,,,,,,,,,,,,,,,,,,,,,,,,,,,,,,,,,,,,,,,,,,,,,,,,,,,,,,,,,,,1.723,347.5545075,None,None,1,347.5545075,None,,P042,fencog,1,Post,2022_May_17_1150,N-Back (New Version 2021),2021.1.4,120.4759765
,,,,Conditions/Version_1/oneback(1)_v1.xlsx,New rule: Press 'space' when you see 1-back (i.e. the same letter as the one that appeared 1 letter ago.),F,space,,,,,,,,,0,1,1,1,0,9,9,9,,,,,,,,,,,,,,,,,,,,,,,,,,,,,,,,,,,,,,,,,,,,,,,,,,,,,,,,,,,,,,,,,,,,,1.4626,351.0271866,None,space,1,351.0271866,None,0.4731614,P042,fencog,1,Post,2022_May_17_1150,N-Back (New Version 2021),2021.1.4,120.4759765
,,,,Conditions/Version_1/oneback(1)_v1.xlsx,New rule: Press 'space' when you see 1-back (i.e. the same letter as the one that appeared 1 letter ago.),,,,,,,,,,,0,1,1,1,,,,,,,,,,,,,,,,,,,,,,,,,,,,,,,,,,,,,,,,,,,,,,,,,,,,,,,,,,,,,,,,,,,,,,,,,,,,,,,,,P042,fencog,1,Post,2022_May_17_1150,N-Back (New Version 2021),2021.1.4,120.4759765
,,,,Conditions/Version_1/twoback(1)_v1.xlsx,New rule: Press 'space' when you see 2-back (i.e. the same letter as the one that appeared 2 letters ago.),b,None,,,,,,,,,0,2,2,2,0,0,0,0,,,,,,,,,,,,,,,,,,,,,,,,,,,,,,,,,,,,,,,,,,,,,,,,,,,,,,,,,,,353.05459,None,356.0382437,None,space,0.7820014,356.0382437,None,353.05459,None,1.3758,358.2491078,None,None,1,358.2491078,None,,P042,fencog,1,Post,2022_May_17_1150,N-Back (New Version 2021),2021.1.4,120.4759765
,,,,Conditions/Version_1/twoback(1)_v1.xlsx,New rule: Press 'space' when you see 2-back (i.e. the same letter as the one that appeared 2 letters ago.),h,None,,,,,,,,,0,2,2,2,0,1,1,1,,,,,,,,,,,,,,,,,,,,,,,,,,,,,,,,,,,,,,,,,,,,,,,,,,,,,,,,,,,,,,,,,,,,,1.4688,361.7209479,None,None,1,361.7209479,None,,P042,fencog,1,Post,2022_May_17_1150,N-Back (New Version 2021),2021.1.4,120.4759765
,,,,Conditions/Version_1/twoback(1)_v1.xlsx,New rule: Press 'space' when you see 2-back (i.e. the same letter as the one that appeared 2 letters ago.),j,None,,,,,,,,,0,2,2,2,0,2,2,2,,,,,,,,,,,,,,,,,,,,,,,,,,,,,,,,,,,,,,,,,,,,,,,,,,,,,,,,,,,,,,,,,,,,,1.7974,365.5293759,None,None,1,365.5293759,None,,P042,fencog,1,Post,2022_May_17_1150,N-Back (New Version 2021),2021.1.4,120.4759765
,,,,Conditions/Version_1/twoback(1)_v1.xlsx,New rule: Press 'space' when you see 2-back (i.e. the same letter as the one that appeared 2 letters ago.),H,space,,,,,,,,,0,2,2,2,0,3,3,3,,,,,,,,,,,,,,,,,,,,,,,,,,,,,,,,,,,,,,,,,,,,,,,,,,,,,,,,,,,,,,,,,,,,,1.3696,368.914593,None,None,0,368.914593,None,,P042,fencog,1,Post,2022_May_17_1150,N-Back (New Version 2021),2021.1.4,120.4759765
,,,,Conditions/Version_1/twoback(1)_v1.xlsx,New rule: Press 'space' when you see 2-back (i.e. the same letter as the one that appeared 2 letters ago.),p,None,,,,,,,,,0,2,2,2,0,4,4,4,,,,,,,,,,,,,,,,,,,,,,,,,,,,,,,,,,,,,,,,,,,,,,,,,,,,,,,,,,,,,,,,,,,,,1.6858,372.598978,None,None,1,372.598978,None,,P042,fencog,1,Post,2022_May_17_1150,N-Back (New Version 2021),2021.1.4,120.4759765
,,,,Conditions/Version_1/twoback(1)_v1.xlsx,New rule: Press 'space' when you see 2-back (i.e. the same letter as the one that appeared 2 letters ago.),p,None,,,,,,,,,0,2,2,2,0,5,5,5,,,,,,,,,,,,,,,,,,,,,,,,,,,,,,,,,,,,,,,,,,,,,,,,,,,,,,,,,,,,,,,,,,,,,1.5494,376.1541747,None,space,0,376.1541747,None,1.4421851,P042,fencog,1,Post,2022_May_17_1150,N-Back (New Version 2021),2021.1.4,120.4759765
,,,,Conditions/Version_1/twoback(1)_v1.xlsx,New rule: Press 'space' when you see 2-back (i.e. the same letter as the one that appeared 2 letters ago.),w,None,,,,,,,,,0,2,2,2,0,6,6,6,,,,,,,,,,,,,,,,,,,,,,,,,,,,,,,,,,,,,,,,,,,,,,,,,,,,,,,,,,,,,,,,,,,,,1.7726,379.9495687,None,None,1,379.9495687,None,,P042,fencog,1,Post,2022_May_17_1150,N-Back (New Version 2021),2021.1.4,120.4759765
,,,,Conditions/Version_1/twoback(1)_v1.xlsx,New rule: Press 'space' when you see 2-back (i.e. the same letter as the one that appeared 2 letters ago.),R,None,,,,,,,,,0,2,2,2,0,7,7,7,,,,,,,,,,,,,,,,,,,,,,,,,,,,,,,,,,,,,,,,,,,,,,,,,,,,,,,,,,,,,,,,,,,,,1.1836,383.1408194,None,None,1,383.1408194,None,,P042,fencog,1,Post,2022_May_17_1150,N-Back (New Version 2021),2021.1.4,120.4759765
,,,,Conditions/Version_1/twoback(1)_v1.xlsx,New rule: Press 'space' when you see 2-back (i.e. the same letter as the one that appeared 2 letters ago.),a,None,,,,,,,,,0,2,2,2,0,8,8,8,,,,,,,,,,,,,,,,,,,,,,,,,,,,,,,,,,,,,,,,,,,,,,,,,,,,,,,,,,,,,,,,,,,,,1.661,386.8132739,None,None,1,386.8132739,None,,P042,fencog,1,Post,2022_May_17_1150,N-Back (New Version 2021),2021.1.4,120.4759765
,,,,Conditions/Version_1/twoback(1)_v1.xlsx,New rule: Press 'space' when you see 2-back (i.e. the same letter as the one that appeared 2 letters ago.),r,space,,,,,,,,,0,2,2,2,0,9,9,9,,,,,,,,,,,,,,,,,,,,,,,,,,,,,,,,,,,,,,,,,,,,,,,,,,,,,,,,,,,,,,,,,,,,,1.9772,390.8021064,None,space,1,390.8021064,None,0.4742723,P042,fencog,1,Post,2022_May_17_1150,N-Back (New Version 2021),2021.1.4,120.4759765
,,,,Conditions/Version_1/twoback(1)_v1.xlsx,New rule: Press 'space' when you see 2-back (i.e. the same letter as the one that appeared 2 letters ago.),,,,,,,,,,,0,2,2,2,,,,,,,,,,,,,,,,,,,,,,,,,,,,,,,,,,,,,,,,,,,,,,,,,,,,,,,,,,,,,,,,,,,,,,,,,,,,,,,,,P042,fencog,1,Post,2022_May_17_1150,N-Back (New Version 2021),2021.1.4,120.4759765
,,,,Conditions/Version_1/threeback(1)_v1.xlsx,New rule: Press 'space' when you see 3-back (i.e. the same letter as the one that appeared 3 letters ago.),r,None,,,,,,,,,0,3,3,3,0,0,0,0,,,,,,,,,,,,,,,,,,,,,,,,,,,,,,,,,,,,,,,,,,,,,,,,,,,,,,,,,,,392.8420572,None,395.8202286,None,space,0.303925,395.8202286,None,392.8420572,None,1.661,397.8220605,None,None,1,397.8220605,None,,P042,fencog,1,Post,2022_May_17_1150,N-Back (New Version 2021),2021.1.4,120.4759765
,,,,Conditions/Version_1/threeback(1)_v1.xlsx,New rule: Press 'space' when you see 3-back (i.e. the same letter as the one that appeared 3 letters ago.),o,None,,,,,,,,,0,3,3,3,0,1,1,1,,,,,,,,,,,,,,,,,,,,,,,,,,,,,,,,,,,,,,,,,,,,,,,,,,,,,,,,,,,,,,,,,,,,,1.2394,401.0750278,None,None,1,401.0750278,None,,P042,fencog,1,Post,2022_May_17_1150,N-Back (New Version 2021),2021.1.4,120.4759765
,,,,Conditions/Version_1/threeback(1)_v1.xlsx,New rule: Press 'space' when you see 3-back (i.e. the same letter as the one that appeared 3 letters ago.),P,None,,,,,,,,,0,3,3,3,0,2,2,2,,,,,,,,,,,,,,,,,,,,,,,,,,,,,,,,,,,,,,,,,,,,,,,,,,,,,,,,,,,,,,,,,,,,,1.7912,404.8820415,None,None,1,404.8820415,None,,P042,fencog,1,Post,2022_May_17_1150,N-Back (New Version 2021),2021.1.4,120.4759765
,,,,Conditions/Version_1/threeback(1)_v1.xlsx,New rule: Press 'space' when you see 3-back (i.e. the same letter as the one that appeared 3 letters ago.),R,space,,,,,,,,,0,3,3,3,0,3,3,3,,,,,,,,,,,,,,,,,,,,,,,,,,,,,,,,,,,,,,,,,,,,,,,,,,,,,,,,,,,,,,,,,,,,,1.0224,407.9223818,None,space,1,407.9223818,None,0.4899387,P042,fencog,1,Post,2022_May_17_1150,N-Back (New Version 2021),2021.1.4,120.4759765
,,,,Conditions/Version_1/threeback(1)_v1.xlsx,New rule: Press 'space' when you see 3-back (i.e. the same letter as the one that appeared 3 letters ago.),p,None,,,,,,,,,0,3,3,3,0,4,4,4,,,,,,,,,,,,,,,,,,,,,,,,,,,,,,,,,,,,,,,,,,,,,,,,,,,,,,,,,,,,,,,,,,,,,1.1836,411.1243239,None,None,1,411.1243239,None,,P042,fencog,1,Post,2022_May_17_1150,N-Back (New Version 2021),2021.1.4,120.4759765
,,,,Conditions/Version_1/threeback(1)_v1.xlsx,New rule: Press 'space' when you see 3-back (i.e. the same letter as the one that appeared 3 letters ago.),E,None,,,,,,,,,0,3,3,3,0,5,5,5,,,,,,,,,,,,,,,,,,,,,,,,,,,,,,,,,,,,,,,,,,,,,,,,,,,,,,,,,,,,,,,,,,,,,1.2642,414.3960175,None,None,1,414.3960175,None,,P042,fencog,1,Post,2022_May_17_1150,N-Back (New Version 2021),2021.1.4,120.4759765
,,,,Conditions/Version_1/threeback(1)_v1.xlsx,New rule: Press 'space' when you see 3-back (i.e. the same letter as the one that appeared 3 letters ago.),e,None,,,,,,,,,0,3,3,3,0,6,6,6,,,,,,,,,,,,,,,,,,,,,,,,,,,,,,,,,,,,,,,,,,,,,,,,,,,,,,,,,,,,,,,,,,,,,1.8284,418.2340326,None,None,1,418.2340326,None,,P042,fencog,1,Post,2022_May_17_1150,N-Back (New Version 2021),2021.1.4,120.4759765
,,,,Conditions/Version_1/threeback(1)_v1.xlsx,New rule: Press 'space' when you see 3-back (i.e. the same letter as the one that appeared 3 letters ago.),m,None,,,,,,,,,0,3,3,3,0,7,7,7,,,,,,,,,,,,,,,,,,,,,,,,,,,,,,,,,,,,,,,,,,,,,,,,,,,,,,,,,,,,,,,,,,,,,1.227,421.4797749,None,None,1,421.4797749,None,,P042,fencog,1,Post,2022_May_17_1150,N-Back (New Version 2021),2021.1.4,120.4759765
,,,,Conditions/Version_1/threeback(1)_v1.xlsx,New rule: Press 'space' when you see 3-back (i.e. the same letter as the one that appeared 3 letters ago.),n,None,,,,,,,,,0,3,3,3,0,8,8,8,,,,,,,,,,,,,,,,,,,,,,,,,,,,,,,,,,,,,,,,,,,,,,,,,,,,,,,,,,,,,,,,,,,,,1.9152,425.4006938,None,None,1,425.4006938,None,,P042,fencog,1,Post,2022_May_17_1150,N-Back (New Version 2021),2021.1.4,120.4759765
,,,,Conditions/Version_1/threeback(1)_v1.xlsx,New rule: Press 'space' when you see 3-back (i.e. the same letter as the one that appeared 3 letters ago.),e,space,,,,,,,,,0,3,3,3,0,9,9,9,,,,,,,,,,,,,,,,,,,,,,,,,,,,,,,,,,,,,,,,,,,,,,,,,,,,,,,,,,,,,,,,,,,,,1.5742,428.9848954,None,None,0,428.9848954,None,,P042,fencog,1,Post,2022_May_17_1150,N-Back (New Version 2021),2021.1.4,120.4759765
,,,,Conditions/Version_1/threeback(1)_v1.xlsx,New rule: Press 'space' when you see 3-back (i.e. the same letter as the one that appeared 3 letters ago.),,,,,,,,,,,0,3,3,3,,,,,,,,,,,,,,,,,,,,,,,,,,,,,,,,,,,,,,,,,,,,,,,,,,,,,,,,,,,,,,,,,,,,,,,,,,,,,,,,,P042,fencog,1,Post,2022_May_17_1150,N-Back (New Version 2021),2021.1.4,120.4759765
,,,,Conditions/Version_1/oneback(2)_v1.xlsx,New rule: Press 'space' when you see 1-back (i.e. the same letter as the one that appeared 1 letter ago.),q,None,,,,,,,,,0,4,4,4,0,0,0,0,,,,,,,,,,,,,,,,,,,,,,,,,,,,,,,,,,,,,,,,,,,,,,,,,,,,,,,,,,,431.020234,None,433.9984005,None,space,0.493792,433.9984005,None,431.020234,None,1.6114,436.1433969,None,None,1,436.1433969,None,,P042,fencog,1,Post,2022_May_17_1150,N-Back (New Version 2021),2021.1.4,120.4759765
,,,,Conditions/Version_1/oneback(2)_v1.xlsx,New rule: Press 'space' when you see 1-back (i.e. the same letter as the one that appeared 1 letter ago.),Q,space,,,,,,,,,0,4,4,4,0,1,1,1,,,,,,,,,,,,,,,,,,,,,,,,,,,,,,,,,,,,,,,,,,,,,,,,,,,,,,,,,,,,,,,,,,,,,1.103,439.2669838,None,space,1,439.2669838,None,0.6092677,P042,fencog,1,Post,2022_May_17_1150,N-Back (New Version 2021),2021.1.4,120.4759765
,,,,Conditions/Version_1/oneback(2)_v1.xlsx,New rule: Press 'space' when you see 1-back (i.e. the same letter as the one that appeared 1 letter ago.),P,None,,,,,,,,,0,4,4,4,0,2,2,2,,,,,,,,,,,,,,,,,,,,,,,,,,,,,,,,,,,,,,,,,,,,,,,,,,,,,,,,,,,,,,,,,,,,,1.9524,443.2309036,None,None,1,443.2309036,None,,P042,fencog,1,Post,2022_May_17_1150,N-Back (New Version 2021),2021.1.4,120.4759765
,,,,Conditions/Version_1/oneback(2)_v1.xlsx,New rule: Press 'space' when you see 1-back (i.e. the same letter as the one that appeared 1 letter ago.),o,None,,,,,,,,,0,4,4,4,0,3,3,3,,,,,,,,,,,,,,,,,,,,,,,,,,,,,,,,,,,,,,,,,,,,,,,,,,,,,,,,,,,,,,,,,,,,,1.1216,446.3621197,None,None,1,446.3621197,None,,P042,fencog,1,Post,2022_May_17_1150,N-Back (New Version 2021),2021.1.4,120.4759765
,,,,Conditions/Version_1/oneback(2)_v1.xlsx,New rule: Press 'space' when you see 1-back (i.e. the same letter as the one that appeared 1 letter ago.),m,None,,,,,,,,,0,4,4,4,0,4,4,4,,,,,,,,,,,,,,,,,,,,,,,,,,,,,,,,,,,,,,,,,,,,,,,,,,,,,,,,,,,,,,,,,,,,,1.3758,449.7520586,None,None,1,449.7520586,None,,P042,fencog,1,Post,2022_May_17_1150,N-Back (New Version 2021),2021.1.4,120.4759765
,,,,Conditions/Version_1/oneback(2)_v1.xlsx,New rule: Press 'space' when you see 1-back (i.e. the same letter as the one that appeared 1 letter ago.),Z,None,,,,,,,,,0,4,4,4,0,5,5,5,,,,,,,,,,,,,,,,,,,,,,,,,,,,,,,,,,,,,,,,,,,,,,,,,,,,,,,,,,,,,,,,,,,,,1.8718,453.6340063,None,None,1,453.6340063,None,,P042,fencog,1,Post,2022_May_17_1150,N-Back (New Version 2021),2021.1.4,120.4759765
,,,,Conditions/Version_1/oneback(2)_v1.xlsx,New rule: Press 'space' when you see 1-back (i.e. the same letter as the one that appeared 1 letter ago.),c,None,,,,,,,,,0,4,4,4,0,6,6,6,,,,,,,,,,,,,,,,,,,,,,,,,,,,,,,,,,,,,,,,,,,,,,,,,,,,,,,,,,,,,,,,,,,,,1.1588,456.7954606,None,None,1,456.7954606,None,,P042,fencog,1,Post,2022_May_17_1150,N-Back (New Version 2021),2021.1.4,120.4759765
,,,,Conditions/Version_1/oneback(2)_v1.xlsx,New rule: Press 'space' when you see 1-back (i.e. the same letter as the one that appeared 1 letter ago.),c,space,,,,,,,,,0,4,4,4,0,7,7,7,,,,,,,,,,,,,,,,,,,,,,,,,,,,,,,,,,,,,,,,,,,,,,,,,,,,,,,,,,,,,,,,,,,,,1.5184,460.3205113,None,space,1,460.3205113,None,0.3156647,P042,fencog,1,Post,2022_May_17_1150,N-Back (New Version 2021),2021.1.4,120.4759765
,,,,Conditions/Version_1/oneback(2)_v1.xlsx,New rule: Press 'space' when you see 1-back (i.e. the same letter as the one that appeared 1 letter ago.),P,None,,,,,,,,,0,4,4,4,0,8,8,8,,,,,,,,,,,,,,,,,,,,,,,,,,,,,,,,,,,,,,,,,,,,,,,,,,,,,,,,,,,,,,,,,,,,,1.0906,463.4227665,None,None,1,463.4227665,None,,P042,fencog,1,Post,2022_May_17_1150,N-Back (New Version 2021),2021.1.4,120.4759765
,,,,Conditions/Version_1/oneback(2)_v1.xlsx,New rule: Press 'space' when you see 1-back (i.e. the same letter as the one that appeared 1 letter ago.),p,space,,,,,,,,,0,4,4,4,0,9,9,9,,,,,,,,,,,,,,,,,,,,,,,,,,,,,,,,,,,,,,,,,,,,,,,,,,,,,,,,,,,,,,,,,,,,,1.2952,466.7212674,None,space,1,466.7212674,None,0.4191123,P042,fencog,1,Post,2022_May_17_1150,N-Back (New Version 2021),2021.1.4,120.4759765
,,,,Conditions/Version_1/oneback(2)_v1.xlsx,New rule: Press 'space' when you see 1-back (i.e. the same letter as the one that appeared 1 letter ago.),,,,,,,,,,,0,4,4,4,,,,,,,,,,,,,,,,,,,,,,,,,,,,,,,,,,,,,,,,,,,,,,,,,,,,,,,,,,,,,,,,,,,,,,,,,,,,,,,,,P042,fencog,1,Post,2022_May_17_1150,N-Back (New Version 2021),2021.1.4,120.4759765
,,,,Conditions/Version_1/zeroback(2)_v1.xlsx,New rule: Press 'space' when you see the letter 'x' or 'X'.,p,None,,,,,,,,,0,5,5,5,0,0,0,0,,,,,,,,,,,,,,,,,,,,,,,,,,,,,,,,,,,,,,,,,,,,,,,,,,,,,,,,,,,468.7597859,None,471.7463785,None,space,0.3137651,471.7463785,None,468.7597859,None,1.9462,474.0750892,None,None,1,474.0750892,None,,P042,fencog,1,Post,2022_May_17_1150,N-Back (New Version 2021),2021.1.4,120.4759765
,,,,Conditions/Version_1/zeroback(2)_v1.xlsx,New rule: Press 'space' when you see the letter 'x' or 'X'.,L,None,,,,,,,,,0,5,5,5,0,1,1,1,,,,,,,,,,,,,,,,,,,,,,,,,,,,,,,,,,,,,,,,,,,,,,,,,,,,,,,,,,,,,,,,,,,,,1.63,477.7188158,None,None,1,477.7188158,None,,P042,fencog,1,Post,2022_May_17_1150,N-Back (New Version 2021),2021.1.4,120.4759765
,,,,Conditions/Version_1/zeroback(2)_v1.xlsx,New rule: Press 'space' when you see the letter 'x' or 'X'.,G,None,,,,,,,,,0,5,5,5,0,2,2,2,,,,,,,,,,,,,,,,,,,,,,,,,,,,,,,,,,,,,,,,,,,,,,,,,,,,,,,,,,,,,,,,,,,,,1.9772,481.7030351,None,None,1,481.7030351,None,,P042,fencog,1,Post,2022_May_17_1150,N-Back (New Version 2021),2021.1.4,120.4759765
,,,,Conditions/Version_1/zeroback(2)_v1.xlsx,New rule: Press 'space' when you see the letter 'x' or 'X'.,y,None,,,,,,,,,0,5,5,5,0,3,3,3,,,,,,,,,,,,,,,,,,,,,,,,,,,,,,,,,,,,,,,,,,,,,,,,,,,,,,,,,,,,,,,,,,,,,1.909,485.618314,None,None,1,485.618314,None,,P042,fencog,1,Post,2022_May_17_1150,N-Back (New Version 2021),2021.1.4,120.4759765
,,,,Conditions/Version_1/zeroback(2)_v1.xlsx,New rule: Press 'space' when you see the letter 'x' or 'X'.,Y,None,,,,,,,,,0,5,5,5,0,4,4,4,,,,,,,,,,,,,,,,,,,,,,,,,,,,,,,,,,,,,,,,,,,,,,,,,,,,,,,,,,,,,,,,,,,,,1.8098,489.4423188,None,space,0,489.4423188,None,0.841842,P042,fencog,1,Post,2022_May_17_1150,N-Back (New Version 2021),2021.1.4,120.4759765
,,,,Conditions/Version_1/zeroback(2)_v1.xlsx,New rule: Press 'space' when you see the letter 'x' or 'X'.,W,None,,,,,,,,,0,5,5,5,0,5,5,5,,,,,,,,,,,,,,,,,,,,,,,,,,,,,,,,,,,,,,,,,,,,,,,,,,,,,,,,,,,,,,,,,,,,,1.3138,492.7676741,None,None,1,492.7676741,None,,P042,fencog,1,Post,2022_May_17_1150,N-Back (New Version 2021),2021.1.4,120.4759765
,,,,Conditions/Version_1/zeroback(2)_v1.xlsx,New rule: Press 'space' when you see the letter 'x' or 'X'.,x,space,,,,,,,,,0,5,5,5,0,6,6,6,,,,,,,,,,,,,,,,,,,,,,,,,,,,,,,,,,,,,,,,,,,,,,,,,,,,,,,,,,,,,,,,,,,,,1.1464,495.9130026,None,space,1,495.9130026,None,0.4111706,P042,fencog,1,Post,2022_May_17_1150,N-Back (New Version 2021),2021.1.4,120.4759765
,,,,Conditions/Version_1/zeroback(2)_v1.xlsx,New rule: Press 'space' when you see the letter 'x' or 'X'.,X,space,,,,,,,,,0,5,5,5,0,7,7,7,,,,,,,,,,,,,,,,,,,,,,,,,,,,,,,,,,,,,,,,,,,,,,,,,,,,,,,,,,,,,,,,,,,,,1.5618,499.4913943,None,space,1,499.4913943,None,0.3928587,P042,fencog,1,Post,2022_May_17_1150,N-Back (New Version 2021),2021.1.4,120.4759765
,,,,Conditions/Version_1/zeroback(2)_v1.xlsx,New rule: Press 'space' when you see the letter 'x' or 'X'.,p,None,,,,,,,,,0,5,5,5,0,8,8,8,,,,,,,,,,,,,,,,,,,,,,,,,,,,,,,,,,,,,,,,,,,,,,,,,,,,,,,,,,,,,,,,,,,,,1.816,503.3215905,None,None,1,503.3215905,None,,P042,fencog,1,Post,2022_May_17_1150,N-Back (New Version 2021),2021.1.4,120.4759765
,,,,Conditions/Version_1/zeroback(2)_v1.xlsx,New rule: Press 'space' when you see the letter 'x' or 'X'.,h,None,,,,,,,,,0,5,5,5,0,9,9,9,,,,,,,,,,,,,,,,,,,,,,,,,,,,,,,,,,,,,,,,,,,,,,,,,,,,,,,,,,,,,,,,,,,,,1.1774,506.510214,None,None,1,506.510214,None,,P042,fencog,1,Post,2022_May_17_1150,N-Back (New Version 2021),2021.1.4,120.4759765
,,,,Conditions/Version_1/zeroback(2)_v1.xlsx,New rule: Press 'space' when you see the letter 'x' or 'X'.,,,,,,,,,,,0,5,5,5,,,,,,,,,,,,,,,,,,,,,,,,,,,,,,,,,,,,,,,,,,,,,,,,,,,,,,,,,,,,,,,,,,,,,,,,,,,,,,,,,P042,fencog,1,Post,2022_May_17_1150,N-Back (New Version 2021),2021.1.4,120.4759765
,,,,Conditions/Version_1/threeback(2)_v1.xlsx,New rule: Press 'space' when you see 3-back (i.e. the same letter as the one that appeared 3 letters ago.),q,None,,,,,,,,,0,6,6,6,0,0,0,0,,,,,,,,,,,,,,,,,,,,,,,,,,,,,,,,,,,,,,,,,,,,,,,,,,,,,,,,,,,508.5516015,None,511.525671,None,space,0.2704909,511.525671,None,508.5516015,None,1.041,512.8851425,None,None,1,512.8851425,None,,P042,fencog,1,Post,2022_May_17_1150,N-Back (New Version 2021),2021.1.4,120.4759765
,,,,Conditions/Version_1/threeback(2)_v1.xlsx,New rule: Press 'space' when you see 3-back (i.e. the same letter as the one that appeared 3 letters ago.),Y,None,,,,,,,,,0,6,6,6,0,1,1,1,,,,,,,,,,,,,,,,,,,,,,,,,,,,,,,,,,,,,,,,,,,,,,,,,,,,,,,,,,,,,,,,,,,,,1.4626,516.3527426,None,None,1,516.3527426,None,,P042,fencog,1,Post,2022_May_17_1150,N-Back (New Version 2021),2021.1.4,120.4759765
,,,,Conditions/Version_1/threeback(2)_v1.xlsx,New rule: Press 'space' when you see 3-back (i.e. the same letter as the one that appeared 3 letters ago.),p,None,,,,,,,,,0,6,6,6,0,2,2,2,,,,,,,,,,,,,,,,,,,,,,,,,,,,,,,,,,,,,,,,,,,,,,,,,,,,,,,,,,,,,,,,,,,,,1.5246,519.8917695,None,None,1,519.8917695,None,,P042,fencog,1,Post,2022_May_17_1150,N-Back (New Version 2021),2021.1.4,120.4759765
,,,,Conditions/Version_1/threeback(2)_v1.xlsx,New rule: Press 'space' when you see 3-back (i.e. the same letter as the one that appeared 3 letters ago.),p,None,,,,,,,,,0,6,6,6,0,3,3,3,,,,,,,,,,,,,,,,,,,,,,,,,,,,,,,,,,,,,,,,,,,,,,,,,,,,,,,,,,,,,,,,,,,,,1.5122,523.4104983,None,None,1,523.4104983,None,,P042,fencog,1,Post,2022_May_17_1150,N-Back (New Version 2021),2021.1.4,120.4759765
,,,,Conditions/Version_1/threeback(2)_v1.xlsx,New rule: Press 'space' when you see 3-back (i.e. the same letter as the one that appeared 3 letters ago.),y,space,,,,,,,,,0,6,6,6,0,4,4,4,,,,,,,,,,,,,,,,,,,,,,,,,,,,,,,,,,,,,,,,,,,,,,,,,,,,,,,,,,,,,,,,,,,,,1.6734,527.0949398,None,space,1,527.0949398,None,1.2613183,P042,fencog,1,Post,2022_May_17_1150,N-Back (New Version 2021),2021.1.4,120.4759765
,,,,Conditions/Version_1/threeback(2)_v1.xlsx,New rule: Press 'space' when you see 3-back (i.e. the same letter as the one that appeared 3 letters ago.),u,None,,,,,,,,,0,6,6,6,0,5,5,5,,,,,,,,,,,,,,,,,,,,,,,,,,,,,,,,,,,,,,,,,,,,,,,,,,,,,,,,,,,,,,,,,,,,,1.6114,530.7195658,None,None,1,530.7195658,None,,P042,fencog,1,Post,2022_May_17_1150,N-Back (New Version 2021),2021.1.4,120.4759765
,,,,Conditions/Version_1/threeback(2)_v1.xlsx,New rule: Press 'space' when you see 3-back (i.e. the same letter as the one that appeared 3 letters ago.),P,space,,,,,,,,,0,6,6,6,0,6,6,6,,,,,,,,,,,,,,,,,,,,,,,,,,,,,,,,,,,,,,,,,,,,,,,,,,,,,,,,,,,,,,,,,,,,,1.7106,534.4344326,None,space,1,534.4344326,None,1.9300063,P042,fencog,1,Post,2022_May_17_1150,N-Back (New Version 2021),2021.1.4,120.4759765
,,,,Conditions/Version_1/threeback(2)_v1.xlsx,New rule: Press 'space' when you see 3-back (i.e. the same letter as the one that appeared 3 letters ago.),a,None,,,,,,,,,0,6,6,6,0,7,7,7,,,,,,,,,,,,,,,,,,,,,,,,,,,,,,,,,,,,,,,,,,,,,,,,,,,,,,,,,,,,,,,,,,,,,1.661,538.1106459,None,None,1,538.1106459,None,,P042,fencog,1,Post,2022_May_17_1150,N-Back (New Version 2021),2021.1.4,120.4759765
,,,,Conditions/Version_1/threeback(2)_v1.xlsx,New rule: Press 'space' when you see 3-back (i.e. the same letter as the one that appeared 3 letters ago.),U,space,,,,,,,,,0,6,6,6,0,8,8,8,,,,,,,,,,,,,,,,,,,,,,,,,,,,,,,,,,,,,,,,,,,,,,,,,,,,,,,,,,,,,,,,,,,,,1.9462,542.0750598,None,space,1,542.0750598,None,0.3451251,P042,fencog,1,Post,2022_May_17_1150,N-Back (New Version 2021),2021.1.4,120.4759765
,,,,Conditions/Version_1/threeback(2)_v1.xlsx,New rule: Press 'space' when you see 3-back (i.e. the same letter as the one that appeared 3 letters ago.),q,None,,,,,,,,,0,6,6,6,0,9,9,9,,,,,,,,,,,,,,,,,,,,,,,,,,,,,,,,,,,,,,,,,,,,,,,,,,,,,,,,,,,,,,,,,,,,,1.5308,545.6086998,None,None,1,545.6086998,None,,P042,fencog,1,Post,2022_May_17_1150,N-Back (New Version 2021),2021.1.4,120.4759765
,,,,Conditions/Version_1/threeback(2)_v1.xlsx,New rule: Press 'space' when you see 3-back (i.e. the same letter as the one that appeared 3 letters ago.),,,,,,,,,,,0,6,6,6,,,,,,,,,,,,,,,,,,,,,,,,,,,,,,,,,,,,,,,,,,,,,,,,,,,,,,,,,,,,,,,,,,,,,,,,,,,,,,,,,P042,fencog,1,Post,2022_May_17_1150,N-Back (New Version 2021),2021.1.4,120.4759765
,,,,Conditions/Version_1/twoback(2)_v1.xlsx,New rule: Press 'space' when you see 2-back (i.e. the same letter as the one that appeared 2 letters ago.),q,None,,,,,,,,,0,7,7,7,0,0,0,0,,,,,,,,,,,,,,,,,,,,,,,,,,,,,,,,,,,,,,,,,,,,,,,,,,,,,,,,,,,547.6357096,None,550.6164442,None,space,0.3639099,550.6164442,None,547.6357096,None,1.5928,552.6096374,None,None,1,552.6096374,None,,P042,fencog,1,Post,2022_May_17_1150,N-Back (New Version 2021),2021.1.4,120.4759765
,,,,Conditions/Version_1/twoback(2)_v1.xlsx,New rule: Press 'space' when you see 2-back (i.e. the same letter as the one that appeared 2 letters ago.),r,None,,,,,,,,,0,7,7,7,0,1,1,1,,,,,,,,,,,,,,,,,,,,,,,,,,,,,,,,,,,,,,,,,,,,,,,,,,,,,,,,,,,,,,,,,,,,,1.9586,556.5794392,None,None,1,556.5794392,None,,P042,fencog,1,Post,2022_May_17_1150,N-Back (New Version 2021),2021.1.4,120.4759765
,,,,Conditions/Version_1/twoback(2)_v1.xlsx,New rule: Press 'space' when you see 2-back (i.e. the same letter as the one that appeared 2 letters ago.),q,space,,,,,,,,,0,7,7,7,0,2,2,2,,,,,,,,,,,,,,,,,,,,,,,,,,,,,,,,,,,,,,,,,,,,,,,,,,,,,,,,,,,,,,,,,,,,,1.3944,559.9738709,None,space,1,559.9738709,None,0.4625102,P042,fencog,1,Post,2022_May_17_1150,N-Back (New Version 2021),2021.1.4,120.4759765
,,,,Conditions/Version_1/twoback(2)_v1.xlsx,New rule: Press 'space' when you see 2-back (i.e. the same letter as the one that appeared 2 letters ago.),P,None,,,,,,,,,0,7,7,7,0,3,3,3,,,,,,,,,,,,,,,,,,,,,,,,,,,,,,,,,,,,,,,,,,,,,,,,,,,,,,,,,,,,,,,,,,,,,1.816,563.8034408,None,None,1,563.8034408,None,,P042,fencog,1,Post,2022_May_17_1150,N-Back (New Version 2021),2021.1.4,120.4759765
,,,,Conditions/Version_1/twoback(2)_v1.xlsx,New rule: Press 'space' when you see 2-back (i.e. the same letter as the one that appeared 2 letters ago.),p,None,,,,,,,,,0,7,7,7,0,4,4,4,,,,,,,,,,,,,,,,,,,,,,,,,,,,,,,,,,,,,,,,,,,,,,,,,,,,,,,,,,,,,,,,,,,,,1.0286,566.84238,None,None,1,566.84238,None,,P042,fencog,1,Post,2022_May_17_1150,N-Back (New Version 2021),2021.1.4,120.4759765
,,,,Conditions/Version_1/twoback(2)_v1.xlsx,New rule: Press 'space' when you see 2-back (i.e. the same letter as the one that appeared 2 letters ago.),H,None,,,,,,,,,0,7,7,7,0,5,5,5,,,,,,,,,,,,,,,,,,,,,,,,,,,,,,,,,,,,,,,,,,,,,,,,,,,,,,,,,,,,,,,,,,,,,1.5184,570.3758542,None,None,1,570.3758542,None,,P042,fencog,1,Post,2022_May_17_1150,N-Back (New Version 2021),2021.1.4,120.4759765
,,,,Conditions/Version_1/twoback(2)_v1.xlsx,New rule: Press 'space' when you see 2-back (i.e. the same letter as the one that appeared 2 letters ago.),g,None,,,,,,,,,0,7,7,7,0,6,6,6,,,,,,,,,,,,,,,,,,,,,,,,,,,,,,,,,,,,,,,,,,,,,,,,,,,,,,,,,,,,,,,,,,,,,1.4068,573.7971315,None,None,1,573.7971315,None,,P042,fencog,1,Post,2022_May_17_1150,N-Back (New Version 2021),2021.1.4,120.4759765
,,,,Conditions/Version_1/twoback(2)_v1.xlsx,New rule: Press 'space' when you see 2-back (i.e. the same letter as the one that appeared 2 letters ago.),j,None,,,,,,,,,0,7,7,7,0,7,7,7,,,,,,,,,,,,,,,,,,,,,,,,,,,,,,,,,,,,,,,,,,,,,,,,,,,,,,,,,,,,,,,,,,,,,1.103,576.9099077,None,None,1,576.9099077,None,,P042,fencog,1,Post,2022_May_17_1150,N-Back (New Version 2021),2021.1.4,120.4759765
,,,,Conditions/Version_1/twoback(2)_v1.xlsx,New rule: Press 'space' when you see 2-back (i.e. the same letter as the one that appeared 2 letters ago.),g,space,,,,,,,,,0,7,7,7,0,8,8,8,,,,,,,,,,,,,,,,,,,,,,,,,,,,,,,,,,,,,,,,,,,,,,,,,,,,,,,,,,,,,,,,,,,,,1.3262,580.2488089,None,space,1,580.2488089,None,0.4674632,P042,fencog,1,Post,2022_May_17_1150,N-Back (New Version 2021),2021.1.4,120.4759765
,,,,Conditions/Version_1/twoback(2)_v1.xlsx,New rule: Press 'space' when you see 2-back (i.e. the same letter as the one that appeared 2 letters ago.),G,None,,,,,,,,,0,7,7,7,0,9,9,9,,,,,,,,,,,,,,,,,,,,,,,,,,,,,,,,,,,,,,,,,,,,,,,,,,,,,,,,,,,,,,,,,,,,,1.506,583.7640922,None,None,1,583.7640922,None,,P042,fencog,1,Post,2022_May_17_1150,N-Back (New Version 2021),2021.1.4,120.4759765
,,,,Conditions/Version_1/twoback(2)_v1.xlsx,New rule: Press 'space' when you see 2-back (i.e. the same letter as the one that appeared 2 letters ago.),,,,,,,,,,,0,7,7,7,,,,,,,,,,,,,,,,,,,,,,,,,,,,,,,,,,,,,,,,,,,,,,,,,,,,,,,,,,,,,,,,,,,,,,,,,,,,,,,,,P042,fencog,1,Post,2022_May_17_1150,N-Back (New Version 2021),2021.1.4,120.4759765
,,,,Conditions/Version_1/threeback(3)_v1.xlsx,New rule: Press 'space' when you see 3-back (i.e. the same letter as the one that appeared 3 letters ago.),w,None,,,,,,,,,0,8,8,8,0,0,0,0,,,,,,,,,,,,,,,,,,,,,,,,,,,,,,,,,,,,,,,,,,,,,,,,,,,,,,,,,,,585.7992388,None,588.7779576,None,space,0.266104,588.7779576,None,585.7992388,None,1.5432,590.6350653,None,None,1,590.6350653,None,,P042,fencog,1,Post,2022_May_17_1150,N-Back (New Version 2021),2021.1.4,120.4759765
,,,,Conditions/Version_1/threeback(3)_v1.xlsx,New rule: Press 'space' when you see 3-back (i.e. the same letter as the one that appeared 3 letters ago.),p,None,,,,,,,,,0,8,8,8,0,1,1,1,,,,,,,,,,,,,,,,,,,,,,,,,,,,,,,,,,,,,,,,,,,,,,,,,,,,,,,,,,,,,,,,,,,,,1.8222,594.4631871,None,None,1,594.4631871,None,,P042,fencog,1,Post,2022_May_17_1150,N-Back (New Version 2021),2021.1.4,120.4759765
,,,,Conditions/Version_1/threeback(3)_v1.xlsx,New rule: Press 'space' when you see 3-back (i.e. the same letter as the one that appeared 3 letters ago.),P,None,,,,,,,,,0,8,8,8,0,2,2,2,,,,,,,,,,,,,,,,,,,,,,,,,,,,,,,,,,,,,,,,,,,,,,,,,,,,,,,,,,,,,,,,,,,,,1.289,597.7661867,None,None,1,597.7661867,None,,P042,fencog,1,Post,2022_May_17_1150,N-Back (New Version 2021),2021.1.4,120.4759765
,,,,Conditions/Version_1/threeback(3)_v1.xlsx,New rule: Press 'space' when you see 3-back (i.e. the same letter as the one that appeared 3 letters ago.),i,None,,,,,,,,,0,8,8,8,0,3,3,3,,,,,,,,,,,,,,,,,,,,,,,,,,,,,,,,,,,,,,,,,,,,,,,,,,,,,,,,,,,,,,,,,,,,,1.0348,600.8180479,None,None,1,600.8180479,None,,P042,fencog,1,Post,2022_May_17_1150,N-Back (New Version 2021),2021.1.4,120.4759765
,,,,Conditions/Version_1/threeback(3)_v1.xlsx,New rule: Press 'space' when you see 3-back (i.e. the same letter as the one that appeared 3 letters ago.),f,None,,,,,,,,,0,8,8,8,0,4,4,4,,,,,,,,,,,,,,,,,,,,,,,,,,,,,,,,,,,,,,,,,,,,,,,,,,,,,,,,,,,,,,,,,,,,,1.878,604.707615,None,None,1,604.707615,None,,P042,fencog,1,Post,2022_May_17_1150,N-Back (New Version 2021),2021.1.4,120.4759765
,,,,Conditions/Version_1/threeback(3)_v1.xlsx,New rule: Press 'space' when you see 3-back (i.e. the same letter as the one that appeared 3 letters ago.),o,None,,,,,,,,,0,8,8,8,0,5,5,5,,,,,,,,,,,,,,,,,,,,,,,,,,,,,,,,,,,,,,,,,,,,,,,,,,,,,,,,,,,,,,,,,,,,,1.4316,608.157408,None,None,1,608.157408,None,,P042,fencog,1,Post,2022_May_17_1150,N-Back (New Version 2021),2021.1.4,120.4759765
,,,,Conditions/Version_1/threeback(3)_v1.xlsx,New rule: Press 'space' when you see 3-back (i.e. the same letter as the one that appeared 3 letters ago.),w,None,,,,,,,,,0,8,8,8,0,6,6,6,,,,,,,,,,,,,,,,,,,,,,,,,,,,,,,,,,,,,,,,,,,,,,,,,,,,,,,,,,,,,,,,,,,,,1.9586,612.1319364,None,None,1,612.1319364,None,,P042,fencog,1,Post,2022_May_17_1150,N-Back (New Version 2021),2021.1.4,120.4759765
,,,,Conditions/Version_1/threeback(3)_v1.xlsx,New rule: Press 'space' when you see 3-back (i.e. the same letter as the one that appeared 3 letters ago.),F,space,,,,,,,,,0,8,8,8,0,7,7,7,,,,,,,,,,,,,,,,,,,,,,,,,,,,,,,,,,,,,,,,,,,,,,,,,,,,,,,,,,,,,,,,,,,,,1.8532,615.9944257,None,space,1,615.9944257,None,0.4978581,P042,fencog,1,Post,2022_May_17_1150,N-Back (New Version 2021),2021.1.4,120.4759765
,,,,Conditions/Version_1/threeback(3)_v1.xlsx,New rule: Press 'space' when you see 3-back (i.e. the same letter as the one that appeared 3 letters ago.),p,None,,,,,,,,,0,8,8,8,0,8,8,8,,,,,,,,,,,,,,,,,,,,,,,,,,,,,,,,,,,,,,,,,,,,,,,,,,,,,,,,,,,,,,,,,,,,,1.2084,619.2208572,None,None,1,619.2208572,None,,P042,fencog,1,Post,2022_May_17_1150,N-Back (New Version 2021),2021.1.4,120.4759765
,,,,Conditions/Version_1/threeback(3)_v1.xlsx,New rule: Press 'space' when you see 3-back (i.e. the same letter as the one that appeared 3 letters ago.),W,space,,,,,,,,,0,8,8,8,0,9,9,9,,,,,,,,,,,,,,,,,,,,,,,,,,,,,,,,,,,,,,,,,,,,,,,,,,,,,,,,,,,,,,,,,,,,,1.351,622.5757303,None,space,1,622.5757303,None,1.0603439,P042,fencog,1,Post,2022_May_17_1150,N-Back (New Version 2021),2021.1.4,120.4759765
,,,,Conditions/Version_1/threeback(3)_v1.xlsx,New rule: Press 'space' when you see 3-back (i.e. the same letter as the one that appeared 3 letters ago.),,,,,,,,,,,0,8,8,8,,,,,,,,,,,,,,,,,,,,,,,,,,,,,,,,,,,,,,,,,,,,,,,,,,,,,,,,,,,,,,,,,,,,,,,,,,,,,,,,,P042,fencog,1,Post,2022_May_17_1150,N-Back (New Version 2021),2021.1.4,120.4759765
,,,,Conditions/Version_1/zeroback(3)_v1.xlsx,New rule: Press 'space' when you see the letter 'x' or 'X'.,X,space,,,,,,,,,0,9,9,9,0,0,0,0,,,,,,,,,,,,,,,,,,,,,,,,,,,,,,,,,,,,,,,,,,,,,,,,,,,,,,,,,,,624.6148692,None,627.598543,None,space,0.2695613,627.598543,None,624.6148692,None,1.754,629.6652913,None,space,1,629.6652913,None,0.354775,P042,fencog,1,Post,2022_May_17_1150,N-Back (New Version 2021),2021.1.4,120.4759765
,,,,Conditions/Version_1/zeroback(3)_v1.xlsx,New rule: Press 'space' when you see the letter 'x' or 'X'.,B,None,,,,,,,,,0,9,9,9,0,1,1,1,,,,,,,,,,,,,,,,,,,,,,,,,,,,,,,,,,,,,,,,,,,,,,,,,,,,,,,,,,,,,,,,,,,,,1.0286,632.7073817,None,None,1,632.7073817,None,,P042,fencog,1,Post,2022_May_17_1150,N-Back (New Version 2021),2021.1.4,120.4759765
,,,,Conditions/Version_1/zeroback(3)_v1.xlsx,New rule: Press 'space' when you see the letter 'x' or 'X'.,m,None,,,,,,,,,0,9,9,9,0,2,2,2,,,,,,,,,,,,,,,,,,,,,,,,,,,,,,,,,,,,,,,,,,,,,,,,,,,,,,,,,,,,,,,,,,,,,1.072,635.7889387,None,None,1,635.7889387,None,,P042,fencog,1,Post,2022_May_17_1150,N-Back (New Version 2021),2021.1.4,120.4759765
,,,,Conditions/Version_1/zeroback(3)_v1.xlsx,New rule: Press 'space' when you see the letter 'x' or 'X'.,m,None,,,,,,,,,0,9,9,9,0,3,3,3,,,,,,,,,,,,,,,,,,,,,,,,,,,,,,,,,,,,,,,,,,,,,,,,,,,,,,,,,,,,,,,,,,,,,1.4502,639.2421018,None,None,1,639.2421018,None,,P042,fencog,1,Post,2022_May_17_1150,N-Back (New Version 2021),2021.1.4,120.4759765
,,,,Conditions/Version_1/zeroback(3)_v1.xlsx,New rule: Press 'space' when you see the letter 'x' or 'X'.,o,None,,,,,,,,,0,9,9,9,0,4,4,4,,,,,,,,,,,,,,,,,,,,,,,,,,,,,,,,,,,,,,,,,,,,,,,,,,,,,,,,,,,,,,,,,,,,,1.9462,643.1946827,None,None,1,643.1946827,None,,P042,fencog,1,Post,2022_May_17_1150,N-Back (New Version 2021),2021.1.4,120.4759765
,,,,Conditions/Version_1/zeroback(3)_v1.xlsx,New rule: Press 'space' when you see the letter 'x' or 'X'.,p,None,,,,,,,,,0,9,9,9,0,5,5,5,,,,,,,,,,,,,,,,,,,,,,,,,,,,,,,,,,,,,,,,,,,,,,,,,,,,,,,,,,,,,,,,,,,,,1.0596,646.2600528,None,None,1,646.2600528,None,,P042,fencog,1,Post,2022_May_17_1150,N-Back (New Version 2021),2021.1.4,120.4759765
,,,,Conditions/Version_1/zeroback(3)_v1.xlsx,New rule: Press 'space' when you see the letter 'x' or 'X'.,G,None,,,,,,,,,0,9,9,9,0,6,6,6,,,,,,,,,,,,,,,,,,,,,,,,,,,,,,,,,,,,,,,,,,,,,,,,,,,,,,,,,,,,,,,,,,,,,1.4192,649.6934179,None,None,1,649.6934179,None,,P042,fencog,1,Post,2022_May_17_1150,N-Back (New Version 2021),2021.1.4,120.4759765
,,,,Conditions/Version_1/zeroback(3)_v1.xlsx,New rule: Press 'space' when you see the letter 'x' or 'X'.,X,space,,,,,,,,,0,9,9,9,0,7,7,7,,,,,,,,,,,,,,,,,,,,,,,,,,,,,,,,,,,,,,,,,,,,,,,,,,,,,,,,,,,,,,,,,,,,,1.3944,653.1017237,None,space,1,653.1017237,None,0.3744289,P042,fencog,1,Post,2022_May_17_1150,N-Back (New Version 2021),2021.1.4,120.4759765
,,,,Conditions/Version_1/zeroback(3)_v1.xlsx,New rule: Press 'space' when you see the letter 'x' or 'X'.,p,None,,,,,,,,,0,9,9,9,0,8,8,8,,,,,,,,,,,,,,,,,,,,,,,,,,,,,,,,,,,,,,,,,,,,,,,,,,,,,,,,,,,,,,,,,,,,,1.1898,656.2998809,None,None,1,656.2998809,None,,P042,fencog,1,Post,2022_May_17_1150,N-Back (New Version 2021),2021.1.4,120.4759765
,,,,Conditions/Version_1/zeroback(3)_v1.xlsx,New rule: Press 'space' when you see the letter 'x' or 'X'.,x,space,,,,,,,,,0,9,9,9,0,9,9,9,,,,,,,,,,,,,,,,,,,,,,,,,,,,,,,,,,,,,,,,,,,,,,,,,,,,,,,,,,,,,,,,,,,,,1.444,659.7584933,None,space,1,659.7584933,None,0.4058969,P042,fencog,1,Post,2022_May_17_1150,N-Back (New Version 2021),2021.1.4,120.4759765
,,,,Conditions/Version_1/zeroback(3)_v1.xlsx,New rule: Press 'space' when you see the letter 'x' or 'X'.,,,,,,,,,,,0,9,9,9,,,,,,,,,,,,,,,,,,,,,,,,,,,,,,,,,,,,,,,,,,,,,,,,,,,,,,,,,,,,,,,,,,,,,,,,,,,,,,,,,P042,fencog,1,Post,2022_May_17_1150,N-Back (New Version 2021),2021.1.4,120.4759765
,,,,Conditions/Version_1/twoback(3)_v1.xlsx,New rule: Press 'space' when you see 2-back (i.e. the same letter as the one that appeared 2 letters ago.),e,None,,,,,,,,,0,10,10,10,0,0,0,0,,,,,,,,,,,,,,,,,,,,,,,,,,,,,,,,,,,,,,,,,,,,,,,,,,,,,,,,,,,661.7970613,None,664.7716252,None,space,10.6244359,664.7716252,None,661.7970613,None,1.0658,676.5024255,None,None,1,676.5024255,None,,P042,fencog,1,Post,2022_May_17_1150,N-Back (New Version 2021),2021.1.4,120.4759765
,,,,Conditions/Version_1/twoback(3)_v1.xlsx,New rule: Press 'space' when you see 2-back (i.e. the same letter as the one that appeared 2 letters ago.),o,None,,,,,,,,,0,10,10,10,0,1,1,1,,,,,,,,,,,,,,,,,,,,,,,,,,,,,,,,,,,,,,,,,,,,,,,,,,,,,,,,,,,,,,,,,,,,,1.7788,680.2922876,None,None,1,680.2922876,None,,P042,fencog,1,Post,2022_May_17_1150,N-Back (New Version 2021),2021.1.4,120.4759765
,,,,Conditions/Version_1/twoback(3)_v1.xlsx,New rule: Press 'space' when you see 2-back (i.e. the same letter as the one that appeared 2 letters ago.),P,None,,,,,,,,,0,10,10,10,0,2,2,2,,,,,,,,,,,,,,,,,,,,,,,,,,,,,,,,,,,,,,,,,,,,,,,,,,,,,,,,,,,,,,,,,,,,,1.5308,683.8292058,None,None,1,683.8292058,None,,P042,fencog,1,Post,2022_May_17_1150,N-Back (New Version 2021),2021.1.4,120.4759765
,,,,Conditions/Version_1/twoback(3)_v1.xlsx,New rule: Press 'space' when you see 2-back (i.e. the same letter as the one that appeared 2 letters ago.),z,None,,,,,,,,,0,10,10,10,0,3,3,3,,,,,,,,,,,,,,,,,,,,,,,,,,,,,,,,,,,,,,,,,,,,,,,,,,,,,,,,,,,,,,,,,,,,,1.3386,687.1892645,None,None,1,687.1892645,None,,P042,fencog,1,Post,2022_May_17_1150,N-Back (New Version 2021),2021.1.4,120.4759765
,,,,Conditions/Version_1/twoback(3)_v1.xlsx,New rule: Press 'space' when you see 2-back (i.e. the same letter as the one that appeared 2 letters ago.),X,None,,,,,,,,,0,10,10,10,0,4,4,4,,,,,,,,,,,,,,,,,,,,,,,,,,,,,,,,,,,,,,,,,,,,,,,,,,,,,,,,,,,,,,,,,,,,,1.7478,690.9380969,None,None,1,690.9380969,None,,P042,fencog,1,Post,2022_May_17_1150,N-Back (New Version 2021),2021.1.4,120.4759765
,,,,Conditions/Version_1/twoback(3)_v1.xlsx,New rule: Press 'space' when you see 2-back (i.e. the same letter as the one that appeared 2 letters ago.),z,space,,,,,,,,,0,10,10,10,0,5,5,5,,,,,,,,,,,,,,,,,,,,,,,,,,,,,,,,,,,,,,,,,,,,,,,,,,,,,,,,,,,,,,,,,,,,,1.3572,694.3065552,None,space,1,694.3065552,None,0.505646,P042,fencog,1,Post,2022_May_17_1150,N-Back (New Version 2021),2021.1.4,120.4759765
,,,,Conditions/Version_1/twoback(3)_v1.xlsx,New rule: Press 'space' when you see 2-back (i.e. the same letter as the one that appeared 2 letters ago.),x,space,,,,,,,,,0,10,10,10,0,6,6,6,,,,,,,,,,,,,,,,,,,,,,,,,,,,,,,,,,,,,,,,,,,,,,,,,,,,,,,,,,,,,,,,,,,,,1.2022,697.5170241,None,space,1,697.5170241,None,0.9829898,P042,fencog,1,Post,2022_May_17_1150,N-Back (New Version 2021),2021.1.4,120.4759765
,,,,Conditions/Version_1/twoback(3)_v1.xlsx,New rule: Press 'space' when you see 2-back (i.e. the same letter as the one that appeared 2 letters ago.),c,None,,,,,,,,,0,10,10,10,0,7,7,7,,,,,,,,,,,,,,,,,,,,,,,,,,,,,,,,,,,,,,,,,,,,,,,,,,,,,,,,,,,,,,,,,,,,,1.072,700.60334,None,None,1,700.60334,None,,P042,fencog,1,Post,2022_May_17_1150,N-Back (New Version 2021),2021.1.4,120.4759765
,,,,Conditions/Version_1/twoback(3)_v1.xlsx,New rule: Press 'space' when you see 2-back (i.e. the same letter as the one that appeared 2 letters ago.),i,None,,,,,,,,,0,10,10,10,0,8,8,8,,,,,,,,,,,,,,,,,,,,,,,,,,,,,,,,,,,,,,,,,,,,,,,,,,,,,,,,,,,,,,,,,,,,,1.1464,703.7623881,None,None,1,703.7623881,None,,P042,fencog,1,Post,2022_May_17_1150,N-Back (New Version 2021),2021.1.4,120.4759765
,,,,Conditions/Version_1/twoback(3)_v1.xlsx,New rule: Press 'space' when you see 2-back (i.e. the same letter as the one that appeared 2 letters ago.),C,space,,,,,,,,,0,10,10,10,0,9,9,9,,,,,,,,,,,,,,,,,,,,,,,,,,,,,,,,,,,,,,,,,,,,,,,,,,,,,,,,,,,,,,,,,,,,,1.9152,707.6842228,None,space,1,707.6842228,None,0.9843716,P042,fencog,1,Post,2022_May_17_1150,N-Back (New Version 2021),2021.1.4,120.4759765
,,,,Conditions/Version_1/twoback(3)_v1.xlsx,New rule: Press 'space' when you see 2-back (i.e. the same letter as the one that appeared 2 letters ago.),,,,,,,,,,,0,10,10,10,,,,,,,,,,,,,,,,,,,,,,,,,,,,,,,,,,,,,,,,,,,,,,,,,,,,,,,,,,,,,,,,,,,,,,,,,,,,,,,,,P042,fencog,1,Post,2022_May_17_1150,N-Back (New Version 2021),2021.1.4,120.4759765
,,,,Conditions/Version_1/oneback(3)_v1.xlsx,New rule: Press 'space' when you see 1-back (i.e. the same letter as the one that appeared 1 letter ago.),o,None,,,,,,,,,0,11,11,11,0,0,0,0,,,,,,,,,,,,,,,,,,,,,,,,,,,,,,,,,,,,,,,,,,,,,,,,,,,,,,,,,,,709.7243865,None,712.6999324,None,space,0.2240471,712.6999324,None,709.7243865,None,1.599,714.5742088,None,None,1,714.5742088,None,,P042,fencog,1,Post,2022_May_17_1150,N-Back (New Version 2021),2021.1.4,120.4759765
,,,,Conditions/Version_1/oneback(3)_v1.xlsx,New rule: Press 'space' when you see 1-back (i.e. the same letter as the one that appeared 1 letter ago.),O,space,,,,,,,,,0,11,11,11,0,1,1,1,,,,,,,,,,,,,,,,,,,,,,,,,,,,,,,,,,,,,,,,,,,,,,,,,,,,,,,,,,,,,,,,,,,,,1.9214,718.5123102,None,space,1,718.5123102,None,1.579806,P042,fencog,1,Post,2022_May_17_1150,N-Back (New Version 2021),2021.1.4,120.4759765
,,,,Conditions/Version_1/oneback(3)_v1.xlsx,New rule: Press 'space' when you see 1-back (i.e. the same letter as the one that appeared 1 letter ago.),h,None,,,,,,,,,0,11,11,11,0,2,2,2,,,,,,,,,,,,,,,,,,,,,,,,,,,,,,,,,,,,,,,,,,,,,,,,,,,,,,,,,,,,,,,,,,,,,1.4688,721.9907975,None,None,1,721.9907975,None,,P042,fencog,1,Post,2022_May_17_1150,N-Back (New Version 2021),2021.1.4,120.4759765
,,,,Conditions/Version_1/oneback(3)_v1.xlsx,New rule: Press 'space' when you see 1-back (i.e. the same letter as the one that appeared 1 letter ago.),g,None,,,,,,,,,0,11,11,11,0,3,3,3,,,,,,,,,,,,,,,,,,,,,,,,,,,,,,,,,,,,,,,,,,,,,,,,,,,,,,,,,,,,,,,,,,,,,1.7788,725.7692878,None,None,1,725.7692878,None,,P042,fencog,1,Post,2022_May_17_1150,N-Back (New Version 2021),2021.1.4,120.4759765
,,,,Conditions/Version_1/oneback(3)_v1.xlsx,New rule: Press 'space' when you see 1-back (i.e. the same letter as the one that appeared 1 letter ago.),n,None,,,,,,,,,0,11,11,11,0,4,4,4,,,,,,,,,,,,,,,,,,,,,,,,,,,,,,,,,,,,,,,,,,,,,,,,,,,,,,,,,,,,,,,,,,,,,1.0596,728.8448059,None,None,1,728.8448059,None,,P042,fencog,1,Post,2022_May_17_1150,N-Back (New Version 2021),2021.1.4,120.4759765
,,,,Conditions/Version_1/oneback(3)_v1.xlsx,New rule: Press 'space' when you see 1-back (i.e. the same letter as the one that appeared 1 letter ago.),z,None,,,,,,,,,0,11,11,11,0,5,5,5,,,,,,,,,,,,,,,,,,,,,,,,,,,,,,,,,,,,,,,,,,,,,,,,,,,,,,,,,,,,,,,,,,,,,1.9462,732.803733,None,None,1,732.803733,None,,P042,fencog,1,Post,2022_May_17_1150,N-Back (New Version 2021),2021.1.4,120.4759765
,,,,Conditions/Version_1/oneback(3)_v1.xlsx,New rule: Press 'space' when you see 1-back (i.e. the same letter as the one that appeared 1 letter ago.),X,None,,,,,,,,,0,11,11,11,0,6,6,6,,,,,,,,,,,,,,,,,,,,,,,,,,,,,,,,,,,,,,,,,,,,,,,,,,,,,,,,,,,,,,,,,,,,,1.3138,736.1263204,None,None,1,736.1263204,None,,P042,fencog,1,Post,2022_May_17_1150,N-Back (New Version 2021),2021.1.4,120.4759765
,,,,Conditions/Version_1/oneback(3)_v1.xlsx,New rule: Press 'space' when you see 1-back (i.e. the same letter as the one that appeared 1 letter ago.),r,None,,,,,,,,,0,11,11,11,0,7,7,7,,,,,,,,,,,,,,,,,,,,,,,,,,,,,,,,,,,,,,,,,,,,,,,,,,,,,,,,,,,,,,,,,,,,,1.4874,739.6189054,None,None,1,739.6189054,None,,P042,fencog,1,Post,2022_May_17_1150,N-Back (New Version 2021),2021.1.4,120.4759765
,,,,Conditions/Version_1/oneback(3)_v1.xlsx,New rule: Press 'space' when you see 1-back (i.e. the same letter as the one that appeared 1 letter ago.),r,space,,,,,,,,,0,11,11,11,0,8,8,8,,,,,,,,,,,,,,,,,,,,,,,,,,,,,,,,,,,,,,,,,,,,,,,,,,,,,,,,,,,,,,,,,,,,,1.785,743.4033521,None,space,1,743.4033521,None,0.4087081,P042,fencog,1,Post,2022_May_17_1150,N-Back (New Version 2021),2021.1.4,120.4759765
,,,,Conditions/Version_1/oneback(3)_v1.xlsx,New rule: Press 'space' when you see 1-back (i.e. the same letter as the one that appeared 1 letter ago.),P,None,,,,,,,,,0,11,11,11,0,9,9,9,,,,,,,,,,,,,,,,,,,,,,,,,,,,,,,,,,,,,,,,,,,,,,,,,,,,,,,,,,,,,,,,,,,,,1.3944,746.8174823,None,None,1,746.8174823,None,,P042,fencog,1,Post,2022_May_17_1150,N-Back (New Version 2021),2021.1.4,120.4759765
,,,,Conditions/Version_1/oneback(3)_v1.xlsx,New rule: Press 'space' when you see 1-back (i.e. the same letter as the one that appeared 1 letter ago.),,,,,,,,,,,0,11,11,11,,,,,,,,,,,,,,,,,,,,,,,,,,,,,,,,,,,,,,,,,,,,,,,,,,,,,,,,,,,,,,,,,,,,,,,,,,,,,,,,,P042,fencog,1,Post,2022_May_17_1150,N-Back (New Version 2021),2021.1.4,120.4759765
,,,,Conditions/Version_1/twoback(4)_v1.xlsx,New rule: Press 'space' when you see 2-back (i.e. the same letter as the one that appeared 2 letters ago.),r,None,,,,,,,,,0,12,12,12,0,0,0,0,,,,,,,,,,,,,,,,,,,,,,,,,,,,,,,,,,,,,,,,,,,,,,,,,,,,,,,,,,,748.8516831,None,751.8282454,None,space,0.6638904,751.8282454,None,748.8516831,None,1.785,754.3735179,None,None,1,754.3735179,None,,P042,fencog,1,Post,2022_May_17_1150,N-Back (New Version 2021),2021.1.4,120.4759765
,,,,Conditions/Version_1/twoback(4)_v1.xlsx,New rule: Press 'space' when you see 2-back (i.e. the same letter as the one that appeared 2 letters ago.),T,None,,,,,,,,,0,12,12,12,0,1,1,1,,,,,,,,,,,,,,,,,,,,,,,,,,,,,,,,,,,,,,,,,,,,,,,,,,,,,,,,,,,,,,,,,,,,,1.2332,757.6089699,None,None,1,757.6089699,None,,P042,fencog,1,Post,2022_May_17_1150,N-Back (New Version 2021),2021.1.4,120.4759765
,,,,Conditions/Version_1/twoback(4)_v1.xlsx,New rule: Press 'space' when you see 2-back (i.e. the same letter as the one that appeared 2 letters ago.),o,None,,,,,,,,,0,12,12,12,0,2,2,2,,,,,,,,,,,,,,,,,,,,,,,,,,,,,,,,,,,,,,,,,,,,,,,,,,,,,,,,,,,,,,,,,,,,,1.5184,761.1427331,None,None,1,761.1427331,None,,P042,fencog,1,Post,2022_May_17_1150,N-Back (New Version 2021),2021.1.4,120.4759765
,,,,Conditions/Version_1/twoback(4)_v1.xlsx,New rule: Press 'space' when you see 2-back (i.e. the same letter as the one that appeared 2 letters ago.),p,None,,,,,,,,,0,12,12,12,0,3,3,3,,,,,,,,,,,,,,,,,,,,,,,,,,,,,,,,,,,,,,,,,,,,,,,,,,,,,,,,,,,,,,,,,,,,,1.7416,764.9006308,None,None,1,764.9006308,None,,P042,fencog,1,Post,2022_May_17_1150,N-Back (New Version 2021),2021.1.4,120.4759765
,,,,Conditions/Version_1/twoback(4)_v1.xlsx,New rule: Press 'space' when you see 2-back (i.e. the same letter as the one that appeared 2 letters ago.),p,None,,,,,,,,,0,12,12,12,0,4,4,4,,,,,,,,,,,,,,,,,,,,,,,,,,,,,,,,,,,,,,,,,,,,,,,,,,,,,,,,,,,,,,,,,,,,,1.9152,768.8210158,None,None,1,768.8210158,None,,P042,fencog,1,Post,2022_May_17_1150,N-Back (New Version 2021),2021.1.4,120.4759765
,,,,Conditions/Version_1/twoback(4)_v1.xlsx,New rule: Press 'space' when you see 2-back (i.e. the same letter as the one that appeared 2 letters ago.),y,None,,,,,,,,,0,12,12,12,0,5,5,5,,,,,,,,,,,,,,,,,,,,,,,,,,,,,,,,,,,,,,,,,,,,,,,,,,,,,,,,,,,,,,,,,,,,,1.723,772.558495,None,None,1,772.558495,None,,P042,fencog,1,Post,2022_May_17_1150,N-Back (New Version 2021),2021.1.4,120.4759765
,,,,Conditions/Version_1/twoback(4)_v1.xlsx,New rule: Press 'space' when you see 2-back (i.e. the same letter as the one that appeared 2 letters ago.),P,space,,,,,,,,,0,12,12,12,0,6,6,6,,,,,,,,,,,,,,,,,,,,,,,,,,,,,,,,,,,,,,,,,,,,,,,,,,,,,,,,,,,,,,,,,,,,,1.9648,776.5320492,None,space,1,776.5320492,None,0.3759973,P042,fencog,1,Post,2022_May_17_1150,N-Back (New Version 2021),2021.1.4,120.4759765
,,,,Conditions/Version_1/twoback(4)_v1.xlsx,New rule: Press 'space' when you see 2-back (i.e. the same letter as the one that appeared 2 letters ago.),y,None,,,,,,,,,0,12,12,12,0,7,7,7,,,,,,,,,,,,,,,,,,,,,,,,,,,,,,,,,,,,,,,,,,,,,,,,,,,,,,,,,,,,,,,,,,,,,1.0286,779.5634612,None,space,0,779.5634612,None,0.3685807,P042,fencog,1,Post,2022_May_17_1150,N-Back (New Version 2021),2021.1.4,120.4759765
,,,,Conditions/Version_1/twoback(4)_v1.xlsx,New rule: Press 'space' when you see 2-back (i.e. the same letter as the one that appeared 2 letters ago.),y,space,,,,,,,,,0,12,12,12,0,8,8,8,,,,,,,,,,,,,,,,,,,,,,,,,,,,,,,,,,,,,,,,,,,,,,,,,,,,,,,,,,,,,,,,,,,,,1.2208,782.7919777,None,None,0,782.7919777,None,,P042,fencog,1,Post,2022_May_17_1150,N-Back (New Version 2021),2021.1.4,120.4759765
,,,,Conditions/Version_1/twoback(4)_v1.xlsx,New rule: Press 'space' when you see 2-back (i.e. the same letter as the one that appeared 2 letters ago.),,,,,,,,,,,0,12,12,12,,,,,,,,,,,,,,,,,,,,,,,,,,,,,,,,,,,,,,,,,,,,,,,,,,,,,,,,,,,,,,,,,,,,,,,,,,,,,,,,,P042,fencog,1,Post,2022_May_17_1150,N-Back (New Version 2021),2021.1.4,120.4759765
,,,,Conditions/Version_1/zeroback(4)_v1.xlsx,New rule: Press 'space' when you see the letter 'x' or 'X'.,o,None,,,,,,,,,0,13,13,13,0,0,0,0,,,,,,,,,,,,,,,,,,,,,,,,,,,,,,,,,,,,,,,,,,,,,,,,,,,,,,,,,,,784.8298075,None,787.8103494,None,space,0.273732,787.8103494,None,784.8298075,None,1.5556,789.6873013,None,None,1,789.6873013,None,,P042,fencog,1,Post,2022_May_17_1150,N-Back (New Version 2021),2021.1.4,120.4759765
,,,,Conditions/Version_1/zeroback(4)_v1.xlsx,New rule: Press 'space' when you see the letter 'x' or 'X'.,X,space,,,,,,,,,0,13,13,13,0,1,1,1,,,,,,,,,,,,,,,,,,,,,,,,,,,,,,,,,,,,,,,,,,,,,,,,,,,,,,,,,,,,,,,,,,,,,1.7354,793.4275613,None,space,1,793.4275613,None,0.4085237,P042,fencog,1,Post,2022_May_17_1150,N-Back (New Version 2021),2021.1.4,120.4759765
,,,,Conditions/Version_1/zeroback(4)_v1.xlsx,New rule: Press 'space' when you see the letter 'x' or 'X'.,p,None,,,,,,,,,0,13,13,13,0,2,2,2,,,,,,,,,,,,,,,,,,,,,,,,,,,,,,,,,,,,,,,,,,,,,,,,,,,,,,,,,,,,,,,,,,,,,1.3014,796.7326477,None,None,1,796.7326477,None,,P042,fencog,1,Post,2022_May_17_1150,N-Back (New Version 2021),2021.1.4,120.4759765
,,,,Conditions/Version_1/zeroback(4)_v1.xlsx,New rule: Press 'space' when you see the letter 'x' or 'X'.,m,None,,,,,,,,,0,13,13,13,0,3,3,3,,,,,,,,,,,,,,,,,,,,,,,,,,,,,,,,,,,,,,,,,,,,,,,,,,,,,,,,,,,,,,,,,,,,,1.9152,800.6567953,None,None,1,800.6567953,None,,P042,fencog,1,Post,2022_May_17_1150,N-Back (New Version 2021),2021.1.4,120.4759765
,,,,Conditions/Version_1/zeroback(4)_v1.xlsx,New rule: Press 'space' when you see the letter 'x' or 'X'.,n,None,,,,,,,,,0,13,13,13,0,4,4,4,,,,,,,,,,,,,,,,,,,,,,,,,,,,,,,,,,,,,,,,,,,,,,,,,,,,,,,,,,,,,,,,,,,,,1.3882,804.058443,None,None,1,804.058443,None,,P042,fencog,1,Post,2022_May_17_1150,N-Back (New Version 2021),2021.1.4,120.4759765
,,,,Conditions/Version_1/zeroback(4)_v1.xlsx,New rule: Press 'space' when you see the letter 'x' or 'X'.,m,None,,,,,,,,,0,13,13,13,0,5,5,5,,,,,,,,,,,,,,,,,,,,,,,,,,,,,,,,,,,,,,,,,,,,,,,,,,,,,,,,,,,,,,,,,,,,,1.63,807.6966126,None,None,1,807.6966126,None,,P042,fencog,1,Post,2022_May_17_1150,N-Back (New Version 2021),2021.1.4,120.4759765
,,,,Conditions/Version_1/zeroback(4)_v1.xlsx,New rule: Press 'space' when you see the letter 'x' or 'X'.,C,None,,,,,,,,,0,13,13,13,0,6,6,6,,,,,,,,,,,,,,,,,,,,,,,,,,,,,,,,,,,,,,,,,,,,,,,,,,,,,,,,,,,,,,,,,,,,,1.1278,810.8369656,None,None,1,810.8369656,None,,P042,fencog,1,Post,2022_May_17_1150,N-Back (New Version 2021),2021.1.4,120.4759765
,,,,Conditions/Version_1/zeroback(4)_v1.xlsx,New rule: Press 'space' when you see the letter 'x' or 'X'.,m,None,,,,,,,,,0,13,13,13,0,7,7,7,,,,,,,,,,,,,,,,,,,,,,,,,,,,,,,,,,,,,,,,,,,,,,,,,,,,,,,,,,,,,,,,,,,,,1.3448,814.1963515,None,None,1,814.1963515,None,,P042,fencog,1,Post,2022_May_17_1150,N-Back (New Version 2021),2021.1.4,120.4759765
,,,,Conditions/Version_1/zeroback(4)_v1.xlsx,New rule: Press 'space' when you see the letter 'x' or 'X'.,p,None,,,,,,,,,0,13,13,13,0,8,8,8,,,,,,,,,,,,,,,,,,,,,,,,,,,,,,,,,,,,,,,,,,,,,,,,,,,,,,,,,,,,,,,,,,,,,1.8408,818.0435334,None,None,1,818.0435334,None,,P042,fencog,1,Post,2022_May_17_1150,N-Back (New Version 2021),2021.1.4,120.4759765
,,,,Conditions/Version_1/zeroback(4)_v1.xlsx,New rule: Press 'space' when you see the letter 'x' or 'X'.,X,space,,,,,,,,,0,13,13,13,0,9,9,9,,,,,,,,,,,,,,,,,,,,,,,,,,,,,,,,,,,,,,,,,,,,,,,,,,,,,,,,,,,,,,,,,,,,,1.5308,821.5936724,None,space,1,821.5936724,None,0.4185814,P042,fencog,1,Post,2022_May_17_1150,N-Back (New Version 2021),2021.1.4,120.4759765
,,,,Conditions/Version_1/zeroback(4)_v1.xlsx,New rule: Press 'space' when you see the letter 'x' or 'X'.,,,,,,,,,,,0,13,13,13,,,,,,,,,,,,,,,,,,,,,,,,,,,,,,,,,,,,,,,,,,,,,,,,,,,,,,,,,,,,,,,,,,,,,,,,,,,,,,,,,P042,fencog,1,Post,2022_May_17_1150,N-Back (New Version 2021),2021.1.4,120.4759765
,,,,Conditions/Version_1/oneback(4)_v1.xlsx,New rule: Press 'space' when you see 1-back (i.e. the same letter as the one that appeared 1 letter ago.),w,None,,,,,,,,,0,14,14,14,0,0,0,0,,,,,,,,,,,,,,,,,,,,,,,,,,,,,,,,,,,,,,,,,,,,,,,,,,,,,,,,,,,823.6289512,None,826.6053163,None,space,0.3269005,826.6053163,None,823.6289512,None,1.94,828.9128714,None,None,1,828.9128714,None,,P042,fencog,1,Post,2022_May_17_1150,N-Back (New Version 2021),2021.1.4,120.4759765
,,,,Conditions/Version_1/oneback(4)_v1.xlsx,New rule: Press 'space' when you see 1-back (i.e. the same letter as the one that appeared 1 letter ago.),q,None,,,,,,,,,0,14,14,14,0,1,1,1,,,,,,,,,,,,,,,,,,,,,,,,,,,,,,,,,,,,,,,,,,,,,,,,,,,,,,,,,,,,,,,,,,,,,1.9276,832.8546784,None,None,1,832.8546784,None,,P042,fencog,1,Post,2022_May_17_1150,N-Back (New Version 2021),2021.1.4,120.4759765
,,,,Conditions/Version_1/oneback(4)_v1.xlsx,New rule: Press 'space' when you see 1-back (i.e. the same letter as the one that appeared 1 letter ago.),i,None,,,,,,,,,0,14,14,14,0,2,2,2,,,,,,,,,,,,,,,,,,,,,,,,,,,,,,,,,,,,,,,,,,,,,,,,,,,,,,,,,,,,,,,,,,,,,1.5432,836.4153751,None,None,1,836.4153751,None,,P042,fencog,1,Post,2022_May_17_1150,N-Back (New Version 2021),2021.1.4,120.4759765
,,,,Conditions/Version_1/oneback(4)_v1.xlsx,New rule: Press 'space' when you see 1-back (i.e. the same letter as the one that appeared 1 letter ago.),t,None,,,,,,,,,0,14,14,14,0,3,3,3,,,,,,,,,,,,,,,,,,,,,,,,,,,,,,,,,,,,,,,,,,,,,,,,,,,,,,,,,,,,,,,,,,,,,1.3014,839.7203661,None,None,1,839.7203661,None,,P042,fencog,1,Post,2022_May_17_1150,N-Back (New Version 2021),2021.1.4,120.4759765
,,,,Conditions/Version_1/oneback(4)_v1.xlsx,New rule: Press 'space' when you see 1-back (i.e. the same letter as the one that appeared 1 letter ago.),v,None,,,,,,,,,0,14,14,14,0,4,4,4,,,,,,,,,,,,,,,,,,,,,,,,,,,,,,,,,,,,,,,,,,,,,,,,,,,,,,,,,,,,,,,,,,,,,1.4254,843.1650458,None,None,1,843.1650458,None,,P042,fencog,1,Post,2022_May_17_1150,N-Back (New Version 2021),2021.1.4,120.4759765
,,,,Conditions/Version_1/oneback(4)_v1.xlsx,New rule: Press 'space' when you see 1-back (i.e. the same letter as the one that appeared 1 letter ago.),V,space,,,,,,,,,0,14,14,14,0,5,5,5,,,,,,,,,,,,,,,,,,,,,,,,,,,,,,,,,,,,,,,,,,,,,,,,,,,,,,,,,,,,,,,,,,,,,1.0782,846.2577345,None,space,1,846.2577345,None,0.3943094,P042,fencog,1,Post,2022_May_17_1150,N-Back (New Version 2021),2021.1.4,120.4759765
,,,,Conditions/Version_1/oneback(4)_v1.xlsx,New rule: Press 'space' when you see 1-back (i.e. the same letter as the one that appeared 1 letter ago.),v,space,,,,,,,,,0,14,14,14,0,6,6,6,,,,,,,,,,,,,,,,,,,,,,,,,,,,,,,,,,,,,,,,,,,,,,,,,,,,,,,,,,,,,,,,,,,,,1.6796,849.9417982,None,space,1,849.9417982,None,0.4942866,P042,fencog,1,Post,2022_May_17_1150,N-Back (New Version 2021),2021.1.4,120.4759765
,,,,Conditions/Version_1/oneback(4)_v1.xlsx,New rule: Press 'space' when you see 1-back (i.e. the same letter as the one that appeared 1 letter ago.),p,None,,,,,,,,,0,14,14,14,0,7,7,7,,,,,,,,,,,,,,,,,,,,,,,,,,,,,,,,,,,,,,,,,,,,,,,,,,,,,,,,,,,,,,,,,,,,,1.9648,853.9160641,None,None,1,853.9160641,None,,P042,fencog,1,Post,2022_May_17_1150,N-Back (New Version 2021),2021.1.4,120.4759765
,,,,Conditions/Version_1/oneback(4)_v1.xlsx,New rule: Press 'space' when you see 1-back (i.e. the same letter as the one that appeared 1 letter ago.),w,None,,,,,,,,,0,14,14,14,0,8,8,8,,,,,,,,,,,,,,,,,,,,,,,,,,,,,,,,,,,,,,,,,,,,,,,,,,,,,,,,,,,,,,,,,,,,,1.1836,857.1169684,None,None,1,857.1169684,None,,P042,fencog,1,Post,2022_May_17_1150,N-Back (New Version 2021),2021.1.4,120.4759765
,,,,Conditions/Version_1/oneback(4)_v1.xlsx,New rule: Press 'space' when you see 1-back (i.e. the same letter as the one that appeared 1 letter ago.),W,space,,,,,,,,,0,14,14,14,0,9,9,9,,,,,,,,,,,,,,,,,,,,,,,,,,,,,,,,,,,,,,,,,,,,,,,,,,,,,,,,,,,,,,,,,,,,,1.3634,860.4890319,None,space,1,860.4890319,None,1.0270705,P042,fencog,1,Post,2022_May_17_1150,N-Back (New Version 2021),2021.1.4,120.4759765
,,,,Conditions/Version_1/oneback(4)_v1.xlsx,New rule: Press 'space' when you see 1-back (i.e. the same letter as the one that appeared 1 letter ago.),,,,,,,,,,,0,14,14,14,,,,,,,,,,,,,,,,,,,,,,,,,,,,,,,,,,,,,,,,,,,,,,,,,,,,,,,,,,,,,,,,,,,,,,,,,,,,,,,,,P042,fencog,1,Post,2022_May_17_1150,N-Back (New Version 2021),2021.1.4,120.4759765
,,,,Conditions/Version_1/threeback(4)_v1.xlsx,New rule: Press 'space' when you see 3-back (i.e. the same letter as the one that appeared 3 letters ago.),A,None,,,,,,,,,0,15,15,15,0,0,0,0,,,,,,,,,,,,,,,,,,,,,,,,,,,,,,,,,,,,,,,,,,,,,,,,,,,,,,,,,,,862.5298937,None,865.5132071,None,space,3.2186556,865.5132071,None,862.5298937,None,1.2084,869.9868939,None,None,1,869.9868939,None,,P042,fencog,1,Post,2022_May_17_1150,N-Back (New Version 2021),2021.1.4,120.4759765
,,,,Conditions/Version_1/threeback(4)_v1.xlsx,New rule: Press 'space' when you see 3-back (i.e. the same letter as the one that appeared 3 letters ago.),n,None,,,,,,,,,0,15,15,15,0,1,1,1,,,,,,,,,,,,,,,,,,,,,,,,,,,,,,,,,,,,,,,,,,,,,,,,,,,,,,,,,,,,,,,,,,,,,1.0782,873.0786493,None,None,1,873.0786493,None,,P042,fencog,1,Post,2022_May_17_1150,N-Back (New Version 2021),2021.1.4,120.4759765
,,,,Conditions/Version_1/threeback(4)_v1.xlsx,New rule: Press 'space' when you see 3-back (i.e. the same letter as the one that appeared 3 letters ago.),g,None,,,,,,,,,0,15,15,15,0,2,2,2,,,,,,,,,,,,,,,,,,,,,,,,,,,,,,,,,,,,,,,,,,,,,,,,,,,,,,,,,,,,,,,,,,,,,1.816,876.9039619,None,None,1,876.9039619,None,,P042,fencog,1,Post,2022_May_17_1150,N-Back (New Version 2021),2021.1.4,120.4759765
,,,,Conditions/Version_1/threeback(4)_v1.xlsx,New rule: Press 'space' when you see 3-back (i.e. the same letter as the one that appeared 3 letters ago.),A,space,,,,,,,,,0,15,15,15,0,3,3,3,,,,,,,,,,,,,,,,,,,,,,,,,,,,,,,,,,,,,,,,,,,,,,,,,,,,,,,,,,,,,,,,,,,,,1.4068,880.3119326,None,space,1,880.3119326,None,0.3883686,P042,fencog,1,Post,2022_May_17_1150,N-Back (New Version 2021),2021.1.4,120.4759765
,,,,Conditions/Version_1/threeback(4)_v1.xlsx,New rule: Press 'space' when you see 3-back (i.e. the same letter as the one that appeared 3 letters ago.),p,None,,,,,,,,,0,15,15,15,0,4,4,4,,,,,,,,,,,,,,,,,,,,,,,,,,,,,,,,,,,,,,,,,,,,,,,,,,,,,,,,,,,,,,,,,,,,,1.94,884.26529,None,None,1,884.26529,None,,P042,fencog,1,Post,2022_May_17_1150,N-Back (New Version 2021),2021.1.4,120.4759765
,,,,Conditions/Version_1/threeback(4)_v1.xlsx,New rule: Press 'space' when you see 3-back (i.e. the same letter as the one that appeared 3 letters ago.),O,None,,,,,,,,,0,15,15,15,0,5,5,5,,,,,,,,,,,,,,,,,,,,,,,,,,,,,,,,,,,,,,,,,,,,,,,,,,,,,,,,,,,,,,,,,,,,,1.7726,888.0501288,None,None,1,888.0501288,None,,P042,fencog,1,Post,2022_May_17_1150,N-Back (New Version 2021),2021.1.4,120.4759765
,,,,Conditions/Version_1/threeback(4)_v1.xlsx,New rule: Press 'space' when you see 3-back (i.e. the same letter as the one that appeared 3 letters ago.),a,space,,,,,,,,,0,15,15,15,0,6,6,6,,,,,,,,,,,,,,,,,,,,,,,,,,,,,,,,,,,,,,,,,,,,,,,,,,,,,,,,,,,,,,,,,,,,,1.134,891.1906018,None,space,1,891.1906018,None,0.6455591,P042,fencog,1,Post,2022_May_17_1150,N-Back (New Version 2021),2021.1.4,120.4759765
,,,,Conditions/Version_1/threeback(4)_v1.xlsx,New rule: Press 'space' when you see 3-back (i.e. the same letter as the one that appeared 3 letters ago.),p,space,,,,,,,,,0,15,15,15,0,7,7,7,,,,,,,,,,,,,,,,,,,,,,,,,,,,,,,,,,,,,,,,,,,,,,,,,,,,,,,,,,,,,,,,,,,,,1.1402,894.3372985,None,space,1,894.3372985,None,0.7547559,P042,fencog,1,Post,2022_May_17_1150,N-Back (New Version 2021),2021.1.4,120.4759765
,,,,Conditions/Version_1/threeback(4)_v1.xlsx,New rule: Press 'space' when you see 3-back (i.e. the same letter as the one that appeared 3 letters ago.),x,None,,,,,,,,,0,15,15,15,0,8,8,8,,,,,,,,,,,,,,,,,,,,,,,,,,,,,,,,,,,,,,,,,,,,,,,,,,,,,,,,,,,,,,,,,,,,,1.971,898.3161534,None,None,1,898.3161534,None,,P042,fencog,1,Post,2022_May_17_1150,N-Back (New Version 2021),2021.1.4,120.4759765
,,,,Conditions/Version_1/threeback(4)_v1.xlsx,New rule: Press 'space' when you see 3-back (i.e. the same letter as the one that appeared 3 letters ago.),X,None,,,,,,,,,0,15,15,15,0,9,9,9,,,,,,,,,,,,,,,,,,,,,,,,,,,,,,,,,,,,,,,,,,,,,,,,,,,,,,,,,,,,,,,,,,,,,1.01,901.3349306,None,None,1,901.3349306,None,,P042,fencog,1,Post,2022_May_17_1150,N-Back (New Version 2021),2021.1.4,120.4759765
,,,,Conditions/Version_1/threeback(4)_v1.xlsx,New rule: Press 'space' when you see 3-back (i.e. the same letter as the one that appeared 3 letters ago.),,,,,,,,,,,0,15,15,15,,,,,,,,,,,,,,,,,,,,,,,,,,,,,,,,,,,,,,,,,,,,,,,,,,,,,,,,,,,,,,,,,,,,,,,,,,,,,,,,,P042,fencog,1,Post,2022_May_17_1150,N-Back (New Version 2021),2021.1.4,120.4759765
