CondFileP,InstructionsP,LettersDisplayedP,CorrectnessP,CondFile,Instructions,LettersDisplayed,Correctness,practicetrials.thisRepN,practicetrials.thisTrialN,practicetrials.thisN,practicetrials.thisIndex,InnerLoopPractice.thisRepN,InnerLoopPractice.thisTrialN,InnerLoopPractice.thisN,InnerLoopPractice.thisIndex,trials.thisRepN,trials.thisTrialN,trials.thisN,trials.thisIndex,InnerLoop.thisRepN,InnerLoop.thisTrialN,InnerLoop.thisN,InnerLoop.thisIndex,TaskVersionText.started,TaskVersionText.stopped,InstrKey1.keys,InstrKey1.rt,InstrKey1.started,InstrKey1.stopped,text.started,text.stopped,key_resp_4.keys,key_resp_4.rt,key_resp_4.started,key_resp_4.stopped,text_2.started,text_2.stopped,key_resp_3.keys,key_resp_3.rt,key_resp_3.started,key_resp_3.stopped,text_3.started,text_3.stopped,key_resp_2.keys,key_resp_2.rt,key_resp_2.started,key_resp_2.stopped,PractIn1.started,PractIn1.stopped,PractIn2.started,PractIn2.stopped,PractInstructionPass.keys,PractInstructionPass.rt,PractInstructionPass.started,PractInstructionPass.stopped,PractBlock1.started,PractBlock1.stopped,ISIjitterPractice,ISI_Pract_Fixation.started,ISI_Pract_Fixation.stopped,N_backP.started,N_backP.stopped,KeyPractice.keys,KeyPractice.corr,KeyPractice.rt,KeyPractice.started,KeyPractice.stopped,text_4.started,text_4.stopped,TransitionText.started,TransitionText.stopped,key_resp_6.keys,key_resp_6.rt,key_resp_6.started,key_resp_6.stopped,text_5.started,text_5.stopped,key_resp_5.keys,key_resp_5.rt,key_resp_5.started,key_resp_5.stopped,MainInt1.started,MainInt1.stopped,MainInt2.started,MainInt2.stopped,InstructionPass.keys,InstructionPass.rt,InstructionPass.started,InstructionPass.stopped,Blocks1.started,Blocks1.stopped,ISIjitter,N_backD.started,N_backD.stopped,key_resp.keys,key_resp.corr,key_resp.started,key_resp.stopped,key_resp.rt,participant,Study Name,Task Version (required to run),PRE/POST,date,expName,psychopyVersion,frameRate
,,,,,,,,,,,,,,,,,,,,,,,,71.3476948,None,space,50.3088769,71.8358935,None,,,,,,,,,,,,,,,,,,,,,,,,,,,,,,,,,,,,,,,,,,,,,,,,,,,,,,,,,,,,,,,,,,,,,,,P042,FENCOG,2,Pre,2022_May_10_1058,N-Back (New Version 2021),2021.1.4,119.9909767
,,,,,,,,,,,,,,,,,,,,,,,,,,,,,,122.1774514,None,space,23.9854242,122.6713973,None,,,,,,,,,,,,,,,,,,,,,,,,,,,,,,,,,,,,,,,,,,,,,,,,,,,,,,,,,,,,,,,,,P042,FENCOG,2,Pre,2022_May_10_1058,N-Back (New Version 2021),2021.1.4,119.9909767
,,,,,,,,,,,,,,,,,,,,,,,,,,,,,,,,,,,,146.6906978,None,space,28.3076642,147.1810476,None,,,,,,,,,,,,,,,,,,,,,,,,,,,,,,,,,,,,,,,,,,,,,,,,,,,,,,,,,,,P042,FENCOG,2,Pre,2022_May_10_1058,N-Back (New Version 2021),2021.1.4,119.9909767
,,,,,,,,,,,,,,,,,,,,,,,,,,,,,,,,,,,,,,,,,,175.5150162,None,space,5.6591385,176.0056745,None,,,,,,,,,,,,,,,,,,,,,,,,,,,,,,,,,,,,,,,,,,,,,,,,,,,,,P042,FENCOG,2,Pre,2022_May_10_1058,N-Back (New Version 2021),2021.1.4,119.9909767
Conditions/Version_2Pr/zeroback(1)_v2.xlsx,Rule: Press 'space' when you see the letter 'x' or 'X'.,x,space,,,,,0,0,0,0,0,0,0,0,,,,,,,,,,,,,,,,,,,,,,,,,,,,,,,,,183.079402,None,186.0619101,None,space,0.7468079,186.0619101,None,183.079402,None,1.59,186.8417179,None,188.4382552,None,space,1,0.3145084,188.4382552,None,188.772374,None,,,,,,,,,,,,,,,,,,,,,,,,,,,,,,,P042,FENCOG,2,Pre,2022_May_10_1058,N-Back (New Version 2021),2021.1.4,119.9909767
Conditions/Version_2Pr/zeroback(1)_v2.xlsx,Rule: Press 'space' when you see the letter 'x' or 'X'.,R,None,,,,,0,0,0,0,0,1,1,1,,,,,,,,,,,,,,,,,,,,,,,,,,,,,,,,,,,,,,,,,,,1.865,190.2757074,None,192.1445939,None,None,1,,192.1445939,None,194.1492611,None,,,,,,,,,,,,,,,,,,,,,,,,,,,,,,,P042,FENCOG,2,Pre,2022_May_10_1058,N-Back (New Version 2021),2021.1.4,119.9909767
Conditions/Version_2Pr/zeroback(1)_v2.xlsx,Rule: Press 'space' when you see the letter 'x' or 'X'.,p,None,,,,,0,0,0,0,0,2,2,2,,,,,,,,,,,,,,,,,,,,,,,,,,,,,,,,,,,,,,,,,,,1.84,195.6487057,None,197.4904584,None,None,1,,197.4904584,None,199.4976619,None,,,,,,,,,,,,,,,,,,,,,,,,,,,,,,,P042,FENCOG,2,Pre,2022_May_10_1058,N-Back (New Version 2021),2021.1.4,119.9909767
Conditions/Version_2Pr/zeroback(1)_v2.xlsx,Rule: Press 'space' when you see the letter 'x' or 'X'.,O,None,,,,,0,0,0,0,0,3,3,3,,,,,,,,,,,,,,,,,,,,,,,,,,,,,,,,,,,,,,,,,,,1.965,200.9971464,None,202.9633114,None,None,1,,202.9633114,None,204.9626831,None,,,,,,,,,,,,,,,,,,,,,,,,,,,,,,,P042,FENCOG,2,Pre,2022_May_10_1058,N-Back (New Version 2021),2021.1.4,119.9909767
Conditions/Version_2Pr/zeroback(1)_v2.xlsx,Rule: Press 'space' when you see the letter 'x' or 'X'.,i,None,,,,,0,0,0,0,0,4,4,4,,,,,,,,,,,,,,,,,,,,,,,,,,,,,,,,,,,,,,,,,,,1.315,206.4626011,None,207.7802917,None,None,1,,207.7802917,None,209.7866125,None,,,,,,,,,,,,,,,,,,,,,,,,,,,,,,,P042,FENCOG,2,Pre,2022_May_10_1058,N-Back (New Version 2021),2021.1.4,119.9909767
Conditions/Version_2Pr/zeroback(1)_v2.xlsx,Rule: Press 'space' when you see the letter 'x' or 'X'.,U,None,,,,,0,0,0,0,0,5,5,5,,,,,,,,,,,,,,,,,,,,,,,,,,,,,,,,,,,,,,,,,,,1.19,211.286242,None,212.4801731,None,None,1,,212.4801731,None,214.4852638,None,,,,,,,,,,,,,,,,,,,,,,,,,,,,,,,P042,FENCOG,2,Pre,2022_May_10_1058,N-Back (New Version 2021),2021.1.4,119.9909767
Conditions/Version_2Pr/zeroback(1)_v2.xlsx,Rule: Press 'space' when you see the letter 'x' or 'X'.,N,None,,,,,0,0,0,0,0,6,6,6,,,,,,,,,,,,,,,,,,,,,,,,,,,,,,,,,,,,,,,,,,,1.065,215.9848674,None,217.0532539,None,None,1,,217.0532539,None,219.0586969,None,,,,,,,,,,,,,,,,,,,,,,,,,,,,,,,P042,FENCOG,2,Pre,2022_May_10_1058,N-Back (New Version 2021),2021.1.4,119.9909767
Conditions/Version_2Pr/zeroback(1)_v2.xlsx,Rule: Press 'space' when you see the letter 'x' or 'X'.,m,None,,,,,0,0,0,0,0,7,7,7,,,,,,,,,,,,,,,,,,,,,,,,,,,,,,,,,,,,,,,,,,,1.89,220.5584696,None,222.4511107,None,None,1,,222.4511107,None,224.4571154,None,,,,,,,,,,,,,,,,,,,,,,,,,,,,,,,P042,FENCOG,2,Pre,2022_May_10_1058,N-Back (New Version 2021),2021.1.4,119.9909767
Conditions/Version_2Pr/zeroback(1)_v2.xlsx,Rule: Press 'space' when you see the letter 'x' or 'X'.,x,space,,,,,0,0,0,0,0,8,8,8,,,,,,,,,,,,,,,,,,,,,,,,,,,,,,,,,,,,,,,,,,,1.24,225.9569121,None,227.1991922,None,space,1,0.4494856,227.1991922,None,227.6579183,None,,,,,,,,,,,,,,,,,,,,,,,,,,,,,,,P042,FENCOG,2,Pre,2022_May_10_1058,N-Back (New Version 2021),2021.1.4,119.9909767
Conditions/Version_2Pr/zeroback(1)_v2.xlsx,Rule: Press 'space' when you see the letter 'x' or 'X'.,X,space,,,,,0,0,0,0,0,9,9,9,,,,,,,,,,,,,,,,,,,,,,,,,,,,,,,,,,,,,,,,,,,1.665,229.164066,None,230.8322039,None,space,1,0.4565731,230.8322039,None,231.2980414,None,,,,,,,,,,,,,,,,,,,,,,,,,,,,,,,P042,FENCOG,2,Pre,2022_May_10_1058,N-Back (New Version 2021),2021.1.4,119.9909767
Conditions/Version_2Pr/zeroback(1)_v2.xlsx,Rule: Press 'space' when you see the letter 'x' or 'X'.,,,,,,,0,0,0,0,,,,,,,,,,,,,,,,,,,,,,,,,,,,,,,,,,,,,,,,,,,,,,,,,,,,,,,,,,,,,,,,,,,,,,,,,,,,,,,,,,,,,,,,,P042,FENCOG,2,Pre,2022_May_10_1058,N-Back (New Version 2021),2021.1.4,119.9909767
Conditions/Version_2Pr/oneback(1)_v2.xlsx,New rule: Press 'space' when you see 1-back (i.e. the same letter as the one that appeared 1 letter ago.),r,None,,,,,0,1,1,1,0,0,0,0,,,,,,,,,,,,,,,,,,,,,,,,,,,,,,,,,232.8346777,None,235.8218431,None,space,6.9226446,235.8218431,None,232.8346777,None,1.39,242.769548,None,244.1600293,None,None,1,,244.1600293,None,246.159989,None,,,,,,,,,,,,,,,,,,,,,,,,,,,,,,,P042,FENCOG,2,Pre,2022_May_10_1058,N-Back (New Version 2021),2021.1.4,119.9909767
Conditions/Version_2Pr/oneback(1)_v2.xlsx,New rule: Press 'space' when you see 1-back (i.e. the same letter as the one that appeared 1 letter ago.),t,None,,,,,0,1,1,1,0,1,1,1,,,,,,,,,,,,,,,,,,,,,,,,,,,,,,,,,,,,,,,,,,,1.365,247.6671425,None,249.036458,None,None,1,,249.036458,None,251.0411123,None,,,,,,,,,,,,,,,,,,,,,,,,,,,,,,,P042,FENCOG,2,Pre,2022_May_10_1058,N-Back (New Version 2021),2021.1.4,119.9909767
Conditions/Version_2Pr/oneback(1)_v2.xlsx,New rule: Press 'space' when you see 1-back (i.e. the same letter as the one that appeared 1 letter ago.),Y,None,,,,,0,1,1,1,0,2,2,2,,,,,,,,,,,,,,,,,,,,,,,,,,,,,,,,,,,,,,,,,,,1.84,252.5406902,None,254.3823829,None,None,1,,254.3823829,None,256.3837502,None,,,,,,,,,,,,,,,,,,,,,,,,,,,,,,,P042,FENCOG,2,Pre,2022_May_10_1058,N-Back (New Version 2021),2021.1.4,119.9909767
Conditions/Version_2Pr/oneback(1)_v2.xlsx,New rule: Press 'space' when you see 1-back (i.e. the same letter as the one that appeared 1 letter ago.),y,space,,,,,0,1,1,1,0,3,3,3,,,,,,,,,,,,,,,,,,,,,,,,,,,,,,,,,,,,,,,,,,,1.24,257.8891056,None,259.1318544,None,space,1,0.3966046,259.1318544,None,259.539094,None,,,,,,,,,,,,,,,,,,,,,,,,,,,,,,,P042,FENCOG,2,Pre,2022_May_10_1058,N-Back (New Version 2021),2021.1.4,119.9909767
Conditions/Version_2Pr/oneback(1)_v2.xlsx,New rule: Press 'space' when you see 1-back (i.e. the same letter as the one that appeared 1 letter ago.),p,None,,,,,0,1,1,1,0,4,4,4,,,,,,,,,,,,,,,,,,,,,,,,,,,,,,,,,,,,,,,,,,,1.115,261.0463072,None,262.1645687,None,None,1,,262.1645687,None,264.170556,None,,,,,,,,,,,,,,,,,,,,,,,,,,,,,,,P042,FENCOG,2,Pre,2022_May_10_1058,N-Back (New Version 2021),2021.1.4,119.9909767
Conditions/Version_2Pr/oneback(1)_v2.xlsx,New rule: Press 'space' when you see 1-back (i.e. the same letter as the one that appeared 1 letter ago.),P,space,,,,,0,1,1,1,0,5,5,5,,,,,,,,,,,,,,,,,,,,,,,,,,,,,,,,,,,,,,,,,,,1.09,265.6700727,None,266.763529,None,space,1,0.3730981,266.763529,None,267.1445845,None,,,,,,,,,,,,,,,,,,,,,,,,,,,,,,,P042,FENCOG,2,Pre,2022_May_10_1058,N-Back (New Version 2021),2021.1.4,119.9909767
Conditions/Version_2Pr/oneback(1)_v2.xlsx,New rule: Press 'space' when you see 1-back (i.e. the same letter as the one that appeared 1 letter ago.),e,None,,,,,0,1,1,1,0,6,6,6,,,,,,,,,,,,,,,,,,,,,,,,,,,,,,,,,,,,,,,,,,,1.765,268.6440515,None,270.412735,None,None,1,,270.412735,None,272.4143798,None,,,,,,,,,,,,,,,,,,,,,,,,,,,,,,,P042,FENCOG,2,Pre,2022_May_10_1058,N-Back (New Version 2021),2021.1.4,119.9909767
Conditions/Version_2Pr/oneback(1)_v2.xlsx,New rule: Press 'space' when you see 1-back (i.e. the same letter as the one that appeared 1 letter ago.),r,None,,,,,0,1,1,1,0,7,7,7,,,,,,,,,,,,,,,,,,,,,,,,,,,,,,,,,,,,,,,,,,,1.915,273.9176755,None,275.8344255,None,None,1,,275.8344255,None,277.8415837,None,,,,,,,,,,,,,,,,,,,,,,,,,,,,,,,P042,FENCOG,2,Pre,2022_May_10_1058,N-Back (New Version 2021),2021.1.4,119.9909767
Conditions/Version_2Pr/oneback(1)_v2.xlsx,New rule: Press 'space' when you see 1-back (i.e. the same letter as the one that appeared 1 letter ago.),R,space,,,,,0,1,1,1,0,8,8,8,,,,,,,,,,,,,,,,,,,,,,,,,,,,,,,,,,,,,,,,,,,1.69,279.3410609,None,281.0331549,None,space,1,0.3273664,281.0331549,None,281.3753027,None,,,,,,,,,,,,,,,,,,,,,,,,,,,,,,,P042,FENCOG,2,Pre,2022_May_10_1058,N-Back (New Version 2021),2021.1.4,119.9909767
Conditions/Version_2Pr/oneback(1)_v2.xlsx,New rule: Press 'space' when you see 1-back (i.e. the same letter as the one that appeared 1 letter ago.),p,None,,,,,0,1,1,1,0,9,9,9,,,,,,,,,,,,,,,,,,,,,,,,,,,,,,,,,,,,,,,,,,,2.015,282.8816296,None,284.8983844,None,None,1,,284.8983844,None,286.9053661,None,,,,,,,,,,,,,,,,,,,,,,,,,,,,,,,P042,FENCOG,2,Pre,2022_May_10_1058,N-Back (New Version 2021),2021.1.4,119.9909767
Conditions/Version_2Pr/oneback(1)_v2.xlsx,New rule: Press 'space' when you see 1-back (i.e. the same letter as the one that appeared 1 letter ago.),,,,,,,0,1,1,1,,,,,,,,,,,,,,,,,,,,,,,,,,,,,,,,,,,,,,,,,,,,,,,,,,,,,,,,,,,,,,,,,,,,,,,,,,,,,,,,,,,,,,,,,P042,FENCOG,2,Pre,2022_May_10_1058,N-Back (New Version 2021),2021.1.4,119.9909767
Conditions/Version_2Pr/twoback(1)_v2.xlsx,New rule: Press 'space' when you see 2-back (i.e. the same letter as the one that appeared 2 letters ago.),r,None,,,,,0,2,2,2,0,0,0,0,,,,,,,,,,,,,,,,,,,,,,,,,,,,,,,,,288.4300417,None,291.4147124,None,space,0.4900476,291.4147124,None,288.4300417,None,2.015,291.9347324,None,293.9540872,None,None,1,,293.9540872,None,295.9611844,None,,,,,,,,,,,,,,,,,,,,,,,,,,,,,,,P042,FENCOG,2,Pre,2022_May_10_1058,N-Back (New Version 2021),2021.1.4,119.9909767
Conditions/Version_2Pr/twoback(1)_v2.xlsx,New rule: Press 'space' when you see 2-back (i.e. the same letter as the one that appeared 2 letters ago.),P,None,,,,,0,2,2,2,0,1,1,1,,,,,,,,,,,,,,,,,,,,,,,,,,,,,,,,,,,,,,,,,,,1.29,297.4608249,None,298.7528322,None,None,1,,298.7528322,None,300.7598615,None,,,,,,,,,,,,,,,,,,,,,,,,,,,,,,,P042,FENCOG,2,Pre,2022_May_10_1058,N-Back (New Version 2021),2021.1.4,119.9909767
Conditions/Version_2Pr/twoback(1)_v2.xlsx,New rule: Press 'space' when you see 2-back (i.e. the same letter as the one that appeared 2 letters ago.),o,None,,,,,0,2,2,2,0,2,2,2,,,,,,,,,,,,,,,,,,,,,,,,,,,,,,,,,,,,,,,,,,,1.815,302.2593541,None,304.0769598,None,None,1,,304.0769598,None,306.0831868,None,,,,,,,,,,,,,,,,,,,,,,,,,,,,,,,P042,FENCOG,2,Pre,2022_May_10_1058,N-Back (New Version 2021),2021.1.4,119.9909767
Conditions/Version_2Pr/twoback(1)_v2.xlsx,New rule: Press 'space' when you see 2-back (i.e. the same letter as the one that appeared 2 letters ago.),p,space,,,,,0,2,2,2,0,3,3,3,,,,,,,,,,,,,,,,,,,,,,,,,,,,,,,,,,,,,,,,,,,1.44,307.5825612,None,309.02505,None,space,1,0.5275706,309.02505,None,309.5660784,None,,,,,,,,,,,,,,,,,,,,,,,,,,,,,,,P042,FENCOG,2,Pre,2022_May_10_1058,N-Back (New Version 2021),2021.1.4,119.9909767
Conditions/Version_2Pr/twoback(1)_v2.xlsx,New rule: Press 'space' when you see 2-back (i.e. the same letter as the one that appeared 2 letters ago.),Y,None,,,,,0,2,2,2,0,4,4,4,,,,,,,,,,,,,,,,,,,,,,,,,,,,,,,,,,,,,,,,,,,1.065,311.0648437,None,312.131957,None,None,1,,312.131957,None,314.1391615,None,,,,,,,,,,,,,,,,,,,,,,,,,,,,,,,P042,FENCOG,2,Pre,2022_May_10_1058,N-Back (New Version 2021),2021.1.4,119.9909767
Conditions/Version_2Pr/twoback(1)_v2.xlsx,New rule: Press 'space' when you see 2-back (i.e. the same letter as the one that appeared 2 letters ago.),q,None,,,,,0,2,2,2,0,5,5,5,,,,,,,,,,,,,,,,,,,,,,,,,,,,,,,,,,,,,,,,,,,1.115,315.6386945,None,316.7553778,None,None,1,,316.7553778,None,318.7628273,None,,,,,,,,,,,,,,,,,,,,,,,,,,,,,,,P042,FENCOG,2,Pre,2022_May_10_1058,N-Back (New Version 2021),2021.1.4,119.9909767
Conditions/Version_2Pr/twoback(1)_v2.xlsx,New rule: Press 'space' when you see 2-back (i.e. the same letter as the one that appeared 2 letters ago.),m,None,,,,,0,2,2,2,0,6,6,6,,,,,,,,,,,,,,,,,,,,,,,,,,,,,,,,,,,,,,,,,,,1.74,320.262368,None,322.0036721,None,None,1,,322.0036721,None,324.0029039,None,,,,,,,,,,,,,,,,,,,,,,,,,,,,,,,P042,FENCOG,2,Pre,2022_May_10_1058,N-Back (New Version 2021),2021.1.4,119.9909767
Conditions/Version_2Pr/twoback(1)_v2.xlsx,New rule: Press 'space' when you see 2-back (i.e. the same letter as the one that appeared 2 letters ago.),Q,space,,,,,0,2,2,2,0,7,7,7,,,,,,,,,,,,,,,,,,,,,,,,,,,,,,,,,,,,,,,,,,,1.165,325.5024033,None,326.6723173,None,space,1,0.6163314,326.6723173,None,327.3022046,None,,,,,,,,,,,,,,,,,,,,,,,,,,,,,,,P042,FENCOG,2,Pre,2022_May_10_1058,N-Back (New Version 2021),2021.1.4,119.9909767
Conditions/Version_2Pr/twoback(1)_v2.xlsx,New rule: Press 'space' when you see 2-back (i.e. the same letter as the one that appeared 2 letters ago.),L,None,,,,,0,2,2,2,0,8,8,8,,,,,,,,,,,,,,,,,,,,,,,,,,,,,,,,,,,,,,,,,,,1.69,328.8015697,None,330.4965233,None,None,1,,330.4965233,None,332.5004072,None,,,,,,,,,,,,,,,,,,,,,,,,,,,,,,,P042,FENCOG,2,Pre,2022_May_10_1058,N-Back (New Version 2021),2021.1.4,119.9909767
Conditions/Version_2Pr/twoback(1)_v2.xlsx,New rule: Press 'space' when you see 2-back (i.e. the same letter as the one that appeared 2 letters ago.),q,space,,,,,0,2,2,2,0,9,9,9,,,,,,,,,,,,,,,,,,,,,,,,,,,,,,,,,,,,,,,,,,,1.765,334.0000441,None,335.7670367,None,space,1,0.4416592,335.7670367,None,336.2186743,None,,,,,,,,,,,,,,,,,,,,,,,,,,,,,,,P042,FENCOG,2,Pre,2022_May_10_1058,N-Back (New Version 2021),2021.1.4,119.9909767
Conditions/Version_2Pr/twoback(1)_v2.xlsx,New rule: Press 'space' when you see 2-back (i.e. the same letter as the one that appeared 2 letters ago.),,,,,,,0,2,2,2,,,,,,,,,,,,,,,,,,,,,,,,,,,,,,,,,,,,,,,,,,,,,,,,,,,,,,,,,,,,,,,,,,,,,,,,,,,,,,,,,,,,,,,,,P042,FENCOG,2,Pre,2022_May_10_1058,N-Back (New Version 2021),2021.1.4,119.9909767
Conditions/Version_2Pr/threeback(1)_v2.xlsx,New rule: Press 'space' when you see 3-back (i.e. the same letter as the one that appeared 3 letters ago.),u,None,,,,,0,3,3,3,0,0,0,0,,,,,,,,,,,,,,,,,,,,,,,,,,,,,,,,,337.7489888,None,340.7325861,None,space,4.6286316,340.7325861,None,337.7489888,None,1.665,345.3896801,None,347.0564202,None,None,1,,347.0564202,None,349.0622256,None,,,,,,,,,,,,,,,,,,,,,,,,,,,,,,,P042,FENCOG,2,Pre,2022_May_10_1058,N-Back (New Version 2021),2021.1.4,119.9909767
Conditions/Version_2Pr/threeback(1)_v2.xlsx,New rule: Press 'space' when you see 3-back (i.e. the same letter as the one that appeared 3 letters ago.),U,None,,,,,0,3,3,3,0,1,1,1,,,,,,,,,,,,,,,,,,,,,,,,,,,,,,,,,,,,,,,,,,,1.465,350.5617254,None,352.0275773,None,None,1,,352.0275773,None,354.0269828,None,,,,,,,,,,,,,,,,,,,,,,,,,,,,,,,P042,FENCOG,2,Pre,2022_May_10_1058,N-Back (New Version 2021),2021.1.4,119.9909767
Conditions/Version_2Pr/threeback(1)_v2.xlsx,New rule: Press 'space' when you see 3-back (i.e. the same letter as the one that appeared 3 letters ago.),p,None,,,,,0,3,3,3,0,2,2,2,,,,,,,,,,,,,,,,,,,,,,,,,,,,,,,,,,,,,,,,,,,1.315,355.5268377,None,356.8452711,None,None,1,,356.8452711,None,358.8510855,None,,,,,,,,,,,,,,,,,,,,,,,,,,,,,,,P042,FENCOG,2,Pre,2022_May_10_1058,N-Back (New Version 2021),2021.1.4,119.9909767
Conditions/Version_2Pr/threeback(1)_v2.xlsx,New rule: Press 'space' when you see 3-back (i.e. the same letter as the one that appeared 3 letters ago.),U,space,,,,,0,3,3,3,0,3,3,3,,,,,,,,,,,,,,,,,,,,,,,,,,,,,,,,,,,,,,,,,,,1.79,360.3504573,None,362.1415723,None,space,1,0.3868976,362.1415723,None,362.5429578,None,,,,,,,,,,,,,,,,,,,,,,,,,,,,,,,P042,FENCOG,2,Pre,2022_May_10_1058,N-Back (New Version 2021),2021.1.4,119.9909767
Conditions/Version_2Pr/threeback(1)_v2.xlsx,New rule: Press 'space' when you see 3-back (i.e. the same letter as the one that appeared 3 letters ago.),e,None,,,,,0,3,3,3,0,4,4,4,,,,,,,,,,,,,,,,,,,,,,,,,,,,,,,,,,,,,,,,,,,1.965,364.0511458,None,366.0162634,None,None,1,,366.0162634,None,368.0216142,None,,,,,,,,,,,,,,,,,,,,,,,,,,,,,,,P042,FENCOG,2,Pre,2022_May_10_1058,N-Back (New Version 2021),2021.1.4,119.9909767
Conditions/Version_2Pr/threeback(1)_v2.xlsx,New rule: Press 'space' when you see 3-back (i.e. the same letter as the one that appeared 3 letters ago.),R,None,,,,,0,3,3,3,0,5,5,5,,,,,,,,,,,,,,,,,,,,,,,,,,,,,,,,,,,,,,,,,,,1.84,369.522682,None,371.365018,None,None,1,,371.365018,None,373.3652039,None,,,,,,,,,,,,,,,,,,,,,,,,,,,,,,,P042,FENCOG,2,Pre,2022_May_10_1058,N-Back (New Version 2021),2021.1.4,119.9909767
Conditions/Version_2Pr/threeback(1)_v2.xlsx,New rule: Press 'space' when you see 3-back (i.e. the same letter as the one that appeared 3 letters ago.),p,None,,,,,0,3,3,3,0,6,6,6,,,,,,,,,,,,,,,,,,,,,,,,,,,,,,,,,,,,,,,,,,,1.99,374.8712076,None,376.8642601,None,space,0,0.3843951,376.8642601,None,377.2681754,None,,,,,,,,,,,,,,,,,,,,,,,,,,,,,,,P042,FENCOG,2,Pre,2022_May_10_1058,N-Back (New Version 2021),2021.1.4,119.9909767
Conditions/Version_2Pr/threeback(1)_v2.xlsx,New rule: Press 'space' when you see 3-back (i.e. the same letter as the one that appeared 3 letters ago.),E,space,,,,,0,3,3,3,0,7,7,7,,,,,,,,,,,,,,,,,,,,,,,,,,,,,,,,,,,,,,,,,,,1.59,378.7700605,None,380.3629856,None,space,1,0.6136366,380.3629856,None,380.9914474,None,,,,,,,,,,,,,,,,,,,,,,,,,,,,,,,P042,FENCOG,2,Pre,2022_May_10_1058,N-Back (New Version 2021),2021.1.4,119.9909767
Conditions/Version_2Pr/threeback(1)_v2.xlsx,New rule: Press 'space' when you see 3-back (i.e. the same letter as the one that appeared 3 letters ago.),k,None,,,,,0,3,3,3,0,8,8,8,,,,,,,,,,,,,,,,,,,,,,,,,,,,,,,,,,,,,,,,,,,1.24,382.4937943,None,383.7370901,None,None,1,,383.7370901,None,385.7429041,None,,,,,,,,,,,,,,,,,,,,,,,,,,,,,,,P042,FENCOG,2,Pre,2022_May_10_1058,N-Back (New Version 2021),2021.1.4,119.9909767
Conditions/Version_2Pr/threeback(1)_v2.xlsx,New rule: Press 'space' when you see 3-back (i.e. the same letter as the one that appeared 3 letters ago.),m,None,,,,,0,3,3,3,0,9,9,9,,,,,,,,,,,,,,,,,,,,,,,,,,,,,,,,,,,,,,,,,,,1.64,387.242645,None,388.8840012,None,None,1,,388.8840012,None,390.8831953,None,,,,,,,,,,,,,,,,,,,,,,,,,,,,,,,P042,FENCOG,2,Pre,2022_May_10_1058,N-Back (New Version 2021),2021.1.4,119.9909767
Conditions/Version_2Pr/threeback(1)_v2.xlsx,New rule: Press 'space' when you see 3-back (i.e. the same letter as the one that appeared 3 letters ago.),,,,,,,0,3,3,3,,,,,,,,,,,,,,,,,,,,,,,,,,,,,,,,,,,,,,,,,,,,,,,,,,,,,,,,,,,,,,,,,,,,,,,,,,,,,,,,,,,,,,,,,P042,FENCOG,2,Pre,2022_May_10_1058,N-Back (New Version 2021),2021.1.4,119.9909767
,,,,,,,,,,,,,,,,,,,,,,,,,,,,,,,,,,,,,,,,,,,,,,,,,,,,,,,,,,,,,,,,,,,,,,392.3897865,None,space,12.4379493,392.8826216,None,,,,,,,,,,,,,,,,,,,,,,,,,P042,FENCOG,2,Pre,2022_May_10_1058,N-Back (New Version 2021),2021.1.4,119.9909767
,,,,,,,,,,,,,,,,,,,,,,,,,,,,,,,,,,,,,,,,,,,,,,,,,,,,,,,,,,,,,,,,,,,,,,,,,,,,405.3442038,None,space,3.1308977,405.8376209,None,,,,,,,,,,,,,,,,,,,P042,FENCOG,2,Pre,2022_May_10_1058,N-Back (New Version 2021),2021.1.4,119.9909767
,,,,Conditions/Version_1/zeroback(1)_v1.xlsx,Rule: Press 'space' when you see the letter 'x' or 'X'.,b,None,,,,,,,,,0,0,0,0,0,0,0,0,,,,,,,,,,,,,,,,,,,,,,,,,,,,,,,,,,,,,,,,,,,,,,,,,,,,,,,,,,,409.0888742,None,412.0796366,None,space,1.4730759,412.0796366,None,409.0888742,None,1.971,415.5713625,None,None,1,415.5713625,None,,P042,FENCOG,2,Pre,2022_May_10_1058,N-Back (New Version 2021),2021.1.4,119.9909767
,,,,Conditions/Version_1/zeroback(1)_v1.xlsx,Rule: Press 'space' when you see the letter 'x' or 'X'.,T,None,,,,,,,,,0,0,0,0,0,1,1,1,,,,,,,,,,,,,,,,,,,,,,,,,,,,,,,,,,,,,,,,,,,,,,,,,,,,,,,,,,,,,,,,,,,,,1.8284,419.4096115,None,None,1,419.4096115,None,,P042,FENCOG,2,Pre,2022_May_10_1058,N-Back (New Version 2021),2021.1.4,119.9909767
,,,,Conditions/Version_1/zeroback(1)_v1.xlsx,Rule: Press 'space' when you see the letter 'x' or 'X'.,L,None,,,,,,,,,0,0,0,0,0,2,2,2,,,,,,,,,,,,,,,,,,,,,,,,,,,,,,,,,,,,,,,,,,,,,,,,,,,,,,,,,,,,,,,,,,,,,1.3448,422.7656776,None,None,1,422.7656776,None,,P042,FENCOG,2,Pre,2022_May_10_1058,N-Back (New Version 2021),2021.1.4,119.9909767
,,,,Conditions/Version_1/zeroback(1)_v1.xlsx,Rule: Press 'space' when you see the letter 'x' or 'X'.,x,space,,,,,,,,,0,0,0,0,0,3,3,3,,,,,,,,,,,,,,,,,,,,,,,,,,,,,,,,,,,,,,,,,,,,,,,,,,,,,,,,,,,,,,,,,,,,,1.2952,426.066174,None,space,1,426.066174,None,0.4543653,P042,FENCOG,2,Pre,2022_May_10_1058,N-Back (New Version 2021),2021.1.4,119.9909767
,,,,Conditions/Version_1/zeroback(1)_v1.xlsx,Rule: Press 'space' when you see the letter 'x' or 'X'.,o,None,,,,,,,,,0,0,0,0,0,4,4,4,,,,,,,,,,,,,,,,,,,,,,,,,,,,,,,,,,,,,,,,,,,,,,,,,,,,,,,,,,,,,,,,,,,,,1.878,429.9547536,None,None,1,429.9547536,None,,P042,FENCOG,2,Pre,2022_May_10_1058,N-Back (New Version 2021),2021.1.4,119.9909767
,,,,Conditions/Version_1/zeroback(1)_v1.xlsx,Rule: Press 'space' when you see the letter 'x' or 'X'.,P,None,,,,,,,,,0,0,0,0,0,5,5,5,,,,,,,,,,,,,,,,,,,,,,,,,,,,,,,,,,,,,,,,,,,,,,,,,,,,,,,,,,,,,,,,,,,,,1.7106,433.6703161,None,None,1,433.6703161,None,,P042,FENCOG,2,Pre,2022_May_10_1058,N-Back (New Version 2021),2021.1.4,119.9909767
,,,,Conditions/Version_1/zeroback(1)_v1.xlsx,Rule: Press 'space' when you see the letter 'x' or 'X'.,X,space,,,,,,,,,0,0,0,0,0,6,6,6,,,,,,,,,,,,,,,,,,,,,,,,,,,,,,,,,,,,,,,,,,,,,,,,,,,,,,,,,,,,,,,,,,,,,1.5432,437.21939,None,space,1,437.21939,None,0.3891715,P042,FENCOG,2,Pre,2022_May_10_1058,N-Back (New Version 2021),2021.1.4,119.9909767
,,,,Conditions/Version_1/zeroback(1)_v1.xlsx,Rule: Press 'space' when you see the letter 'x' or 'X'.,n,None,,,,,,,,,0,0,0,0,0,7,7,7,,,,,,,,,,,,,,,,,,,,,,,,,,,,,,,,,,,,,,,,,,,,,,,,,,,,,,,,,,,,,,,,,,,,,1.2704,440.4942039,None,None,1,440.4942039,None,,P042,FENCOG,2,Pre,2022_May_10_1058,N-Back (New Version 2021),2021.1.4,119.9909767
,,,,Conditions/Version_1/zeroback(1)_v1.xlsx,Rule: Press 'space' when you see the letter 'x' or 'X'.,M,None,,,,,,,,,0,0,0,0,0,8,8,8,,,,,,,,,,,,,,,,,,,,,,,,,,,,,,,,,,,,,,,,,,,,,,,,,,,,,,,,,,,,,,,,,,,,,1.5246,444.0285943,None,None,1,444.0285943,None,,P042,FENCOG,2,Pre,2022_May_10_1058,N-Back (New Version 2021),2021.1.4,119.9909767
,,,,Conditions/Version_1/zeroback(1)_v1.xlsx,Rule: Press 'space' when you see the letter 'x' or 'X'.,a,None,,,,,,,,,0,0,0,0,0,9,9,9,,,,,,,,,,,,,,,,,,,,,,,,,,,,,,,,,,,,,,,,,,,,,,,,,,,,,,,,,,,,,,,,,,,,,1.6238,447.6596918,None,None,1,447.6596918,None,,P042,FENCOG,2,Pre,2022_May_10_1058,N-Back (New Version 2021),2021.1.4,119.9909767
,,,,Conditions/Version_1/zeroback(1)_v1.xlsx,Rule: Press 'space' when you see the letter 'x' or 'X'.,,,,,,,,,,,0,0,0,0,,,,,,,,,,,,,,,,,,,,,,,,,,,,,,,,,,,,,,,,,,,,,,,,,,,,,,,,,,,,,,,,,,,,,,,,,,,,,,,,,P042,FENCOG,2,Pre,2022_May_10_1058,N-Back (New Version 2021),2021.1.4,119.9909767
,,,,Conditions/Version_1/oneback(1)_v1.xlsx,New rule: Press 'space' when you see 1-back (i.e. the same letter as the one that appeared 1 letter ago.),b,None,,,,,,,,,0,1,1,1,0,0,0,0,,,,,,,,,,,,,,,,,,,,,,,,,,,,,,,,,,,,,,,,,,,,,,,,,,,,,,,,,,,449.6938416,None,452.67471,None,space,0.5419592,452.67471,None,449.6938416,None,1.4006,454.657068,None,None,1,454.657068,None,,P042,FENCOG,2,Pre,2022_May_10_1058,N-Back (New Version 2021),2021.1.4,119.9909767
,,,,Conditions/Version_1/oneback(1)_v1.xlsx,New rule: Press 'space' when you see 1-back (i.e. the same letter as the one that appeared 1 letter ago.),p,None,,,,,,,,,0,1,1,1,0,1,1,1,,,,,,,,,,,,,,,,,,,,,,,,,,,,,,,,,,,,,,,,,,,,,,,,,,,,,,,,,,,,,,,,,,,,,1.444,458.1151905,None,None,1,458.1151905,None,,P042,FENCOG,2,Pre,2022_May_10_1058,N-Back (New Version 2021),2021.1.4,119.9909767
,,,,Conditions/Version_1/oneback(1)_v1.xlsx,New rule: Press 'space' when you see 1-back (i.e. the same letter as the one that appeared 1 letter ago.),M,None,,,,,,,,,0,1,1,1,0,2,2,2,,,,,,,,,,,,,,,,,,,,,,,,,,,,,,,,,,,,,,,,,,,,,,,,,,,,,,,,,,,,,,,,,,,,,1.8284,461.9537164,None,None,1,461.9537164,None,,P042,FENCOG,2,Pre,2022_May_10_1058,N-Back (New Version 2021),2021.1.4,119.9909767
,,,,Conditions/Version_1/oneback(1)_v1.xlsx,New rule: Press 'space' when you see 1-back (i.e. the same letter as the one that appeared 1 letter ago.),M,space,,,,,,,,,0,1,1,1,0,3,3,3,,,,,,,,,,,,,,,,,,,,,,,,,,,,,,,,,,,,,,,,,,,,,,,,,,,,,,,,,,,,,,,,,,,,,1.6362,465.5944444,None,space,1,465.5944444,None,0.4459885,P042,FENCOG,2,Pre,2022_May_10_1058,N-Back (New Version 2021),2021.1.4,119.9909767
,,,,Conditions/Version_1/oneback(1)_v1.xlsx,New rule: Press 'space' when you see 1-back (i.e. the same letter as the one that appeared 1 letter ago.),n,None,,,,,,,,,0,1,1,1,0,4,4,4,,,,,,,,,,,,,,,,,,,,,,,,,,,,,,,,,,,,,,,,,,,,,,,,,,,,,,,,,,,,,,,,,,,,,1.2394,468.8349696,None,None,1,468.8349696,None,,P042,FENCOG,2,Pre,2022_May_10_1058,N-Back (New Version 2021),2021.1.4,119.9909767
,,,,Conditions/Version_1/oneback(1)_v1.xlsx,New rule: Press 'space' when you see 1-back (i.e. the same letter as the one that appeared 1 letter ago.),g,None,,,,,,,,,0,1,1,1,0,5,5,5,,,,,,,,,,,,,,,,,,,,,,,,,,,,,,,,,,,,,,,,,,,,,,,,,,,,,,,,,,,,,,,,,,,,,1.7292,472.5693156,None,None,1,472.5693156,None,,P042,FENCOG,2,Pre,2022_May_10_1058,N-Back (New Version 2021),2021.1.4,119.9909767
,,,,Conditions/Version_1/oneback(1)_v1.xlsx,New rule: Press 'space' when you see 1-back (i.e. the same letter as the one that appeared 1 letter ago.),P,None,,,,,,,,,0,1,1,1,0,6,6,6,,,,,,,,,,,,,,,,,,,,,,,,,,,,,,,,,,,,,,,,,,,,,,,,,,,,,,,,,,,,,,,,,,,,,1.4564,476.0339562,None,None,1,476.0339562,None,,P042,FENCOG,2,Pre,2022_May_10_1058,N-Back (New Version 2021),2021.1.4,119.9909767
,,,,Conditions/Version_1/oneback(1)_v1.xlsx,New rule: Press 'space' when you see 1-back (i.e. the same letter as the one that appeared 1 letter ago.),o,None,,,,,,,,,0,1,1,1,0,7,7,7,,,,,,,,,,,,,,,,,,,,,,,,,,,,,,,,,,,,,,,,,,,,,,,,,,,,,,,,,,,,,,,,,,,,,1.2518,479.299686,None,None,1,479.299686,None,,P042,FENCOG,2,Pre,2022_May_10_1058,N-Back (New Version 2021),2021.1.4,119.9909767
,,,,Conditions/Version_1/oneback(1)_v1.xlsx,New rule: Press 'space' when you see 1-back (i.e. the same letter as the one that appeared 1 letter ago.),f,None,,,,,,,,,0,1,1,1,0,8,8,8,,,,,,,,,,,,,,,,,,,,,,,,,,,,,,,,,,,,,,,,,,,,,,,,,,,,,,,,,,,,,,,,,,,,,1.9958,483.308754,None,None,1,483.308754,None,,P042,FENCOG,2,Pre,2022_May_10_1058,N-Back (New Version 2021),2021.1.4,119.9909767
,,,,Conditions/Version_1/oneback(1)_v1.xlsx,New rule: Press 'space' when you see 1-back (i.e. the same letter as the one that appeared 1 letter ago.),F,space,,,,,,,,,0,1,1,1,0,9,9,9,,,,,,,,,,,,,,,,,,,,,,,,,,,,,,,,,,,,,,,,,,,,,,,,,,,,,,,,,,,,,,,,,,,,,1.7726,487.0895989,None,space,1,487.0895989,None,0.3987634,P042,FENCOG,2,Pre,2022_May_10_1058,N-Back (New Version 2021),2021.1.4,119.9909767
,,,,Conditions/Version_1/oneback(1)_v1.xlsx,New rule: Press 'space' when you see 1-back (i.e. the same letter as the one that appeared 1 letter ago.),,,,,,,,,,,0,1,1,1,,,,,,,,,,,,,,,,,,,,,,,,,,,,,,,,,,,,,,,,,,,,,,,,,,,,,,,,,,,,,,,,,,,,,,,,,,,,,,,,,P042,FENCOG,2,Pre,2022_May_10_1058,N-Back (New Version 2021),2021.1.4,119.9909767
,,,,Conditions/Version_1/twoback(1)_v1.xlsx,New rule: Press 'space' when you see 2-back (i.e. the same letter as the one that appeared 2 letters ago.),b,None,,,,,,,,,0,2,2,2,0,0,0,0,,,,,,,,,,,,,,,,,,,,,,,,,,,,,,,,,,,,,,,,,,,,,,,,,,,,,,,,,,,489.1175749,None,492.1055549,None,space,2.7749331,492.1055549,None,489.1175749,None,1.9834,496.8935919,None,None,1,496.8935919,None,,P042,FENCOG,2,Pre,2022_May_10_1058,N-Back (New Version 2021),2021.1.4,119.9909767
,,,,Conditions/Version_1/twoback(1)_v1.xlsx,New rule: Press 'space' when you see 2-back (i.e. the same letter as the one that appeared 2 letters ago.),h,None,,,,,,,,,0,2,2,2,0,1,1,1,,,,,,,,,,,,,,,,,,,,,,,,,,,,,,,,,,,,,,,,,,,,,,,,,,,,,,,,,,,,,,,,,,,,,1.2518,500.1536041,None,None,1,500.1536041,None,,P042,FENCOG,2,Pre,2022_May_10_1058,N-Back (New Version 2021),2021.1.4,119.9909767
,,,,Conditions/Version_1/twoback(1)_v1.xlsx,New rule: Press 'space' when you see 2-back (i.e. the same letter as the one that appeared 2 letters ago.),j,None,,,,,,,,,0,2,2,2,0,2,2,2,,,,,,,,,,,,,,,,,,,,,,,,,,,,,,,,,,,,,,,,,,,,,,,,,,,,,,,,,,,,,,,,,,,,,1.6424,503.8097354,None,None,1,503.8097354,None,,P042,FENCOG,2,Pre,2022_May_10_1058,N-Back (New Version 2021),2021.1.4,119.9909767
,,,,Conditions/Version_1/twoback(1)_v1.xlsx,New rule: Press 'space' when you see 2-back (i.e. the same letter as the one that appeared 2 letters ago.),H,space,,,,,,,,,0,2,2,2,0,3,3,3,,,,,,,,,,,,,,,,,,,,,,,,,,,,,,,,,,,,,,,,,,,,,,,,,,,,,,,,,,,,,,,,,,,,,1.4192,507.2425638,None,space,1,507.2425638,None,0.5259628,P042,FENCOG,2,Pre,2022_May_10_1058,N-Back (New Version 2021),2021.1.4,119.9909767
,,,,Conditions/Version_1/twoback(1)_v1.xlsx,New rule: Press 'space' when you see 2-back (i.e. the same letter as the one that appeared 2 letters ago.),p,None,,,,,,,,,0,2,2,2,0,4,4,4,,,,,,,,,,,,,,,,,,,,,,,,,,,,,,,,,,,,,,,,,,,,,,,,,,,,,,,,,,,,,,,,,,,,,1.2146,510.4643044,None,None,1,510.4643044,None,,P042,FENCOG,2,Pre,2022_May_10_1058,N-Back (New Version 2021),2021.1.4,119.9909767
,,,,Conditions/Version_1/twoback(1)_v1.xlsx,New rule: Press 'space' when you see 2-back (i.e. the same letter as the one that appeared 2 letters ago.),p,None,,,,,,,,,0,2,2,2,0,5,5,5,,,,,,,,,,,,,,,,,,,,,,,,,,,,,,,,,,,,,,,,,,,,,,,,,,,,,,,,,,,,,,,,,,,,,1.7044,514.1718318,None,None,1,514.1718318,None,,P042,FENCOG,2,Pre,2022_May_10_1058,N-Back (New Version 2021),2021.1.4,119.9909767
,,,,Conditions/Version_1/twoback(1)_v1.xlsx,New rule: Press 'space' when you see 2-back (i.e. the same letter as the one that appeared 2 letters ago.),w,None,,,,,,,,,0,2,2,2,0,6,6,6,,,,,,,,,,,,,,,,,,,,,,,,,,,,,,,,,,,,,,,,,,,,,,,,,,,,,,,,,,,,,,,,,,,,,1.5866,517.764154,None,None,1,517.764154,None,,P042,FENCOG,2,Pre,2022_May_10_1058,N-Back (New Version 2021),2021.1.4,119.9909767
,,,,Conditions/Version_1/twoback(1)_v1.xlsx,New rule: Press 'space' when you see 2-back (i.e. the same letter as the one that appeared 2 letters ago.),R,None,,,,,,,,,0,2,2,2,0,7,7,7,,,,,,,,,,,,,,,,,,,,,,,,,,,,,,,,,,,,,,,,,,,,,,,,,,,,,,,,,,,,,,,,,,,,,1.6114,521.3881925,None,None,1,521.3881925,None,,P042,FENCOG,2,Pre,2022_May_10_1058,N-Back (New Version 2021),2021.1.4,119.9909767
,,,,Conditions/Version_1/twoback(1)_v1.xlsx,New rule: Press 'space' when you see 2-back (i.e. the same letter as the one that appeared 2 letters ago.),a,None,,,,,,,,,0,2,2,2,0,8,8,8,,,,,,,,,,,,,,,,,,,,,,,,,,,,,,,,,,,,,,,,,,,,,,,,,,,,,,,,,,,,,,,,,,,,,1.4502,524.8433863,None,None,1,524.8433863,None,,P042,FENCOG,2,Pre,2022_May_10_1058,N-Back (New Version 2021),2021.1.4,119.9909767
,,,,Conditions/Version_1/twoback(1)_v1.xlsx,New rule: Press 'space' when you see 2-back (i.e. the same letter as the one that appeared 2 letters ago.),r,space,,,,,,,,,0,2,2,2,0,9,9,9,,,,,,,,,,,,,,,,,,,,,,,,,,,,,,,,,,,,,,,,,,,,,,,,,,,,,,,,,,,,,,,,,,,,,1.4316,528.2767845,None,space,1,528.2767845,None,1.3236725,P042,FENCOG,2,Pre,2022_May_10_1058,N-Back (New Version 2021),2021.1.4,119.9909767
,,,,Conditions/Version_1/twoback(1)_v1.xlsx,New rule: Press 'space' when you see 2-back (i.e. the same letter as the one that appeared 2 letters ago.),,,,,,,,,,,0,2,2,2,,,,,,,,,,,,,,,,,,,,,,,,,,,,,,,,,,,,,,,,,,,,,,,,,,,,,,,,,,,,,,,,,,,,,,,,,,,,,,,,,P042,FENCOG,2,Pre,2022_May_10_1058,N-Back (New Version 2021),2021.1.4,119.9909767
,,,,Conditions/Version_1/threeback(1)_v1.xlsx,New rule: Press 'space' when you see 3-back (i.e. the same letter as the one that appeared 3 letters ago.),r,None,,,,,,,,,0,3,3,3,0,0,0,0,,,,,,,,,,,,,,,,,,,,,,,,,,,,,,,,,,,,,,,,,,,,,,,,,,,,,,,,,,,530.3053357,None,533.2933256,None,space,1.162983,533.2933256,None,530.3053357,None,1.6486,536.1402799,None,None,1,536.1402799,None,,P042,FENCOG,2,Pre,2022_May_10_1058,N-Back (New Version 2021),2021.1.4,119.9909767
,,,,Conditions/Version_1/threeback(1)_v1.xlsx,New rule: Press 'space' when you see 3-back (i.e. the same letter as the one that appeared 3 letters ago.),o,None,,,,,,,,,0,3,3,3,0,1,1,1,,,,,,,,,,,,,,,,,,,,,,,,,,,,,,,,,,,,,,,,,,,,,,,,,,,,,,,,,,,,,,,,,,,,,1.754,539.9000972,None,None,1,539.9000972,None,,P042,FENCOG,2,Pre,2022_May_10_1058,N-Back (New Version 2021),2021.1.4,119.9909767
,,,,Conditions/Version_1/threeback(1)_v1.xlsx,New rule: Press 'space' when you see 3-back (i.e. the same letter as the one that appeared 3 letters ago.),P,None,,,,,,,,,0,3,3,3,0,2,2,2,,,,,,,,,,,,,,,,,,,,,,,,,,,,,,,,,,,,,,,,,,,,,,,,,,,,,,,,,,,,,,,,,,,,,1.2952,543.2046663,None,None,1,543.2046663,None,,P042,FENCOG,2,Pre,2022_May_10_1058,N-Back (New Version 2021),2021.1.4,119.9909767
,,,,Conditions/Version_1/threeback(1)_v1.xlsx,New rule: Press 'space' when you see 3-back (i.e. the same letter as the one that appeared 3 letters ago.),R,space,,,,,,,,,0,3,3,3,0,3,3,3,,,,,,,,,,,,,,,,,,,,,,,,,,,,,,,,,,,,,,,,,,,,,,,,,,,,,,,,,,,,,,,,,,,,,1.3448,546.5560284,None,space,1,546.5560284,None,0.676285,P042,FENCOG,2,Pre,2022_May_10_1058,N-Back (New Version 2021),2021.1.4,119.9909767
,,,,Conditions/Version_1/threeback(1)_v1.xlsx,New rule: Press 'space' when you see 3-back (i.e. the same letter as the one that appeared 3 letters ago.),p,None,,,,,,,,,0,3,3,3,0,4,4,4,,,,,,,,,,,,,,,,,,,,,,,,,,,,,,,,,,,,,,,,,,,,,,,,,,,,,,,,,,,,,,,,,,,,,1.041,549.6049038,None,space,0,549.6049038,None,1.3635608,P042,FENCOG,2,Pre,2022_May_10_1058,N-Back (New Version 2021),2021.1.4,119.9909767
,,,,Conditions/Version_1/threeback(1)_v1.xlsx,New rule: Press 'space' when you see 3-back (i.e. the same letter as the one that appeared 3 letters ago.),E,None,,,,,,,,,0,3,3,3,0,5,5,5,,,,,,,,,,,,,,,,,,,,,,,,,,,,,,,,,,,,,,,,,,,,,,,,,,,,,,,,,,,,,,,,,,,,,1.7354,553.3559343,None,space,0,553.3559343,None,1.7005601,P042,FENCOG,2,Pre,2022_May_10_1058,N-Back (New Version 2021),2021.1.4,119.9909767
,,,,Conditions/Version_1/threeback(1)_v1.xlsx,New rule: Press 'space' when you see 3-back (i.e. the same letter as the one that appeared 3 letters ago.),e,None,,,,,,,,,0,3,3,3,0,6,6,6,,,,,,,,,,,,,,,,,,,,,,,,,,,,,,,,,,,,,,,,,,,,,,,,,,,,,,,,,,,,,,,,,,,,,1.7788,557.1420279,None,None,1,557.1420279,None,,P042,FENCOG,2,Pre,2022_May_10_1058,N-Back (New Version 2021),2021.1.4,119.9909767
,,,,Conditions/Version_1/threeback(1)_v1.xlsx,New rule: Press 'space' when you see 3-back (i.e. the same letter as the one that appeared 3 letters ago.),m,None,,,,,,,,,0,3,3,3,0,7,7,7,,,,,,,,,,,,,,,,,,,,,,,,,,,,,,,,,,,,,,,,,,,,,,,,,,,,,,,,,,,,,,,,,,,,,1.785,560.9341557,None,None,1,560.9341557,None,,P042,FENCOG,2,Pre,2022_May_10_1058,N-Back (New Version 2021),2021.1.4,119.9909767
,,,,Conditions/Version_1/threeback(1)_v1.xlsx,New rule: Press 'space' when you see 3-back (i.e. the same letter as the one that appeared 3 letters ago.),n,None,,,,,,,,,0,3,3,3,0,8,8,8,,,,,,,,,,,,,,,,,,,,,,,,,,,,,,,,,,,,,,,,,,,,,,,,,,,,,,,,,,,,,,,,,,,,,1.6548,564.5984794,None,None,1,564.5984794,None,,P042,FENCOG,2,Pre,2022_May_10_1058,N-Back (New Version 2021),2021.1.4,119.9909767
,,,,Conditions/Version_1/threeback(1)_v1.xlsx,New rule: Press 'space' when you see 3-back (i.e. the same letter as the one that appeared 3 letters ago.),e,space,,,,,,,,,0,3,3,3,0,9,9,9,,,,,,,,,,,,,,,,,,,,,,,,,,,,,,,,,,,,,,,,,,,,,,,,,,,,,,,,,,,,,,,,,,,,,1.7478,568.3473108,None,space,1,568.3473108,None,1.1491348,P042,FENCOG,2,Pre,2022_May_10_1058,N-Back (New Version 2021),2021.1.4,119.9909767
,,,,Conditions/Version_1/threeback(1)_v1.xlsx,New rule: Press 'space' when you see 3-back (i.e. the same letter as the one that appeared 3 letters ago.),,,,,,,,,,,0,3,3,3,,,,,,,,,,,,,,,,,,,,,,,,,,,,,,,,,,,,,,,,,,,,,,,,,,,,,,,,,,,,,,,,,,,,,,,,,,,,,,,,,P042,FENCOG,2,Pre,2022_May_10_1058,N-Back (New Version 2021),2021.1.4,119.9909767
,,,,Conditions/Version_1/oneback(2)_v1.xlsx,New rule: Press 'space' when you see 1-back (i.e. the same letter as the one that appeared 1 letter ago.),q,None,,,,,,,,,0,4,4,4,0,0,0,0,,,,,,,,,,,,,,,,,,,,,,,,,,,,,,,,,,,,,,,,,,,,,,,,,,,,,,,,,,,570.36996,None,573.3480745,None,space,0.116438,573.3480745,None,570.36996,None,1.9648,575.4704563,None,None,1,575.4704563,None,,P042,FENCOG,2,Pre,2022_May_10_1058,N-Back (New Version 2021),2021.1.4,119.9909767
,,,,Conditions/Version_1/oneback(2)_v1.xlsx,New rule: Press 'space' when you see 1-back (i.e. the same letter as the one that appeared 1 letter ago.),Q,space,,,,,,,,,0,4,4,4,0,1,1,1,,,,,,,,,,,,,,,,,,,,,,,,,,,,,,,,,,,,,,,,,,,,,,,,,,,,,,,,,,,,,,,,,,,,,1.5432,579.0214722,None,space,1,579.0214722,None,0.5389853,P042,FENCOG,2,Pre,2022_May_10_1058,N-Back (New Version 2021),2021.1.4,119.9909767
,,,,Conditions/Version_1/oneback(2)_v1.xlsx,New rule: Press 'space' when you see 1-back (i.e. the same letter as the one that appeared 1 letter ago.),P,None,,,,,,,,,0,4,4,4,0,2,2,2,,,,,,,,,,,,,,,,,,,,,,,,,,,,,,,,,,,,,,,,,,,,,,,,,,,,,,,,,,,,,,,,,,,,,1.4564,582.4858052,None,None,1,582.4858052,None,,P042,FENCOG,2,Pre,2022_May_10_1058,N-Back (New Version 2021),2021.1.4,119.9909767
,,,,Conditions/Version_1/oneback(2)_v1.xlsx,New rule: Press 'space' when you see 1-back (i.e. the same letter as the one that appeared 1 letter ago.),o,None,,,,,,,,,0,4,4,4,0,3,3,3,,,,,,,,,,,,,,,,,,,,,,,,,,,,,,,,,,,,,,,,,,,,,,,,,,,,,,,,,,,,,,,,,,,,,1.7168,586.2097068,None,None,1,586.2097068,None,,P042,FENCOG,2,Pre,2022_May_10_1058,N-Back (New Version 2021),2021.1.4,119.9909767
,,,,Conditions/Version_1/oneback(2)_v1.xlsx,New rule: Press 'space' when you see 1-back (i.e. the same letter as the one that appeared 1 letter ago.),m,None,,,,,,,,,0,4,4,4,0,4,4,4,,,,,,,,,,,,,,,,,,,,,,,,,,,,,,,,,,,,,,,,,,,,,,,,,,,,,,,,,,,,,,,,,,,,,1.7974,590.0158096,None,None,1,590.0158096,None,,P042,FENCOG,2,Pre,2022_May_10_1058,N-Back (New Version 2021),2021.1.4,119.9909767
,,,,Conditions/Version_1/oneback(2)_v1.xlsx,New rule: Press 'space' when you see 1-back (i.e. the same letter as the one that appeared 1 letter ago.),Z,None,,,,,,,,,0,4,4,4,0,5,5,5,,,,,,,,,,,,,,,,,,,,,,,,,,,,,,,,,,,,,,,,,,,,,,,,,,,,,,,,,,,,,,,,,,,,,1.2084,593.2254109,None,None,1,593.2254109,None,,P042,FENCOG,2,Pre,2022_May_10_1058,N-Back (New Version 2021),2021.1.4,119.9909767
,,,,Conditions/Version_1/oneback(2)_v1.xlsx,New rule: Press 'space' when you see 1-back (i.e. the same letter as the one that appeared 1 letter ago.),c,None,,,,,,,,,0,4,4,4,0,6,6,6,,,,,,,,,,,,,,,,,,,,,,,,,,,,,,,,,,,,,,,,,,,,,,,,,,,,,,,,,,,,,,,,,,,,,1.8284,597.0665667,None,None,1,597.0665667,None,,P042,FENCOG,2,Pre,2022_May_10_1058,N-Back (New Version 2021),2021.1.4,119.9909767
,,,,Conditions/Version_1/oneback(2)_v1.xlsx,New rule: Press 'space' when you see 1-back (i.e. the same letter as the one that appeared 1 letter ago.),c,space,,,,,,,,,0,4,4,4,0,7,7,7,,,,,,,,,,,,,,,,,,,,,,,,,,,,,,,,,,,,,,,,,,,,,,,,,,,,,,,,,,,,,,,,,,,,,1.103,600.1797842,None,space,1,600.1797842,None,0.6044979,P042,FENCOG,2,Pre,2022_May_10_1058,N-Back (New Version 2021),2021.1.4,119.9909767
,,,,Conditions/Version_1/oneback(2)_v1.xlsx,New rule: Press 'space' when you see 1-back (i.e. the same letter as the one that appeared 1 letter ago.),P,None,,,,,,,,,0,4,4,4,0,8,8,8,,,,,,,,,,,,,,,,,,,,,,,,,,,,,,,,,,,,,,,,,,,,,,,,,,,,,,,,,,,,,,,,,,,,,1.3758,603.5627607,None,None,1,603.5627607,None,,P042,FENCOG,2,Pre,2022_May_10_1058,N-Back (New Version 2021),2021.1.4,119.9909767
,,,,Conditions/Version_1/oneback(2)_v1.xlsx,New rule: Press 'space' when you see 1-back (i.e. the same letter as the one that appeared 1 letter ago.),p,space,,,,,,,,,0,4,4,4,0,9,9,9,,,,,,,,,,,,,,,,,,,,,,,,,,,,,,,,,,,,,,,,,,,,,,,,,,,,,,,,,,,,,,,,,,,,,1.0844,606.6525394,None,space,1,606.6525394,None,0.5720279,P042,FENCOG,2,Pre,2022_May_10_1058,N-Back (New Version 2021),2021.1.4,119.9909767
,,,,Conditions/Version_1/oneback(2)_v1.xlsx,New rule: Press 'space' when you see 1-back (i.e. the same letter as the one that appeared 1 letter ago.),,,,,,,,,,,0,4,4,4,,,,,,,,,,,,,,,,,,,,,,,,,,,,,,,,,,,,,,,,,,,,,,,,,,,,,,,,,,,,,,,,,,,,,,,,,,,,,,,,,P042,FENCOG,2,Pre,2022_May_10_1058,N-Back (New Version 2021),2021.1.4,119.9909767
,,,,Conditions/Version_1/zeroback(2)_v1.xlsx,New rule: Press 'space' when you see the letter 'x' or 'X'.,p,None,,,,,,,,,0,5,5,5,0,0,0,0,,,,,,,,,,,,,,,,,,,,,,,,,,,,,,,,,,,,,,,,,,,,,,,,,,,,,,,,,,,608.680798,None,611.6614508,None,space,0.3628092,611.6614508,None,608.680798,None,1.9028,613.9756315,None,None,1,613.9756315,None,,P042,FENCOG,2,Pre,2022_May_10_1058,N-Back (New Version 2021),2021.1.4,119.9909767
,,,,Conditions/Version_1/zeroback(2)_v1.xlsx,New rule: Press 'space' when you see the letter 'x' or 'X'.,L,None,,,,,,,,,0,5,5,5,0,1,1,1,,,,,,,,,,,,,,,,,,,,,,,,,,,,,,,,,,,,,,,,,,,,,,,,,,,,,,,,,,,,,,,,,,,,,1.382,617.3576159,None,None,1,617.3576159,None,,P042,FENCOG,2,Pre,2022_May_10_1058,N-Back (New Version 2021),2021.1.4,119.9909767
,,,,Conditions/Version_1/zeroback(2)_v1.xlsx,New rule: Press 'space' when you see the letter 'x' or 'X'.,G,None,,,,,,,,,0,5,5,5,0,2,2,2,,,,,,,,,,,,,,,,,,,,,,,,,,,,,,,,,,,,,,,,,,,,,,,,,,,,,,,,,,,,,,,,,,,,,1.7478,621.1099708,None,None,1,621.1099708,None,,P042,FENCOG,2,Pre,2022_May_10_1058,N-Back (New Version 2021),2021.1.4,119.9909767
,,,,Conditions/Version_1/zeroback(2)_v1.xlsx,New rule: Press 'space' when you see the letter 'x' or 'X'.,y,None,,,,,,,,,0,5,5,5,0,3,3,3,,,,,,,,,,,,,,,,,,,,,,,,,,,,,,,,,,,,,,,,,,,,,,,,,,,,,,,,,,,,,,,,,,,,,1.9338,625.0472679,None,None,1,625.0472679,None,,P042,FENCOG,2,Pre,2022_May_10_1058,N-Back (New Version 2021),2021.1.4,119.9909767
,,,,Conditions/Version_1/zeroback(2)_v1.xlsx,New rule: Press 'space' when you see the letter 'x' or 'X'.,Y,None,,,,,,,,,0,5,5,5,0,4,4,4,,,,,,,,,,,,,,,,,,,,,,,,,,,,,,,,,,,,,,,,,,,,,,,,,,,,,,,,,,,,,,,,,,,,,1.4254,628.4711297,None,None,1,628.4711297,None,,P042,FENCOG,2,Pre,2022_May_10_1058,N-Back (New Version 2021),2021.1.4,119.9909767
,,,,Conditions/Version_1/zeroback(2)_v1.xlsx,New rule: Press 'space' when you see the letter 'x' or 'X'.,W,None,,,,,,,,,0,5,5,5,0,5,5,5,,,,,,,,,,,,,,,,,,,,,,,,,,,,,,,,,,,,,,,,,,,,,,,,,,,,,,,,,,,,,,,,,,,,,1.3448,631.8260426,None,None,1,631.8260426,None,,P042,FENCOG,2,Pre,2022_May_10_1058,N-Back (New Version 2021),2021.1.4,119.9909767
,,,,Conditions/Version_1/zeroback(2)_v1.xlsx,New rule: Press 'space' when you see the letter 'x' or 'X'.,x,space,,,,,,,,,0,5,5,5,0,6,6,6,,,,,,,,,,,,,,,,,,,,,,,,,,,,,,,,,,,,,,,,,,,,,,,,,,,,,,,,,,,,,,,,,,,,,1.5308,635.3619663,None,space,1,635.3619663,None,0.3904727,P042,FENCOG,2,Pre,2022_May_10_1058,N-Back (New Version 2021),2021.1.4,119.9909767
,,,,Conditions/Version_1/zeroback(2)_v1.xlsx,New rule: Press 'space' when you see the letter 'x' or 'X'.,X,space,,,,,,,,,0,5,5,5,0,7,7,7,,,,,,,,,,,,,,,,,,,,,,,,,,,,,,,,,,,,,,,,,,,,,,,,,,,,,,,,,,,,,,,,,,,,,1.1898,638.5599787,None,space,1,638.5599787,None,0.432357,P042,FENCOG,2,Pre,2022_May_10_1058,N-Back (New Version 2021),2021.1.4,119.9909767
,,,,Conditions/Version_1/zeroback(2)_v1.xlsx,New rule: Press 'space' when you see the letter 'x' or 'X'.,p,None,,,,,,,,,0,5,5,5,0,8,8,8,,,,,,,,,,,,,,,,,,,,,,,,,,,,,,,,,,,,,,,,,,,,,,,,,,,,,,,,,,,,,,,,,,,,,1.413,641.9754687,None,None,1,641.9754687,None,,P042,FENCOG,2,Pre,2022_May_10_1058,N-Back (New Version 2021),2021.1.4,119.9909767
,,,,Conditions/Version_1/zeroback(2)_v1.xlsx,New rule: Press 'space' when you see the letter 'x' or 'X'.,h,None,,,,,,,,,0,5,5,5,0,9,9,9,,,,,,,,,,,,,,,,,,,,,,,,,,,,,,,,,,,,,,,,,,,,,,,,,,,,,,,,,,,,,,,,,,,,,1.537,645.5166176,None,None,1,645.5166176,None,,P042,FENCOG,2,Pre,2022_May_10_1058,N-Back (New Version 2021),2021.1.4,119.9909767
,,,,Conditions/Version_1/zeroback(2)_v1.xlsx,New rule: Press 'space' when you see the letter 'x' or 'X'.,,,,,,,,,,,0,5,5,5,,,,,,,,,,,,,,,,,,,,,,,,,,,,,,,,,,,,,,,,,,,,,,,,,,,,,,,,,,,,,,,,,,,,,,,,,,,,,,,,,P042,FENCOG,2,Pre,2022_May_10_1058,N-Back (New Version 2021),2021.1.4,119.9909767
,,,,Conditions/Version_1/threeback(2)_v1.xlsx,New rule: Press 'space' when you see 3-back (i.e. the same letter as the one that appeared 3 letters ago.),q,None,,,,,,,,,0,6,6,6,0,0,0,0,,,,,,,,,,,,,,,,,,,,,,,,,,,,,,,,,,,,,,,,,,,,,,,,,,,,,,,,,,,647.5410672,None,650.5248193,None,space,0.7715036,650.5248193,None,647.5410672,None,1.9214,653.2556065,None,None,1,653.2556065,None,,P042,FENCOG,2,Pre,2022_May_10_1058,N-Back (New Version 2021),2021.1.4,119.9909767
,,,,Conditions/Version_1/threeback(2)_v1.xlsx,New rule: Press 'space' when you see 3-back (i.e. the same letter as the one that appeared 3 letters ago.),Y,None,,,,,,,,,0,6,6,6,0,1,1,1,,,,,,,,,,,,,,,,,,,,,,,,,,,,,,,,,,,,,,,,,,,,,,,,,,,,,,,,,,,,,,,,,,,,,1.5184,656.7811714,None,None,1,656.7811714,None,,P042,FENCOG,2,Pre,2022_May_10_1058,N-Back (New Version 2021),2021.1.4,119.9909767
,,,,Conditions/Version_1/threeback(2)_v1.xlsx,New rule: Press 'space' when you see 3-back (i.e. the same letter as the one that appeared 3 letters ago.),p,None,,,,,,,,,0,6,6,6,0,2,2,2,,,,,,,,,,,,,,,,,,,,,,,,,,,,,,,,,,,,,,,,,,,,,,,,,,,,,,,,,,,,,,,,,,,,,1.785,660.5791305,None,None,1,660.5791305,None,,P042,FENCOG,2,Pre,2022_May_10_1058,N-Back (New Version 2021),2021.1.4,119.9909767
,,,,Conditions/Version_1/threeback(2)_v1.xlsx,New rule: Press 'space' when you see 3-back (i.e. the same letter as the one that appeared 3 letters ago.),p,None,,,,,,,,,0,6,6,6,0,3,3,3,,,,,,,,,,,,,,,,,,,,,,,,,,,,,,,,,,,,,,,,,,,,,,,,,,,,,,,,,,,,,,,,,,,,,1.9152,664.5024296,None,None,1,664.5024296,None,,P042,FENCOG,2,Pre,2022_May_10_1058,N-Back (New Version 2021),2021.1.4,119.9909767
,,,,Conditions/Version_1/threeback(2)_v1.xlsx,New rule: Press 'space' when you see 3-back (i.e. the same letter as the one that appeared 3 letters ago.),y,space,,,,,,,,,0,6,6,6,0,4,4,4,,,,,,,,,,,,,,,,,,,,,,,,,,,,,,,,,,,,,,,,,,,,,,,,,,,,,,,,,,,,,,,,,,,,,1.01,667.517822,None,space,1,667.517822,None,1.306401,P042,FENCOG,2,Pre,2022_May_10_1058,N-Back (New Version 2021),2021.1.4,119.9909767
,,,,Conditions/Version_1/threeback(2)_v1.xlsx,New rule: Press 'space' when you see 3-back (i.e. the same letter as the one that appeared 3 letters ago.),u,None,,,,,,,,,0,6,6,6,0,5,5,5,,,,,,,,,,,,,,,,,,,,,,,,,,,,,,,,,,,,,,,,,,,,,,,,,,,,,,,,,,,,,,,,,,,,,1.568,671.0930983,None,None,1,671.0930983,None,,P042,FENCOG,2,Pre,2022_May_10_1058,N-Back (New Version 2021),2021.1.4,119.9909767
,,,,Conditions/Version_1/threeback(2)_v1.xlsx,New rule: Press 'space' when you see 3-back (i.e. the same letter as the one that appeared 3 letters ago.),P,space,,,,,,,,,0,6,6,6,0,6,6,6,,,,,,,,,,,,,,,,,,,,,,,,,,,,,,,,,,,,,,,,,,,,,,,,,,,,,,,,,,,,,,,,,,,,,1.2084,674.3078256,None,space,1,674.3078256,None,1.116664,P042,FENCOG,2,Pre,2022_May_10_1058,N-Back (New Version 2021),2021.1.4,119.9909767
,,,,Conditions/Version_1/threeback(2)_v1.xlsx,New rule: Press 'space' when you see 3-back (i.e. the same letter as the one that appeared 3 letters ago.),a,None,,,,,,,,,0,6,6,6,0,7,7,7,,,,,,,,,,,,,,,,,,,,,,,,,,,,,,,,,,,,,,,,,,,,,,,,,,,,,,,,,,,,,,,,,,,,,1.7602,678.0729489,None,None,1,678.0729489,None,,P042,FENCOG,2,Pre,2022_May_10_1058,N-Back (New Version 2021),2021.1.4,119.9909767
,,,,Conditions/Version_1/threeback(2)_v1.xlsx,New rule: Press 'space' when you see 3-back (i.e. the same letter as the one that appeared 3 letters ago.),U,space,,,,,,,,,0,6,6,6,0,8,8,8,,,,,,,,,,,,,,,,,,,,,,,,,,,,,,,,,,,,,,,,,,,,,,,,,,,,,,,,,,,,,,,,,,,,,1.1278,681.2055457,None,None,0,681.2055457,None,,P042,FENCOG,2,Pre,2022_May_10_1058,N-Back (New Version 2021),2021.1.4,119.9909767
,,,,Conditions/Version_1/threeback(2)_v1.xlsx,New rule: Press 'space' when you see 3-back (i.e. the same letter as the one that appeared 3 letters ago.),q,None,,,,,,,,,0,6,6,6,0,9,9,9,,,,,,,,,,,,,,,,,,,,,,,,,,,,,,,,,,,,,,,,,,,,,,,,,,,,,,,,,,,,,,,,,,,,,1.8718,685.0794997,None,None,1,685.0794997,None,,P042,FENCOG,2,Pre,2022_May_10_1058,N-Back (New Version 2021),2021.1.4,119.9909767
,,,,Conditions/Version_1/threeback(2)_v1.xlsx,New rule: Press 'space' when you see 3-back (i.e. the same letter as the one that appeared 3 letters ago.),,,,,,,,,,,0,6,6,6,,,,,,,,,,,,,,,,,,,,,,,,,,,,,,,,,,,,,,,,,,,,,,,,,,,,,,,,,,,,,,,,,,,,,,,,,,,,,,,,,P042,FENCOG,2,Pre,2022_May_10_1058,N-Back (New Version 2021),2021.1.4,119.9909767
,,,,Conditions/Version_1/twoback(2)_v1.xlsx,New rule: Press 'space' when you see 2-back (i.e. the same letter as the one that appeared 2 letters ago.),q,None,,,,,,,,,0,7,7,7,0,0,0,0,,,,,,,,,,,,,,,,,,,,,,,,,,,,,,,,,,,,,,,,,,,,,,,,,,,,,,,,,,,687.1034933,None,690.0889185,None,space,2.9112312,690.0889185,None,687.1034933,None,1.4192,694.4516698,None,None,1,694.4516698,None,,P042,FENCOG,2,Pre,2022_May_10_1058,N-Back (New Version 2021),2021.1.4,119.9909767
,,,,Conditions/Version_1/twoback(2)_v1.xlsx,New rule: Press 'space' when you see 2-back (i.e. the same letter as the one that appeared 2 letters ago.),r,None,,,,,,,,,0,7,7,7,0,1,1,1,,,,,,,,,,,,,,,,,,,,,,,,,,,,,,,,,,,,,,,,,,,,,,,,,,,,,,,,,,,,,,,,,,,,,1.5494,698.0047608,None,None,1,698.0047608,None,,P042,FENCOG,2,Pre,2022_May_10_1058,N-Back (New Version 2021),2021.1.4,119.9909767
,,,,Conditions/Version_1/twoback(2)_v1.xlsx,New rule: Press 'space' when you see 2-back (i.e. the same letter as the one that appeared 2 letters ago.),q,space,,,,,,,,,0,7,7,7,0,2,2,2,,,,,,,,,,,,,,,,,,,,,,,,,,,,,,,,,,,,,,,,,,,,,,,,,,,,,,,,,,,,,,,,,,,,,1.5556,701.5663205,None,space,1,701.5663205,None,0.3619011,P042,FENCOG,2,Pre,2022_May_10_1058,N-Back (New Version 2021),2021.1.4,119.9909767
,,,,Conditions/Version_1/twoback(2)_v1.xlsx,New rule: Press 'space' when you see 2-back (i.e. the same letter as the one that appeared 2 letters ago.),P,None,,,,,,,,,0,7,7,7,0,3,3,3,,,,,,,,,,,,,,,,,,,,,,,,,,,,,,,,,,,,,,,,,,,,,,,,,,,,,,,,,,,,,,,,,,,,,1.1402,704.7080087,None,None,1,704.7080087,None,,P042,FENCOG,2,Pre,2022_May_10_1058,N-Back (New Version 2021),2021.1.4,119.9909767
,,,,Conditions/Version_1/twoback(2)_v1.xlsx,New rule: Press 'space' when you see 2-back (i.e. the same letter as the one that appeared 2 letters ago.),p,None,,,,,,,,,0,7,7,7,0,4,4,4,,,,,,,,,,,,,,,,,,,,,,,,,,,,,,,,,,,,,,,,,,,,,,,,,,,,,,,,,,,,,,,,,,,,,1.7292,708.4489864,None,None,1,708.4489864,None,,P042,FENCOG,2,Pre,2022_May_10_1058,N-Back (New Version 2021),2021.1.4,119.9909767
,,,,Conditions/Version_1/twoback(2)_v1.xlsx,New rule: Press 'space' when you see 2-back (i.e. the same letter as the one that appeared 2 letters ago.),H,None,,,,,,,,,0,7,7,7,0,5,5,5,,,,,,,,,,,,,,,,,,,,,,,,,,,,,,,,,,,,,,,,,,,,,,,,,,,,,,,,,,,,,,,,,,,,,1.196,711.6548969,None,None,1,711.6548969,None,,P042,FENCOG,2,Pre,2022_May_10_1058,N-Back (New Version 2021),2021.1.4,119.9909767
,,,,Conditions/Version_1/twoback(2)_v1.xlsx,New rule: Press 'space' when you see 2-back (i.e. the same letter as the one that appeared 2 letters ago.),g,None,,,,,,,,,0,7,7,7,0,6,6,6,,,,,,,,,,,,,,,,,,,,,,,,,,,,,,,,,,,,,,,,,,,,,,,,,,,,,,,,,,,,,,,,,,,,,1.3448,715.0058758,None,None,1,715.0058758,None,,P042,FENCOG,2,Pre,2022_May_10_1058,N-Back (New Version 2021),2021.1.4,119.9909767
,,,,Conditions/Version_1/twoback(2)_v1.xlsx,New rule: Press 'space' when you see 2-back (i.e. the same letter as the one that appeared 2 letters ago.),j,None,,,,,,,,,0,7,7,7,0,7,7,7,,,,,,,,,,,,,,,,,,,,,,,,,,,,,,,,,,,,,,,,,,,,,,,,,,,,,,,,,,,,,,,,,,,,,1.7912,718.8031298,None,None,1,718.8031298,None,,P042,FENCOG,2,Pre,2022_May_10_1058,N-Back (New Version 2021),2021.1.4,119.9909767
,,,,Conditions/Version_1/twoback(2)_v1.xlsx,New rule: Press 'space' when you see 2-back (i.e. the same letter as the one that appeared 2 letters ago.),g,space,,,,,,,,,0,7,7,7,0,8,8,8,,,,,,,,,,,,,,,,,,,,,,,,,,,,,,,,,,,,,,,,,,,,,,,,,,,,,,,,,,,,,,,,,,,,,1.9958,722.8100154,None,space,1,722.8100154,None,0.526454,P042,FENCOG,2,Pre,2022_May_10_1058,N-Back (New Version 2021),2021.1.4,119.9909767
,,,,Conditions/Version_1/twoback(2)_v1.xlsx,New rule: Press 'space' when you see 2-back (i.e. the same letter as the one that appeared 2 letters ago.),G,None,,,,,,,,,0,7,7,7,0,9,9,9,,,,,,,,,,,,,,,,,,,,,,,,,,,,,,,,,,,,,,,,,,,,,,,,,,,,,,,,,,,,,,,,,,,,,1.8842,726.7042571,None,None,1,726.7042571,None,,P042,FENCOG,2,Pre,2022_May_10_1058,N-Back (New Version 2021),2021.1.4,119.9909767
,,,,Conditions/Version_1/twoback(2)_v1.xlsx,New rule: Press 'space' when you see 2-back (i.e. the same letter as the one that appeared 2 letters ago.),,,,,,,,,,,0,7,7,7,,,,,,,,,,,,,,,,,,,,,,,,,,,,,,,,,,,,,,,,,,,,,,,,,,,,,,,,,,,,,,,,,,,,,,,,,,,,,,,,,P042,FENCOG,2,Pre,2022_May_10_1058,N-Back (New Version 2021),2021.1.4,119.9909767
,,,,Conditions/Version_1/threeback(3)_v1.xlsx,New rule: Press 'space' when you see 3-back (i.e. the same letter as the one that appeared 3 letters ago.),w,None,,,,,,,,,0,8,8,8,0,0,0,0,,,,,,,,,,,,,,,,,,,,,,,,,,,,,,,,,,,,,,,,,,,,,,,,,,,,,,,,,,,728.7290673,None,731.7173786,None,space,0.3069539,731.7173786,None,728.7290673,None,1.94,734.0004932,None,None,1,734.0004932,None,,P042,FENCOG,2,Pre,2022_May_10_1058,N-Back (New Version 2021),2021.1.4,119.9909767
,,,,Conditions/Version_1/threeback(3)_v1.xlsx,New rule: Press 'space' when you see 3-back (i.e. the same letter as the one that appeared 3 letters ago.),p,None,,,,,,,,,0,8,8,8,0,1,1,1,,,,,,,,,,,,,,,,,,,,,,,,,,,,,,,,,,,,,,,,,,,,,,,,,,,,,,,,,,,,,,,,,,,,,1.878,737.8889494,None,None,1,737.8889494,None,,P042,FENCOG,2,Pre,2022_May_10_1058,N-Back (New Version 2021),2021.1.4,119.9909767
,,,,Conditions/Version_1/threeback(3)_v1.xlsx,New rule: Press 'space' when you see 3-back (i.e. the same letter as the one that appeared 3 letters ago.),P,None,,,,,,,,,0,8,8,8,0,2,2,2,,,,,,,,,,,,,,,,,,,,,,,,,,,,,,,,,,,,,,,,,,,,,,,,,,,,,,,,,,,,,,,,,,,,,1.0596,740.9545779,None,None,1,740.9545779,None,,P042,FENCOG,2,Pre,2022_May_10_1058,N-Back (New Version 2021),2021.1.4,119.9909767
,,,,Conditions/Version_1/threeback(3)_v1.xlsx,New rule: Press 'space' when you see 3-back (i.e. the same letter as the one that appeared 3 letters ago.),i,None,,,,,,,,,0,8,8,8,0,3,3,3,,,,,,,,,,,,,,,,,,,,,,,,,,,,,,,,,,,,,,,,,,,,,,,,,,,,,,,,,,,,,,,,,,,,,1.5928,744.5545762,None,None,1,744.5545762,None,,P042,FENCOG,2,Pre,2022_May_10_1058,N-Back (New Version 2021),2021.1.4,119.9909767
,,,,Conditions/Version_1/threeback(3)_v1.xlsx,New rule: Press 'space' when you see 3-back (i.e. the same letter as the one that appeared 3 letters ago.),f,None,,,,,,,,,0,8,8,8,0,4,4,4,,,,,,,,,,,,,,,,,,,,,,,,,,,,,,,,,,,,,,,,,,,,,,,,,,,,,,,,,,,,,,,,,,,,,1.6114,748.1784319,None,None,1,748.1784319,None,,P042,FENCOG,2,Pre,2022_May_10_1058,N-Back (New Version 2021),2021.1.4,119.9909767
,,,,Conditions/Version_1/threeback(3)_v1.xlsx,New rule: Press 'space' when you see 3-back (i.e. the same letter as the one that appeared 3 letters ago.),o,None,,,,,,,,,0,8,8,8,0,5,5,5,,,,,,,,,,,,,,,,,,,,,,,,,,,,,,,,,,,,,,,,,,,,,,,,,,,,,,,,,,,,,,,,,,,,,1.971,752.1609676,None,None,1,752.1609676,None,,P042,FENCOG,2,Pre,2022_May_10_1058,N-Back (New Version 2021),2021.1.4,119.9909767
,,,,Conditions/Version_1/threeback(3)_v1.xlsx,New rule: Press 'space' when you see 3-back (i.e. the same letter as the one that appeared 3 letters ago.),w,None,,,,,,,,,0,8,8,8,0,6,6,6,,,,,,,,,,,,,,,,,,,,,,,,,,,,,,,,,,,,,,,,,,,,,,,,,,,,,,,,,,,,,,,,,,,,,1.7974,755.967968,None,None,1,755.967968,None,,P042,FENCOG,2,Pre,2022_May_10_1058,N-Back (New Version 2021),2021.1.4,119.9909767
,,,,Conditions/Version_1/threeback(3)_v1.xlsx,New rule: Press 'space' when you see 3-back (i.e. the same letter as the one that appeared 3 letters ago.),F,space,,,,,,,,,0,8,8,8,0,7,7,7,,,,,,,,,,,,,,,,,,,,,,,,,,,,,,,,,,,,,,,,,,,,,,,,,,,,,,,,,,,,,,,,,,,,,1.909,759.8824132,None,space,1,759.8824132,None,0.845811,P042,FENCOG,2,Pre,2022_May_10_1058,N-Back (New Version 2021),2021.1.4,119.9909767
,,,,Conditions/Version_1/threeback(3)_v1.xlsx,New rule: Press 'space' when you see 3-back (i.e. the same letter as the one that appeared 3 letters ago.),p,None,,,,,,,,,0,8,8,8,0,8,8,8,,,,,,,,,,,,,,,,,,,,,,,,,,,,,,,,,,,,,,,,,,,,,,,,,,,,,,,,,,,,,,,,,,,,,1.196,763.0825124,None,None,1,763.0825124,None,,P042,FENCOG,2,Pre,2022_May_10_1058,N-Back (New Version 2021),2021.1.4,119.9909767
,,,,Conditions/Version_1/threeback(3)_v1.xlsx,New rule: Press 'space' when you see 3-back (i.e. the same letter as the one that appeared 3 letters ago.),W,space,,,,,,,,,0,8,8,8,0,9,9,9,,,,,,,,,,,,,,,,,,,,,,,,,,,,,,,,,,,,,,,,,,,,,,,,,,,,,,,,,,,,,,,,,,,,,1.5618,766.6565156,None,space,1,766.6565156,None,1.1918231,P042,FENCOG,2,Pre,2022_May_10_1058,N-Back (New Version 2021),2021.1.4,119.9909767
,,,,Conditions/Version_1/threeback(3)_v1.xlsx,New rule: Press 'space' when you see 3-back (i.e. the same letter as the one that appeared 3 letters ago.),,,,,,,,,,,0,8,8,8,,,,,,,,,,,,,,,,,,,,,,,,,,,,,,,,,,,,,,,,,,,,,,,,,,,,,,,,,,,,,,,,,,,,,,,,,,,,,,,,,P042,FENCOG,2,Pre,2022_May_10_1058,N-Back (New Version 2021),2021.1.4,119.9909767
,,,,Conditions/Version_1/zeroback(3)_v1.xlsx,New rule: Press 'space' when you see the letter 'x' or 'X'.,X,space,,,,,,,,,0,9,9,9,0,0,0,0,,,,,,,,,,,,,,,,,,,,,,,,,,,,,,,,,,,,,,,,,,,,,,,,,,,,,,,,,,,768.690259,None,771.6726578,None,space,1.5758345,771.6726578,None,768.690259,None,1.5308,774.8112437,None,space,1,774.8112437,None,0.4848761,P042,FENCOG,2,Pre,2022_May_10_1058,N-Back (New Version 2021),2021.1.4,119.9909767
,,,,Conditions/Version_1/zeroback(3)_v1.xlsx,New rule: Press 'space' when you see the letter 'x' or 'X'.,B,None,,,,,,,,,0,9,9,9,0,1,1,1,,,,,,,,,,,,,,,,,,,,,,,,,,,,,,,,,,,,,,,,,,,,,,,,,,,,,,,,,,,,,,,,,,,,,1.878,778.6952046,None,None,1,778.6952046,None,,P042,FENCOG,2,Pre,2022_May_10_1058,N-Back (New Version 2021),2021.1.4,119.9909767
,,,,Conditions/Version_1/zeroback(3)_v1.xlsx,New rule: Press 'space' when you see the letter 'x' or 'X'.,m,None,,,,,,,,,0,9,9,9,0,2,2,2,,,,,,,,,,,,,,,,,,,,,,,,,,,,,,,,,,,,,,,,,,,,,,,,,,,,,,,,,,,,,,,,,,,,,1.5804,782.2851143,None,None,1,782.2851143,None,,P042,FENCOG,2,Pre,2022_May_10_1058,N-Back (New Version 2021),2021.1.4,119.9909767
,,,,Conditions/Version_1/zeroback(3)_v1.xlsx,New rule: Press 'space' when you see the letter 'x' or 'X'.,m,None,,,,,,,,,0,9,9,9,0,3,3,3,,,,,,,,,,,,,,,,,,,,,,,,,,,,,,,,,,,,,,,,,,,,,,,,,,,,,,,,,,,,,,,,,,,,,1.0162,785.3083794,None,None,1,785.3083794,None,,P042,FENCOG,2,Pre,2022_May_10_1058,N-Back (New Version 2021),2021.1.4,119.9909767
,,,,Conditions/Version_1/zeroback(3)_v1.xlsx,New rule: Press 'space' when you see the letter 'x' or 'X'.,o,None,,,,,,,,,0,9,9,9,0,4,4,4,,,,,,,,,,,,,,,,,,,,,,,,,,,,,,,,,,,,,,,,,,,,,,,,,,,,,,,,,,,,,,,,,,,,,1.6176,788.9320776,None,None,1,788.9320776,None,,P042,FENCOG,2,Pre,2022_May_10_1058,N-Back (New Version 2021),2021.1.4,119.9909767
,,,,Conditions/Version_1/zeroback(3)_v1.xlsx,New rule: Press 'space' when you see the letter 'x' or 'X'.,p,None,,,,,,,,,0,9,9,9,0,5,5,5,,,,,,,,,,,,,,,,,,,,,,,,,,,,,,,,,,,,,,,,,,,,,,,,,,,,,,,,,,,,,,,,,,,,,1.9958,792.9309375,None,None,1,792.9309375,None,,P042,FENCOG,2,Pre,2022_May_10_1058,N-Back (New Version 2021),2021.1.4,119.9909767
,,,,Conditions/Version_1/zeroback(3)_v1.xlsx,New rule: Press 'space' when you see the letter 'x' or 'X'.,G,None,,,,,,,,,0,9,9,9,0,6,6,6,,,,,,,,,,,,,,,,,,,,,,,,,,,,,,,,,,,,,,,,,,,,,,,,,,,,,,,,,,,,,,,,,,,,,1.1712,796.107094,None,None,1,796.107094,None,,P042,FENCOG,2,Pre,2022_May_10_1058,N-Back (New Version 2021),2021.1.4,119.9909767
,,,,Conditions/Version_1/zeroback(3)_v1.xlsx,New rule: Press 'space' when you see the letter 'x' or 'X'.,X,space,,,,,,,,,0,9,9,9,0,7,7,7,,,,,,,,,,,,,,,,,,,,,,,,,,,,,,,,,,,,,,,,,,,,,,,,,,,,,,,,,,,,,,,,,,,,,1.1526,799.2704935,None,space,1,799.2704935,None,0.4498704,P042,FENCOG,2,Pre,2022_May_10_1058,N-Back (New Version 2021),2021.1.4,119.9909767
,,,,Conditions/Version_1/zeroback(3)_v1.xlsx,New rule: Press 'space' when you see the letter 'x' or 'X'.,p,None,,,,,,,,,0,9,9,9,0,8,8,8,,,,,,,,,,,,,,,,,,,,,,,,,,,,,,,,,,,,,,,,,,,,,,,,,,,,,,,,,,,,,,,,,,,,,1.6114,802.8863244,None,None,1,802.8863244,None,,P042,FENCOG,2,Pre,2022_May_10_1058,N-Back (New Version 2021),2021.1.4,119.9909767
,,,,Conditions/Version_1/zeroback(3)_v1.xlsx,New rule: Press 'space' when you see the letter 'x' or 'X'.,x,space,,,,,,,,,0,9,9,9,0,9,9,9,,,,,,,,,,,,,,,,,,,,,,,,,,,,,,,,,,,,,,,,,,,,,,,,,,,,,,,,,,,,,,,,,,,,,1.7478,806.6372307,None,space,1,806.6372307,None,0.3628951,P042,FENCOG,2,Pre,2022_May_10_1058,N-Back (New Version 2021),2021.1.4,119.9909767
,,,,Conditions/Version_1/zeroback(3)_v1.xlsx,New rule: Press 'space' when you see the letter 'x' or 'X'.,,,,,,,,,,,0,9,9,9,,,,,,,,,,,,,,,,,,,,,,,,,,,,,,,,,,,,,,,,,,,,,,,,,,,,,,,,,,,,,,,,,,,,,,,,,,,,,,,,,P042,FENCOG,2,Pre,2022_May_10_1058,N-Back (New Version 2021),2021.1.4,119.9909767
,,,,Conditions/Version_1/twoback(3)_v1.xlsx,New rule: Press 'space' when you see 2-back (i.e. the same letter as the one that appeared 2 letters ago.),e,None,,,,,,,,,0,10,10,10,0,0,0,0,,,,,,,,,,,,,,,,,,,,,,,,,,,,,,,,,,,,,,,,,,,,,,,,,,,,,,,,,,,808.66404,None,811.6449173,None,space,0.7156108,811.6449173,None,808.66404,None,1.7912,814.1830436,None,None,1,814.1830436,None,,P042,FENCOG,2,Pre,2022_May_10_1058,N-Back (New Version 2021),2021.1.4,119.9909767
,,,,Conditions/Version_1/twoback(3)_v1.xlsx,New rule: Press 'space' when you see 2-back (i.e. the same letter as the one that appeared 2 letters ago.),o,None,,,,,,,,,0,10,10,10,0,1,1,1,,,,,,,,,,,,,,,,,,,,,,,,,,,,,,,,,,,,,,,,,,,,,,,,,,,,,,,,,,,,,,,,,,,,,1.6734,817.8585802,None,None,1,817.8585802,None,,P042,FENCOG,2,Pre,2022_May_10_1058,N-Back (New Version 2021),2021.1.4,119.9909767
,,,,Conditions/Version_1/twoback(3)_v1.xlsx,New rule: Press 'space' when you see 2-back (i.e. the same letter as the one that appeared 2 letters ago.),P,None,,,,,,,,,0,10,10,10,0,2,2,2,,,,,,,,,,,,,,,,,,,,,,,,,,,,,,,,,,,,,,,,,,,,,,,,,,,,,,,,,,,,,,,,,,,,,1.599,821.4653556,None,None,1,821.4653556,None,,P042,FENCOG,2,Pre,2022_May_10_1058,N-Back (New Version 2021),2021.1.4,119.9909767
,,,,Conditions/Version_1/twoback(3)_v1.xlsx,New rule: Press 'space' when you see 2-back (i.e. the same letter as the one that appeared 2 letters ago.),z,None,,,,,,,,,0,10,10,10,0,3,3,3,,,,,,,,,,,,,,,,,,,,,,,,,,,,,,,,,,,,,,,,,,,,,,,,,,,,,,,,,,,,,,,,,,,,,1.8036,825.2822463,None,None,1,825.2822463,None,,P042,FENCOG,2,Pre,2022_May_10_1058,N-Back (New Version 2021),2021.1.4,119.9909767
,,,,Conditions/Version_1/twoback(3)_v1.xlsx,New rule: Press 'space' when you see 2-back (i.e. the same letter as the one that appeared 2 letters ago.),X,None,,,,,,,,,0,10,10,10,0,4,4,4,,,,,,,,,,,,,,,,,,,,,,,,,,,,,,,,,,,,,,,,,,,,,,,,,,,,,,,,,,,,,,,,,,,,,1.7354,829.028721,None,None,1,829.028721,None,,P042,FENCOG,2,Pre,2022_May_10_1058,N-Back (New Version 2021),2021.1.4,119.9909767
,,,,Conditions/Version_1/twoback(3)_v1.xlsx,New rule: Press 'space' when you see 2-back (i.e. the same letter as the one that appeared 2 letters ago.),z,space,,,,,,,,,0,10,10,10,0,5,5,5,,,,,,,,,,,,,,,,,,,,,,,,,,,,,,,,,,,,,,,,,,,,,,,,,,,,,,,,,,,,,,,,,,,,,1.9896,833.0190697,None,space,1,833.0190697,None,0.3652283,P042,FENCOG,2,Pre,2022_May_10_1058,N-Back (New Version 2021),2021.1.4,119.9909767
,,,,Conditions/Version_1/twoback(3)_v1.xlsx,New rule: Press 'space' when you see 2-back (i.e. the same letter as the one that appeared 2 letters ago.),x,space,,,,,,,,,0,10,10,10,0,6,6,6,,,,,,,,,,,,,,,,,,,,,,,,,,,,,,,,,,,,,,,,,,,,,,,,,,,,,,,,,,,,,,,,,,,,,1.3138,836.3354074,None,space,1,836.3354074,None,1.0728831,P042,FENCOG,2,Pre,2022_May_10_1058,N-Back (New Version 2021),2021.1.4,119.9909767
,,,,Conditions/Version_1/twoback(3)_v1.xlsx,New rule: Press 'space' when you see 2-back (i.e. the same letter as the one that appeared 2 letters ago.),c,None,,,,,,,,,0,10,10,10,0,7,7,7,,,,,,,,,,,,,,,,,,,,,,,,,,,,,,,,,,,,,,,,,,,,,,,,,,,,,,,,,,,,,,,,,,,,,1.5246,839.8689966,None,None,1,839.8689966,None,,P042,FENCOG,2,Pre,2022_May_10_1058,N-Back (New Version 2021),2021.1.4,119.9909767
,,,,Conditions/Version_1/twoback(3)_v1.xlsx,New rule: Press 'space' when you see 2-back (i.e. the same letter as the one that appeared 2 letters ago.),i,None,,,,,,,,,0,10,10,10,0,8,8,8,,,,,,,,,,,,,,,,,,,,,,,,,,,,,,,,,,,,,,,,,,,,,,,,,,,,,,,,,,,,,,,,,,,,,1.5184,843.4018784,None,None,1,843.4018784,None,,P042,FENCOG,2,Pre,2022_May_10_1058,N-Back (New Version 2021),2021.1.4,119.9909767
,,,,Conditions/Version_1/twoback(3)_v1.xlsx,New rule: Press 'space' when you see 2-back (i.e. the same letter as the one that appeared 2 letters ago.),C,space,,,,,,,,,0,10,10,10,0,9,9,9,,,,,,,,,,,,,,,,,,,,,,,,,,,,,,,,,,,,,,,,,,,,,,,,,,,,,,,,,,,,,,,,,,,,,1.568,846.9838509,None,space,1,846.9838509,None,0.3762892,P042,FENCOG,2,Pre,2022_May_10_1058,N-Back (New Version 2021),2021.1.4,119.9909767
,,,,Conditions/Version_1/twoback(3)_v1.xlsx,New rule: Press 'space' when you see 2-back (i.e. the same letter as the one that appeared 2 letters ago.),,,,,,,,,,,0,10,10,10,,,,,,,,,,,,,,,,,,,,,,,,,,,,,,,,,,,,,,,,,,,,,,,,,,,,,,,,,,,,,,,,,,,,,,,,,,,,,,,,,P042,FENCOG,2,Pre,2022_May_10_1058,N-Back (New Version 2021),2021.1.4,119.9909767
,,,,Conditions/Version_1/oneback(3)_v1.xlsx,New rule: Press 'space' when you see 1-back (i.e. the same letter as the one that appeared 1 letter ago.),o,None,,,,,,,,,0,11,11,11,0,0,0,0,,,,,,,,,,,,,,,,,,,,,,,,,,,,,,,,,,,,,,,,,,,,,,,,,,,,,,,,,,,849.0108437,None,851.9984139,None,space,0.3138659,851.9984139,None,849.0108437,None,1.1154,853.4651561,None,None,1,853.4651561,None,,P042,FENCOG,2,Pre,2022_May_10_1058,N-Back (New Version 2021),2021.1.4,119.9909767
,,,,Conditions/Version_1/oneback(3)_v1.xlsx,New rule: Press 'space' when you see 1-back (i.e. the same letter as the one that appeared 1 letter ago.),O,space,,,,,,,,,0,11,11,11,0,1,1,1,,,,,,,,,,,,,,,,,,,,,,,,,,,,,,,,,,,,,,,,,,,,,,,,,,,,,,,,,,,,,,,,,,,,,1.5308,857.0036721,None,space,1,857.0036721,None,0.3326265,P042,FENCOG,2,Pre,2022_May_10_1058,N-Back (New Version 2021),2021.1.4,119.9909767
,,,,Conditions/Version_1/oneback(3)_v1.xlsx,New rule: Press 'space' when you see 1-back (i.e. the same letter as the one that appeared 1 letter ago.),h,None,,,,,,,,,0,11,11,11,0,2,2,2,,,,,,,,,,,,,,,,,,,,,,,,,,,,,,,,,,,,,,,,,,,,,,,,,,,,,,,,,,,,,,,,,,,,,1.3634,860.3702684,None,None,1,860.3702684,None,,P042,FENCOG,2,Pre,2022_May_10_1058,N-Back (New Version 2021),2021.1.4,119.9909767
,,,,Conditions/Version_1/oneback(3)_v1.xlsx,New rule: Press 'space' when you see 1-back (i.e. the same letter as the one that appeared 1 letter ago.),g,None,,,,,,,,,0,11,11,11,0,3,3,3,,,,,,,,,,,,,,,,,,,,,,,,,,,,,,,,,,,,,,,,,,,,,,,,,,,,,,,,,,,,,,,,,,,,,1.4998,863.8788197,None,None,1,863.8788197,None,,P042,FENCOG,2,Pre,2022_May_10_1058,N-Back (New Version 2021),2021.1.4,119.9909767
,,,,Conditions/Version_1/oneback(3)_v1.xlsx,New rule: Press 'space' when you see 1-back (i.e. the same letter as the one that appeared 1 letter ago.),n,None,,,,,,,,,0,11,11,11,0,4,4,4,,,,,,,,,,,,,,,,,,,,,,,,,,,,,,,,,,,,,,,,,,,,,,,,,,,,,,,,,,,,,,,,,,,,,1.5184,867.4094053,None,None,1,867.4094053,None,,P042,FENCOG,2,Pre,2022_May_10_1058,N-Back (New Version 2021),2021.1.4,119.9909767
,,,,Conditions/Version_1/oneback(3)_v1.xlsx,New rule: Press 'space' when you see 1-back (i.e. the same letter as the one that appeared 1 letter ago.),z,None,,,,,,,,,0,11,11,11,0,5,5,5,,,,,,,,,,,,,,,,,,,,,,,,,,,,,,,,,,,,,,,,,,,,,,,,,,,,,,,,,,,,,,,,,,,,,1.847,871.2590475,None,None,1,871.2590475,None,,P042,FENCOG,2,Pre,2022_May_10_1058,N-Back (New Version 2021),2021.1.4,119.9909767
,,,,Conditions/Version_1/oneback(3)_v1.xlsx,New rule: Press 'space' when you see 1-back (i.e. the same letter as the one that appeared 1 letter ago.),X,None,,,,,,,,,0,11,11,11,0,6,6,6,,,,,,,,,,,,,,,,,,,,,,,,,,,,,,,,,,,,,,,,,,,,,,,,,,,,,,,,,,,,,,,,,,,,,1.0162,874.2818736,None,None,1,874.2818736,None,,P042,FENCOG,2,Pre,2022_May_10_1058,N-Back (New Version 2021),2021.1.4,119.9909767
,,,,Conditions/Version_1/oneback(3)_v1.xlsx,New rule: Press 'space' when you see 1-back (i.e. the same letter as the one that appeared 1 letter ago.),r,None,,,,,,,,,0,11,11,11,0,7,7,7,,,,,,,,,,,,,,,,,,,,,,,,,,,,,,,,,,,,,,,,,,,,,,,,,,,,,,,,,,,,,,,,,,,,,1.661,877.9474872,None,None,1,877.9474872,None,,P042,FENCOG,2,Pre,2022_May_10_1058,N-Back (New Version 2021),2021.1.4,119.9909767
,,,,Conditions/Version_1/oneback(3)_v1.xlsx,New rule: Press 'space' when you see 1-back (i.e. the same letter as the one that appeared 1 letter ago.),r,space,,,,,,,,,0,11,11,11,0,8,8,8,,,,,,,,,,,,,,,,,,,,,,,,,,,,,,,,,,,,,,,,,,,,,,,,,,,,,,,,,,,,,,,,,,,,,1.6176,881.5714455,None,space,1,881.5714455,None,0.5325836,P042,FENCOG,2,Pre,2022_May_10_1058,N-Back (New Version 2021),2021.1.4,119.9909767
,,,,Conditions/Version_1/oneback(3)_v1.xlsx,New rule: Press 'space' when you see 1-back (i.e. the same letter as the one that appeared 1 letter ago.),P,None,,,,,,,,,0,11,11,11,0,9,9,9,,,,,,,,,,,,,,,,,,,,,,,,,,,,,,,,,,,,,,,,,,,,,,,,,,,,,,,,,,,,,,,,,,,,,1.382,884.9620486,None,None,1,884.9620486,None,,P042,FENCOG,2,Pre,2022_May_10_1058,N-Back (New Version 2021),2021.1.4,119.9909767
,,,,Conditions/Version_1/oneback(3)_v1.xlsx,New rule: Press 'space' when you see 1-back (i.e. the same letter as the one that appeared 1 letter ago.),,,,,,,,,,,0,11,11,11,,,,,,,,,,,,,,,,,,,,,,,,,,,,,,,,,,,,,,,,,,,,,,,,,,,,,,,,,,,,,,,,,,,,,,,,,,,,,,,,,P042,FENCOG,2,Pre,2022_May_10_1058,N-Back (New Version 2021),2021.1.4,119.9909767
,,,,Conditions/Version_1/twoback(4)_v1.xlsx,New rule: Press 'space' when you see 2-back (i.e. the same letter as the one that appeared 2 letters ago.),r,None,,,,,,,,,0,12,12,12,0,0,0,0,,,,,,,,,,,,,,,,,,,,,,,,,,,,,,,,,,,,,,,,,,,,,,,,,,,,,,,,,,,887.0199532,None,890.00667,None,space,1.329571,890.00667,None,887.0199532,None,1.2084,892.5772489,None,None,1,892.5772489,None,,P042,FENCOG,2,Pre,2022_May_10_1058,N-Back (New Version 2021),2021.1.4,119.9909767
,,,,Conditions/Version_1/twoback(4)_v1.xlsx,New rule: Press 'space' when you see 2-back (i.e. the same letter as the one that appeared 2 letters ago.),T,None,,,,,,,,,0,12,12,12,0,1,1,1,,,,,,,,,,,,,,,,,,,,,,,,,,,,,,,,,,,,,,,,,,,,,,,,,,,,,,,,,,,,,,,,,,,,,1.6548,896.2422652,None,None,1,896.2422652,None,,P042,FENCOG,2,Pre,2022_May_10_1058,N-Back (New Version 2021),2021.1.4,119.9909767
,,,,Conditions/Version_1/twoback(4)_v1.xlsx,New rule: Press 'space' when you see 2-back (i.e. the same letter as the one that appeared 2 letters ago.),o,None,,,,,,,,,0,12,12,12,0,2,2,2,,,,,,,,,,,,,,,,,,,,,,,,,,,,,,,,,,,,,,,,,,,,,,,,,,,,,,,,,,,,,,,,,,,,,1.3696,899.6201444,None,None,1,899.6201444,None,,P042,FENCOG,2,Pre,2022_May_10_1058,N-Back (New Version 2021),2021.1.4,119.9909767
,,,,Conditions/Version_1/twoback(4)_v1.xlsx,New rule: Press 'space' when you see 2-back (i.e. the same letter as the one that appeared 2 letters ago.),p,None,,,,,,,,,0,12,12,12,0,3,3,3,,,,,,,,,,,,,,,,,,,,,,,,,,,,,,,,,,,,,,,,,,,,,,,,,,,,,,,,,,,,,,,,,,,,,1.4626,903.0911973,None,None,1,903.0911973,None,,P042,FENCOG,2,Pre,2022_May_10_1058,N-Back (New Version 2021),2021.1.4,119.9909767
,,,,Conditions/Version_1/twoback(4)_v1.xlsx,New rule: Press 'space' when you see 2-back (i.e. the same letter as the one that appeared 2 letters ago.),p,None,,,,,,,,,0,12,12,12,0,4,4,4,,,,,,,,,,,,,,,,,,,,,,,,,,,,,,,,,,,,,,,,,,,,,,,,,,,,,,,,,,,,,,,,,,,,,1.8532,906.9558516,None,None,1,906.9558516,None,,P042,FENCOG,2,Pre,2022_May_10_1058,N-Back (New Version 2021),2021.1.4,119.9909767
,,,,Conditions/Version_1/twoback(4)_v1.xlsx,New rule: Press 'space' when you see 2-back (i.e. the same letter as the one that appeared 2 letters ago.),y,None,,,,,,,,,0,12,12,12,0,5,5,5,,,,,,,,,,,,,,,,,,,,,,,,,,,,,,,,,,,,,,,,,,,,,,,,,,,,,,,,,,,,,,,,,,,,,1.2518,910.2140757,None,None,1,910.2140757,None,,P042,FENCOG,2,Pre,2022_May_10_1058,N-Back (New Version 2021),2021.1.4,119.9909767
,,,,Conditions/Version_1/twoback(4)_v1.xlsx,New rule: Press 'space' when you see 2-back (i.e. the same letter as the one that appeared 2 letters ago.),P,space,,,,,,,,,0,12,12,12,0,6,6,6,,,,,,,,,,,,,,,,,,,,,,,,,,,,,,,,,,,,,,,,,,,,,,,,,,,,,,,,,,,,,,,,,,,,,1.3324,913.5536553,None,space,1,913.5536553,None,0.4865784,P042,FENCOG,2,Pre,2022_May_10_1058,N-Back (New Version 2021),2021.1.4,119.9909767
,,,,Conditions/Version_1/twoback(4)_v1.xlsx,New rule: Press 'space' when you see 2-back (i.e. the same letter as the one that appeared 2 letters ago.),y,None,,,,,,,,,0,12,12,12,0,7,7,7,,,,,,,,,,,,,,,,,,,,,,,,,,,,,,,,,,,,,,,,,,,,,,,,,,,,,,,,,,,,,,,,,,,,,1.7912,917.3463805,None,space,0,917.3463805,None,0.8779718,P042,FENCOG,2,Pre,2022_May_10_1058,N-Back (New Version 2021),2021.1.4,119.9909767
,,,,Conditions/Version_1/twoback(4)_v1.xlsx,New rule: Press 'space' when you see 2-back (i.e. the same letter as the one that appeared 2 letters ago.),y,space,,,,,,,,,0,12,12,12,0,8,8,8,,,,,,,,,,,,,,,,,,,,,,,,,,,,,,,,,,,,,,,,,,,,,,,,,,,,,,,,,,,,,,,,,,,,,1.1898,920.5435113,None,space,1,920.5435113,None,0.6007726,P042,FENCOG,2,Pre,2022_May_10_1058,N-Back (New Version 2021),2021.1.4,119.9909767
,,,,Conditions/Version_1/twoback(4)_v1.xlsx,New rule: Press 'space' when you see 2-back (i.e. the same letter as the one that appeared 2 letters ago.),,,,,,,,,,,0,12,12,12,,,,,,,,,,,,,,,,,,,,,,,,,,,,,,,,,,,,,,,,,,,,,,,,,,,,,,,,,,,,,,,,,,,,,,,,,,,,,,,,,P042,FENCOG,2,Pre,2022_May_10_1058,N-Back (New Version 2021),2021.1.4,119.9909767
,,,,Conditions/Version_1/zeroback(4)_v1.xlsx,New rule: Press 'space' when you see the letter 'x' or 'X'.,o,None,,,,,,,,,0,13,13,13,0,0,0,0,,,,,,,,,,,,,,,,,,,,,,,,,,,,,,,,,,,,,,,,,,,,,,,,,,,,,,,,,,,922.571582,None,925.5530492,None,space,0.7991381,925.5530492,None,922.571582,None,1.6424,928.0334591,None,None,1,928.0334591,None,,P042,FENCOG,2,Pre,2022_May_10_1058,N-Back (New Version 2021),2021.1.4,119.9909767
,,,,Conditions/Version_1/zeroback(4)_v1.xlsx,New rule: Press 'space' when you see the letter 'x' or 'X'.,X,space,,,,,,,,,0,13,13,13,0,1,1,1,,,,,,,,,,,,,,,,,,,,,,,,,,,,,,,,,,,,,,,,,,,,,,,,,,,,,,,,,,,,,,,,,,,,,1.2332,931.2745445,None,space,1,931.2745445,None,0.3976421,P042,FENCOG,2,Pre,2022_May_10_1058,N-Back (New Version 2021),2021.1.4,119.9909767
,,,,Conditions/Version_1/zeroback(4)_v1.xlsx,New rule: Press 'space' when you see the letter 'x' or 'X'.,p,None,,,,,,,,,0,13,13,13,0,2,2,2,,,,,,,,,,,,,,,,,,,,,,,,,,,,,,,,,,,,,,,,,,,,,,,,,,,,,,,,,,,,,,,,,,,,,1.6548,934.9402474,None,None,1,934.9402474,None,,P042,FENCOG,2,Pre,2022_May_10_1058,N-Back (New Version 2021),2021.1.4,119.9909767
,,,,Conditions/Version_1/zeroback(4)_v1.xlsx,New rule: Press 'space' when you see the letter 'x' or 'X'.,m,None,,,,,,,,,0,13,13,13,0,3,3,3,,,,,,,,,,,,,,,,,,,,,,,,,,,,,,,,,,,,,,,,,,,,,,,,,,,,,,,,,,,,,,,,,,,,,1.2394,938.1893913,None,None,1,938.1893913,None,,P042,FENCOG,2,Pre,2022_May_10_1058,N-Back (New Version 2021),2021.1.4,119.9909767
,,,,Conditions/Version_1/zeroback(4)_v1.xlsx,New rule: Press 'space' when you see the letter 'x' or 'X'.,n,None,,,,,,,,,0,13,13,13,0,4,4,4,,,,,,,,,,,,,,,,,,,,,,,,,,,,,,,,,,,,,,,,,,,,,,,,,,,,,,,,,,,,,,,,,,,,,1.1774,941.3798225,None,None,1,941.3798225,None,,P042,FENCOG,2,Pre,2022_May_10_1058,N-Back (New Version 2021),2021.1.4,119.9909767
,,,,Conditions/Version_1/zeroback(4)_v1.xlsx,New rule: Press 'space' when you see the letter 'x' or 'X'.,m,None,,,,,,,,,0,13,13,13,0,5,5,5,,,,,,,,,,,,,,,,,,,,,,,,,,,,,,,,,,,,,,,,,,,,,,,,,,,,,,,,,,,,,,,,,,,,,1.475,944.8631768,None,None,1,944.8631768,None,,P042,FENCOG,2,Pre,2022_May_10_1058,N-Back (New Version 2021),2021.1.4,119.9909767
,,,,Conditions/Version_1/zeroback(4)_v1.xlsx,New rule: Press 'space' when you see the letter 'x' or 'X'.,C,None,,,,,,,,,0,13,13,13,0,6,6,6,,,,,,,,,,,,,,,,,,,,,,,,,,,,,,,,,,,,,,,,,,,,,,,,,,,,,,,,,,,,,,,,,,,,,1.1464,948.0186792,None,None,1,948.0186792,None,,P042,FENCOG,2,Pre,2022_May_10_1058,N-Back (New Version 2021),2021.1.4,119.9909767
,,,,Conditions/Version_1/zeroback(4)_v1.xlsx,New rule: Press 'space' when you see the letter 'x' or 'X'.,m,None,,,,,,,,,0,13,13,13,0,7,7,7,,,,,,,,,,,,,,,,,,,,,,,,,,,,,,,,,,,,,,,,,,,,,,,,,,,,,,,,,,,,,,,,,,,,,1.4254,951.443138,None,None,1,951.443138,None,,P042,FENCOG,2,Pre,2022_May_10_1058,N-Back (New Version 2021),2021.1.4,119.9909767
,,,,Conditions/Version_1/zeroback(4)_v1.xlsx,New rule: Press 'space' when you see the letter 'x' or 'X'.,p,None,,,,,,,,,0,13,13,13,0,8,8,8,,,,,,,,,,,,,,,,,,,,,,,,,,,,,,,,,,,,,,,,,,,,,,,,,,,,,,,,,,,,,,,,,,,,,1.1278,954.5855614,None,None,1,954.5855614,None,,P042,FENCOG,2,Pre,2022_May_10_1058,N-Back (New Version 2021),2021.1.4,119.9909767
,,,,Conditions/Version_1/zeroback(4)_v1.xlsx,New rule: Press 'space' when you see the letter 'x' or 'X'.,X,space,,,,,,,,,0,13,13,13,0,9,9,9,,,,,,,,,,,,,,,,,,,,,,,,,,,,,,,,,,,,,,,,,,,,,,,,,,,,,,,,,,,,,,,,,,,,,1.134,957.7241047,None,space,1,957.7241047,None,0.5960919,P042,FENCOG,2,Pre,2022_May_10_1058,N-Back (New Version 2021),2021.1.4,119.9909767
,,,,Conditions/Version_1/zeroback(4)_v1.xlsx,New rule: Press 'space' when you see the letter 'x' or 'X'.,,,,,,,,,,,0,13,13,13,,,,,,,,,,,,,,,,,,,,,,,,,,,,,,,,,,,,,,,,,,,,,,,,,,,,,,,,,,,,,,,,,,,,,,,,,,,,,,,,,P042,FENCOG,2,Pre,2022_May_10_1058,N-Back (New Version 2021),2021.1.4,119.9909767
,,,,Conditions/Version_1/oneback(4)_v1.xlsx,New rule: Press 'space' when you see 1-back (i.e. the same letter as the one that appeared 1 letter ago.),w,None,,,,,,,,,0,14,14,14,0,0,0,0,,,,,,,,,,,,,,,,,,,,,,,,,,,,,,,,,,,,,,,,,,,,,,,,,,,,,,,,,,,959.746292,None,962.7328731,None,space,0.3313479,962.7328731,None,959.746292,None,1.971,965.0654991,None,None,1,965.0654991,None,,P042,FENCOG,2,Pre,2022_May_10_1058,N-Back (New Version 2021),2021.1.4,119.9909767
,,,,Conditions/Version_1/oneback(4)_v1.xlsx,New rule: Press 'space' when you see 1-back (i.e. the same letter as the one that appeared 1 letter ago.),q,None,,,,,,,,,0,14,14,14,0,1,1,1,,,,,,,,,,,,,,,,,,,,,,,,,,,,,,,,,,,,,,,,,,,,,,,,,,,,,,,,,,,,,,,,,,,,,1.7106,968.7911435,None,None,1,968.7911435,None,,P042,FENCOG,2,Pre,2022_May_10_1058,N-Back (New Version 2021),2021.1.4,119.9909767
,,,,Conditions/Version_1/oneback(4)_v1.xlsx,New rule: Press 'space' when you see 1-back (i.e. the same letter as the one that appeared 1 letter ago.),i,None,,,,,,,,,0,14,14,14,0,2,2,2,,,,,,,,,,,,,,,,,,,,,,,,,,,,,,,,,,,,,,,,,,,,,,,,,,,,,,,,,,,,,,,,,,,,,1.9524,972.7549825,None,None,1,972.7549825,None,,P042,FENCOG,2,Pre,2022_May_10_1058,N-Back (New Version 2021),2021.1.4,119.9909767
,,,,Conditions/Version_1/oneback(4)_v1.xlsx,New rule: Press 'space' when you see 1-back (i.e. the same letter as the one that appeared 1 letter ago.),t,None,,,,,,,,,0,14,14,14,0,3,3,3,,,,,,,,,,,,,,,,,,,,,,,,,,,,,,,,,,,,,,,,,,,,,,,,,,,,,,,,,,,,,,,,,,,,,1.9214,976.686006,None,None,1,976.686006,None,,P042,FENCOG,2,Pre,2022_May_10_1058,N-Back (New Version 2021),2021.1.4,119.9909767
,,,,Conditions/Version_1/oneback(4)_v1.xlsx,New rule: Press 'space' when you see 1-back (i.e. the same letter as the one that appeared 1 letter ago.),v,None,,,,,,,,,0,14,14,14,0,4,4,4,,,,,,,,,,,,,,,,,,,,,,,,,,,,,,,,,,,,,,,,,,,,,,,,,,,,,,,,,,,,,,,,,,,,,1.9896,980.684212,None,None,1,980.684212,None,,P042,FENCOG,2,Pre,2022_May_10_1058,N-Back (New Version 2021),2021.1.4,119.9909767
,,,,Conditions/Version_1/oneback(4)_v1.xlsx,New rule: Press 'space' when you see 1-back (i.e. the same letter as the one that appeared 1 letter ago.),V,space,,,,,,,,,0,14,14,14,0,5,5,5,,,,,,,,,,,,,,,,,,,,,,,,,,,,,,,,,,,,,,,,,,,,,,,,,,,,,,,,,,,,,,,,,,,,,1.196,983.8862893,None,space,1,983.8862893,None,0.4499416,P042,FENCOG,2,Pre,2022_May_10_1058,N-Back (New Version 2021),2021.1.4,119.9909767
,,,,Conditions/Version_1/oneback(4)_v1.xlsx,New rule: Press 'space' when you see 1-back (i.e. the same letter as the one that appeared 1 letter ago.),v,space,,,,,,,,,0,14,14,14,0,6,6,6,,,,,,,,,,,,,,,,,,,,,,,,,,,,,,,,,,,,,,,,,,,,,,,,,,,,,,,,,,,,,,,,,,,,,1.1464,987.0406861,None,space,1,987.0406861,None,0.399535,P042,FENCOG,2,Pre,2022_May_10_1058,N-Back (New Version 2021),2021.1.4,119.9909767
,,,,Conditions/Version_1/oneback(4)_v1.xlsx,New rule: Press 'space' when you see 1-back (i.e. the same letter as the one that appeared 1 letter ago.),p,None,,,,,,,,,0,14,14,14,0,7,7,7,,,,,,,,,,,,,,,,,,,,,,,,,,,,,,,,,,,,,,,,,,,,,,,,,,,,,,,,,,,,,,,,,,,,,1.599,990.6392596,None,None,1,990.6392596,None,,P042,FENCOG,2,Pre,2022_May_10_1058,N-Back (New Version 2021),2021.1.4,119.9909767
,,,,Conditions/Version_1/oneback(4)_v1.xlsx,New rule: Press 'space' when you see 1-back (i.e. the same letter as the one that appeared 1 letter ago.),w,None,,,,,,,,,0,14,14,14,0,8,8,8,,,,,,,,,,,,,,,,,,,,,,,,,,,,,,,,,,,,,,,,,,,,,,,,,,,,,,,,,,,,,,,,,,,,,1.444,994.0882376,None,None,1,994.0882376,None,,P042,FENCOG,2,Pre,2022_May_10_1058,N-Back (New Version 2021),2021.1.4,119.9909767
,,,,Conditions/Version_1/oneback(4)_v1.xlsx,New rule: Press 'space' when you see 1-back (i.e. the same letter as the one that appeared 1 letter ago.),W,space,,,,,,,,,0,14,14,14,0,9,9,9,,,,,,,,,,,,,,,,,,,,,,,,,,,,,,,,,,,,,,,,,,,,,,,,,,,,,,,,,,,,,,,,,,,,,1.8346,997.9287453,None,space,1,997.9287453,None,0.4232361,P042,FENCOG,2,Pre,2022_May_10_1058,N-Back (New Version 2021),2021.1.4,119.9909767
,,,,Conditions/Version_1/oneback(4)_v1.xlsx,New rule: Press 'space' when you see 1-back (i.e. the same letter as the one that appeared 1 letter ago.),,,,,,,,,,,0,14,14,14,,,,,,,,,,,,,,,,,,,,,,,,,,,,,,,,,,,,,,,,,,,,,,,,,,,,,,,,,,,,,,,,,,,,,,,,,,,,,,,,,P042,FENCOG,2,Pre,2022_May_10_1058,N-Back (New Version 2021),2021.1.4,119.9909767
,,,,Conditions/Version_1/threeback(4)_v1.xlsx,New rule: Press 'space' when you see 3-back (i.e. the same letter as the one that appeared 3 letters ago.),A,None,,,,,,,,,0,15,15,15,0,0,0,0,,,,,,,,,,,,,,,,,,,,,,,,,,,,,,,,,,,,,,,,,,,,,,,,,,,,,,,,,,,999.9522208,None,1002.937254,None,space,0.3109035,1002.937254,None,999.9522208,None,1.103,1004.387383,None,None,1,1004.387383,None,,P042,FENCOG,2,Pre,2022_May_10_1058,N-Back (New Version 2021),2021.1.4,119.9909767
,,,,Conditions/Version_1/threeback(4)_v1.xlsx,New rule: Press 'space' when you see 3-back (i.e. the same letter as the one that appeared 3 letters ago.),n,None,,,,,,,,,0,15,15,15,0,1,1,1,,,,,,,,,,,,,,,,,,,,,,,,,,,,,,,,,,,,,,,,,,,,,,,,,,,,,,,,,,,,,,,,,,,,,1.8222,1008.219523,None,None,1,1008.219523,None,,P042,FENCOG,2,Pre,2022_May_10_1058,N-Back (New Version 2021),2021.1.4,119.9909767
,,,,Conditions/Version_1/threeback(4)_v1.xlsx,New rule: Press 'space' when you see 3-back (i.e. the same letter as the one that appeared 3 letters ago.),g,None,,,,,,,,,0,15,15,15,0,2,2,2,,,,,,,,,,,,,,,,,,,,,,,,,,,,,,,,,,,,,,,,,,,,,,,,,,,,,,,,,,,,,,,,,,,,,1.196,1011.426867,None,None,1,1011.426867,None,,P042,FENCOG,2,Pre,2022_May_10_1058,N-Back (New Version 2021),2021.1.4,119.9909767
,,,,Conditions/Version_1/threeback(4)_v1.xlsx,New rule: Press 'space' when you see 3-back (i.e. the same letter as the one that appeared 3 letters ago.),A,space,,,,,,,,,0,15,15,15,0,3,3,3,,,,,,,,,,,,,,,,,,,,,,,,,,,,,,,,,,,,,,,,,,,,,,,,,,,,,,,,,,,,,,,,,,,,,1.7292,1015.166422,None,space,1,1015.166422,None,0.417768,P042,FENCOG,2,Pre,2022_May_10_1058,N-Back (New Version 2021),2021.1.4,119.9909767
,,,,Conditions/Version_1/threeback(4)_v1.xlsx,New rule: Press 'space' when you see 3-back (i.e. the same letter as the one that appeared 3 letters ago.),p,None,,,,,,,,,0,15,15,15,0,4,4,4,,,,,,,,,,,,,,,,,,,,,,,,,,,,,,,,,,,,,,,,,,,,,,,,,,,,,,,,,,,,,,,,,,,,,1.3882,1018.566998,None,None,1,1018.566998,None,,P042,FENCOG,2,Pre,2022_May_10_1058,N-Back (New Version 2021),2021.1.4,119.9909767
,,,,Conditions/Version_1/threeback(4)_v1.xlsx,New rule: Press 'space' when you see 3-back (i.e. the same letter as the one that appeared 3 letters ago.),O,None,,,,,,,,,0,15,15,15,0,5,5,5,,,,,,,,,,,,,,,,,,,,,,,,,,,,,,,,,,,,,,,,,,,,,,,,,,,,,,,,,,,,,,,,,,,,,1.2022,1021.780974,None,None,1,1021.780974,None,,P042,FENCOG,2,Pre,2022_May_10_1058,N-Back (New Version 2021),2021.1.4,119.9909767
,,,,Conditions/Version_1/threeback(4)_v1.xlsx,New rule: Press 'space' when you see 3-back (i.e. the same letter as the one that appeared 3 letters ago.),a,space,,,,,,,,,0,15,15,15,0,6,6,6,,,,,,,,,,,,,,,,,,,,,,,,,,,,,,,,,,,,,,,,,,,,,,,,,,,,,,,,,,,,,,,,,,,,,1.7788,1025.571829,None,space,1,1025.571829,None,0.4764517,P042,FENCOG,2,Pre,2022_May_10_1058,N-Back (New Version 2021),2021.1.4,119.9909767
,,,,Conditions/Version_1/threeback(4)_v1.xlsx,New rule: Press 'space' when you see 3-back (i.e. the same letter as the one that appeared 3 letters ago.),p,space,,,,,,,,,0,15,15,15,0,7,7,7,,,,,,,,,,,,,,,,,,,,,,,,,,,,,,,,,,,,,,,,,,,,,,,,,,,,,,,,,,,,,,,,,,,,,1.9896,1029.569397,None,space,1,1029.569397,None,1.1428286,P042,FENCOG,2,Pre,2022_May_10_1058,N-Back (New Version 2021),2021.1.4,119.9909767
,,,,Conditions/Version_1/threeback(4)_v1.xlsx,New rule: Press 'space' when you see 3-back (i.e. the same letter as the one that appeared 3 letters ago.),x,None,,,,,,,,,0,15,15,15,0,8,8,8,,,,,,,,,,,,,,,,,,,,,,,,,,,,,,,,,,,,,,,,,,,,,,,,,,,,,,,,,,,,,,,,,,,,,1.909,1033.484747,None,None,1,1033.484747,None,,P042,FENCOG,2,Pre,2022_May_10_1058,N-Back (New Version 2021),2021.1.4,119.9909767
,,,,Conditions/Version_1/threeback(4)_v1.xlsx,New rule: Press 'space' when you see 3-back (i.e. the same letter as the one that appeared 3 letters ago.),X,None,,,,,,,,,0,15,15,15,0,9,9,9,,,,,,,,,,,,,,,,,,,,,,,,,,,,,,,,,,,,,,,,,,,,,,,,,,,,,,,,,,,,,,,,,,,,,1.8904,1037.375377,None,None,1,1037.375377,None,,P042,FENCOG,2,Pre,2022_May_10_1058,N-Back (New Version 2021),2021.1.4,119.9909767
,,,,Conditions/Version_1/threeback(4)_v1.xlsx,New rule: Press 'space' when you see 3-back (i.e. the same letter as the one that appeared 3 letters ago.),,,,,,,,,,,0,15,15,15,,,,,,,,,,,,,,,,,,,,,,,,,,,,,,,,,,,,,,,,,,,,,,,,,,,,,,,,,,,,,,,,,,,,,,,,,,,,,,,,,P042,FENCOG,2,Pre,2022_May_10_1058,N-Back (New Version 2021),2021.1.4,119.9909767
