CondFileP,InstructionsP,LettersDisplayedP,CorrectnessP,CondFile,Instructions,LettersDisplayed,Correctness,practicetrials.thisRepN,practicetrials.thisTrialN,practicetrials.thisN,practicetrials.thisIndex,InnerLoopPractice.thisRepN,InnerLoopPractice.thisTrialN,InnerLoopPractice.thisN,InnerLoopPractice.thisIndex,trials.thisRepN,trials.thisTrialN,trials.thisN,trials.thisIndex,InnerLoop.thisRepN,InnerLoop.thisTrialN,InnerLoop.thisN,InnerLoop.thisIndex,TaskVersionText.started,TaskVersionText.stopped,InstrKey1.keys,InstrKey1.rt,InstrKey1.started,InstrKey1.stopped,text.started,text.stopped,key_resp_4.keys,key_resp_4.rt,key_resp_4.started,key_resp_4.stopped,text_2.started,text_2.stopped,key_resp_3.keys,key_resp_3.rt,key_resp_3.started,key_resp_3.stopped,text_3.started,text_3.stopped,key_resp_2.keys,key_resp_2.rt,key_resp_2.started,key_resp_2.stopped,PractIn1.started,PractIn1.stopped,PractIn2.started,PractIn2.stopped,PractInstructionPass.keys,PractInstructionPass.rt,PractInstructionPass.started,PractInstructionPass.stopped,PractBlock1.started,PractBlock1.stopped,ISIjitterPractice,ISI_Pract_Fixation.started,ISI_Pract_Fixation.stopped,N_backP.started,N_backP.stopped,KeyPractice.keys,KeyPractice.corr,KeyPractice.started,KeyPractice.stopped,text_4.started,text_4.stopped,KeyPractice.rt,TransitionText.started,TransitionText.stopped,key_resp_6.keys,key_resp_6.rt,key_resp_6.started,key_resp_6.stopped,text_5.started,text_5.stopped,key_resp_5.keys,key_resp_5.rt,key_resp_5.started,key_resp_5.stopped,MainInt1.started,MainInt1.stopped,MainInt2.started,MainInt2.stopped,InstructionPass.keys,InstructionPass.rt,InstructionPass.started,InstructionPass.stopped,Blocks1.started,Blocks1.stopped,ISIjitter,N_backD.started,N_backD.stopped,key_resp.keys,key_resp.corr,key_resp.started,key_resp.stopped,key_resp.rt,participant,Study Name,Task Version (required to run),PRE/POST,date,expName,psychopyVersion,frameRate,
,,,,,,,,,,,,,,,,,,,,,,,,43.01561810000567,None,space,114.28094979998423,43.50704270001734,None,,,,,,,,,,,,,,,,,,,,,,,,,,,,,,,,,,,,,,,,,,,,,,,,,,,,,,,,,,,,,,,,,,,,,,,P043,fencog,1,Pre,2022_May_12_1116,N-Back (New Version 2021),2021.1.4,120.03375346901586,
,,,,,,,,,,,,,,,,,,,,,,,,,,,,,,157.82066129997838,None,space,9.392675600014627,158.31541639997158,None,,,,,,,,,,,,,,,,,,,,,,,,,,,,,,,,,,,,,,,,,,,,,,,,,,,,,,,,,,,,,,,,,P043,fencog,1,Pre,2022_May_12_1116,N-Back (New Version 2021),2021.1.4,120.03375346901586,
,,,,,,,,,,,,,,,,,,,,,,,,,,,,,,,,,,,,167.74918689997867,None,space,10.486373500025366,168.23764060001122,None,,,,,,,,,,,,,,,,,,,,,,,,,,,,,,,,,,,,,,,,,,,,,,,,,,,,,,,,,,,P043,fencog,1,Pre,2022_May_12_1116,N-Back (New Version 2021),2021.1.4,120.03375346901586,
,,,,,,,,,,,,,,,,,,,,,,,,,,,,,,,,,,,,,,,,,,178.7514803999802,None,space,12.529673299985006,179.24259789998177,None,,,,,,,,,,,,,,,,,,,,,,,,,,,,,,,,,,,,,,,,,,,,,,,,,,,,,P043,fencog,1,Pre,2022_May_12_1116,N-Back (New Version 2021),2021.1.4,120.03375346901586,
Conditions/Version_1Pr/zeroback(1)_v1.xlsx,Rule: Press 'space' when you see the letter 'x' or 'X'.,Z,None,,,,,0,0,0,0,0,0,0,0,,,,,,,,,,,,,,,,,,,,,,,,,,,,,,,,,193.1660446000169,None,196.15516889997525,None,space,0.7610952999675646,196.15516889997525,None,193.1660446000169,None,1.79,196.9522161000059,None,198.7475786000141,None,None,1,198.7475786000141,None,200.75195269996766,None,,,,,,,,,,,,,,,,,,,,,,,,,,,,,,,,P043,fencog,1,Pre,2022_May_12_1116,N-Back (New Version 2021),2021.1.4,120.03375346901586,
Conditions/Version_1Pr/zeroback(1)_v1.xlsx,Rule: Press 'space' when you see the letter 'x' or 'X'.,r,None,,,,,0,0,0,0,0,1,1,1,,,,,,,,,,,,,,,,,,,,,,,,,,,,,,,,,,,,,,,,,,,1.89,202.25165489997016,None,204.14321489998838,None,None,1,204.14321489998838,None,206.1505495000165,None,,,,,,,,,,,,,,,,,,,,,,,,,,,,,,,,P043,fencog,1,Pre,2022_May_12_1116,N-Back (New Version 2021),2021.1.4,120.03375346901586,
Conditions/Version_1Pr/zeroback(1)_v1.xlsx,Rule: Press 'space' when you see the letter 'x' or 'X'.,X,space,,,,,0,0,0,0,0,2,2,2,,,,,,,,,,,,,,,,,,,,,,,,,,,,,,,,,,,,,,,,,,,1.465,207.64998529996956,None,209.11904710001545,None,space,1,209.11904710001545,None,209.6078542000032,None,0.47712529997806996,,,,,,,,,,,,,,,,,,,,,,,,,,,,,,,P043,fencog,1,Pre,2022_May_12_1116,N-Back (New Version 2021),2021.1.4,120.03375346901586,
Conditions/Version_1Pr/zeroback(1)_v1.xlsx,Rule: Press 'space' when you see the letter 'x' or 'X'.,p,None,,,,,0,0,0,0,0,3,3,3,,,,,,,,,,,,,,,,,,,,,,,,,,,,,,,,,,,,,,,,,,,1.965,211.10734619997675,None,213.07588149997173,None,None,1,213.07588149997173,None,215.08385230001295,None,,,,,,,,,,,,,,,,,,,,,,,,,,,,,,,,P043,fencog,1,Pre,2022_May_12_1116,N-Back (New Version 2021),2021.1.4,120.03375346901586,
Conditions/Version_1Pr/zeroback(1)_v1.xlsx,Rule: Press 'space' when you see the letter 'x' or 'X'.,w,None,,,,,0,0,0,0,0,4,4,4,,,,,,,,,,,,,,,,,,,,,,,,,,,,,,,,,,,,,,,,,,,2.015,216.58070439996663,None,218.59838629997103,None,None,1,218.59838629997103,None,220.6045614000177,None,,,,,,,,,,,,,,,,,,,,,,,,,,,,,,,,P043,fencog,1,Pre,2022_May_12_1116,N-Back (New Version 2021),2021.1.4,120.03375346901586,
Conditions/Version_1Pr/zeroback(1)_v1.xlsx,Rule: Press 'space' when you see the letter 'x' or 'X'.,e,None,,,,,0,0,0,0,0,5,5,5,,,,,,,,,,,,,,,,,,,,,,,,,,,,,,,,,,,,,,,,,,,1.64,222.10415510000894,None,223.74678059999133,None,None,1,223.74678059999133,None,225.75307809998048,None,,,,,,,,,,,,,,,,,,,,,,,,,,,,,,,,P043,fencog,1,Pre,2022_May_12_1116,N-Back (New Version 2021),2021.1.4,120.03375346901586,
Conditions/Version_1Pr/zeroback(1)_v1.xlsx,Rule: Press 'space' when you see the letter 'x' or 'X'.,X,space,,,,,0,0,0,0,0,6,6,6,,,,,,,,,,,,,,,,,,,,,,,,,,,,,,,,,,,,,,,,,,,1.765,227.25258919998305,None,229.02210439997725,None,space,1,229.02210439997725,None,229.41990669997176,None,0.38211230002343655,,,,,,,,,,,,,,,,,,,,,,,,,,,,,,,P043,fencog,1,Pre,2022_May_12_1116,N-Back (New Version 2021),2021.1.4,120.03375346901586,
Conditions/Version_1Pr/zeroback(1)_v1.xlsx,Rule: Press 'space' when you see the letter 'x' or 'X'.,x,space,,,,,0,0,0,0,0,7,7,7,,,,,,,,,,,,,,,,,,,,,,,,,,,,,,,,,,,,,,,,,,,1.315,230.92622939997818,None,232.24891079997178,None,space,1,232.24891079997178,None,232.6190339999739,None,0.35525520000373945,,,,,,,,,,,,,,,,,,,,,,,,,,,,,,,P043,fencog,1,Pre,2022_May_12_1116,N-Back (New Version 2021),2021.1.4,120.03375346901586,
Conditions/Version_1Pr/zeroback(1)_v1.xlsx,Rule: Press 'space' when you see the letter 'x' or 'X'.,p,None,,,,,0,0,0,0,0,8,8,8,,,,,,,,,,,,,,,,,,,,,,,,,,,,,,,,,,,,,,,,,,,1.715,234.12558729999,None,235.84386369999265,None,None,1,235.84386369999265,None,237.84945159999188,None,,,,,,,,,,,,,,,,,,,,,,,,,,,,,,,,P043,fencog,1,Pre,2022_May_12_1116,N-Back (New Version 2021),2021.1.4,120.03375346901586,
Conditions/Version_1Pr/zeroback(1)_v1.xlsx,Rule: Press 'space' when you see the letter 'x' or 'X'.,r,None,,,,,0,0,0,0,0,9,9,9,,,,,,,,,,,,,,,,,,,,,,,,,,,,,,,,,,,,,,,,,,,1.84,239.34905600000639,None,241.1905129000079,None,None,1,241.1905129000079,None,243.1979760999675,None,,,,,,,,,,,,,,,,,,,,,,,,,,,,,,,,P043,fencog,1,Pre,2022_May_12_1116,N-Back (New Version 2021),2021.1.4,120.03375346901586,
Conditions/Version_1Pr/zeroback(1)_v1.xlsx,Rule: Press 'space' when you see the letter 'x' or 'X'.,,,,,,,0,0,0,0,,,,,,,,,,,,,,,,,,,,,,,,,,,,,,,,,,,,,,,,,,,,,,,,,,,,,,,,,,,,,,,,,,,,,,,,,,,,,,,,,,,,,,,,,P043,fencog,1,Pre,2022_May_12_1116,N-Back (New Version 2021),2021.1.4,120.03375346901586,
Conditions/Version_1Pr/oneback(1)_v1.xlsx,New rule: Press 'space' when you see 1-back (i.e. the same letter as the one that appeared 1 letter ago.),a,None,,,,,0,1,1,1,0,0,0,0,,,,,,,,,,,,,,,,,,,,,,,,,,,,,,,,,244.7210029999842,None,247.69870639999863,None,space,17.79334730003029,247.69870639999863,None,244.7210029999842,None,1.54,265.526786500006,None,267.06776569999056,None,None,1,267.06776569999056,None,269.07355239999015,None,,,,,,,,,,,,,,,,,,,,,,,,,,,,,,,,P043,fencog,1,Pre,2022_May_12_1116,N-Back (New Version 2021),2021.1.4,120.03375346901586,
Conditions/Version_1Pr/oneback(1)_v1.xlsx,New rule: Press 'space' when you see 1-back (i.e. the same letter as the one that appeared 1 letter ago.),x,None,,,,,0,1,1,1,0,1,1,1,,,,,,,,,,,,,,,,,,,,,,,,,,,,,,,,,,,,,,,,,,,1.165,270.57268310000654,None,271.7402268999722,None,None,1,271.7402268999722,None,273.7470155999763,None,,,,,,,,,,,,,,,,,,,,,,,,,,,,,,,,P043,fencog,1,Pre,2022_May_12_1116,N-Back (New Version 2021),2021.1.4,120.03375346901586,
Conditions/Version_1Pr/oneback(1)_v1.xlsx,New rule: Press 'space' when you see 1-back (i.e. the same letter as the one that appeared 1 letter ago.),g,None,,,,,0,1,1,1,0,2,2,2,,,,,,,,,,,,,,,,,,,,,,,,,,,,,,,,,,,,,,,,,,,1.69,275.24671410000883,None,276.9392856999766,None,None,1,276.9392856999766,None,278.94548110000324,None,,,,,,,,,,,,,,,,,,,,,,,,,,,,,,,,P043,fencog,1,Pre,2022_May_12_1116,N-Back (New Version 2021),2021.1.4,120.03375346901586,
Conditions/Version_1Pr/oneback(1)_v1.xlsx,New rule: Press 'space' when you see 1-back (i.e. the same letter as the one that appeared 1 letter ago.),G,space,,,,,0,1,1,1,0,3,3,3,,,,,,,,,,,,,,,,,,,,,,,,,,,,,,,,,,,,,,,,,,,1.565,280.445168700011,None,282.0137936999672,None,space,1,282.0137936999672,None,283.0041300000157,None,0.966334700002335,,,,,,,,,,,,,,,,,,,,,,,,,,,,,,,P043,fencog,1,Pre,2022_May_12_1116,N-Back (New Version 2021),2021.1.4,120.03375346901586,
Conditions/Version_1Pr/oneback(1)_v1.xlsx,New rule: Press 'space' when you see 1-back (i.e. the same letter as the one that appeared 1 letter ago.),u,None,,,,,0,1,1,1,0,4,4,4,,,,,,,,,,,,,,,,,,,,,,,,,,,,,,,,,,,,,,,,,,,1.29,284.51042780000716,None,285.8046256999951,None,None,1,285.8046256999951,None,287.8051717999624,None,,,,,,,,,,,,,,,,,,,,,,,,,,,,,,,,P043,fencog,1,Pre,2022_May_12_1116,N-Back (New Version 2021),2021.1.4,120.03375346901586,
Conditions/Version_1Pr/oneback(1)_v1.xlsx,New rule: Press 'space' when you see 1-back (i.e. the same letter as the one that appeared 1 letter ago.),y,None,,,,,0,1,1,1,0,5,5,5,,,,,,,,,,,,,,,,,,,,,,,,,,,,,,,,,,,,,,,,,,,1.99,289.30923939996865,None,291.30074959999183,None,None,1,291.30074959999183,None,293.29956229997333,None,,,,,,,,,,,,,,,,,,,,,,,,,,,,,,,,P043,fencog,1,Pre,2022_May_12_1116,N-Back (New Version 2021),2021.1.4,120.03375346901586,
Conditions/Version_1Pr/oneback(1)_v1.xlsx,New rule: Press 'space' when you see 1-back (i.e. the same letter as the one that appeared 1 letter ago.),y,space,,,,,0,1,1,1,0,6,6,6,,,,,,,,,,,,,,,,,,,,,,,,,,,,,,,,,,,,,,,,,,,1.79,294.7992802999797,None,296.5903525999747,None,space,1,296.5903525999747,None,296.9347808000166,None,0.3337140000076033,,,,,,,,,,,,,,,,,,,,,,,,,,,,,,,P043,fencog,1,Pre,2022_May_12_1116,N-Back (New Version 2021),2021.1.4,120.03375346901586,
Conditions/Version_1Pr/oneback(1)_v1.xlsx,New rule: Press 'space' when you see 1-back (i.e. the same letter as the one that appeared 1 letter ago.),k,None,,,,,0,1,1,1,0,7,7,7,,,,,,,,,,,,,,,,,,,,,,,,,,,,,,,,,,,,,,,,,,,1.14,298.43975229997886,None,299.59035979997134,None,None,1,299.59035979997134,None,301.588915499975,None,,,,,,,,,,,,,,,,,,,,,,,,,,,,,,,,P043,fencog,1,Pre,2022_May_12_1116,N-Back (New Version 2021),2021.1.4,120.03375346901586,
Conditions/Version_1Pr/oneback(1)_v1.xlsx,New rule: Press 'space' when you see 1-back (i.e. the same letter as the one that appeared 1 letter ago.),c,None,,,,,0,1,1,1,0,8,8,8,,,,,,,,,,,,,,,,,,,,,,,,,,,,,,,,,,,,,,,,,,,1.215,303.0891343000112,None,304.30621459998656,None,None,1,304.30621459998656,None,306.312574999989,None,,,,,,,,,,,,,,,,,,,,,,,,,,,,,,,,P043,fencog,1,Pre,2022_May_12_1116,N-Back (New Version 2021),2021.1.4,120.03375346901586,
Conditions/Version_1Pr/oneback(1)_v1.xlsx,New rule: Press 'space' when you see 1-back (i.e. the same letter as the one that appeared 1 letter ago.),r,None,,,,,0,1,1,1,0,9,9,9,,,,,,,,,,,,,,,,,,,,,,,,,,,,,,,,,,,,,,,,,,,2.015,307.8121547999908,None,309.8289873999893,None,None,1,309.8289873999893,None,311.83596009999746,None,,,,,,,,,,,,,,,,,,,,,,,,,,,,,,,,P043,fencog,1,Pre,2022_May_12_1116,N-Back (New Version 2021),2021.1.4,120.03375346901586,
Conditions/Version_1Pr/oneback(1)_v1.xlsx,New rule: Press 'space' when you see 1-back (i.e. the same letter as the one that appeared 1 letter ago.),,,,,,,0,1,1,1,,,,,,,,,,,,,,,,,,,,,,,,,,,,,,,,,,,,,,,,,,,,,,,,,,,,,,,,,,,,,,,,,,,,,,,,,,,,,,,,,,,,,,,,,P043,fencog,1,Pre,2022_May_12_1116,N-Back (New Version 2021),2021.1.4,120.03375346901586,
Conditions/Version_1Pr/twoback(1)_v1.xlsx,New rule: Press 'space' when you see 2-back (i.e. the same letter as the one that appeared 2 letters ago.),E,None,,,,,0,2,2,2,0,0,0,0,,,,,,,,,,,,,,,,,,,,,,,,,,,,,,,,,313.35956060001627,None,316.3448994999635,None,space,2.1231988000217825,316.3448994999635,None,313.35956060001627,None,1.765,318.4961736999685,None,320.2698427999858,None,None,1,320.2698427999858,None,322.2745277999784,None,,,,,,,,,,,,,,,,,,,,,,,,,,,,,,,,P043,fencog,1,Pre,2022_May_12_1116,N-Back (New Version 2021),2021.1.4,120.03375346901586,
Conditions/Version_1Pr/twoback(1)_v1.xlsx,New rule: Press 'space' when you see 2-back (i.e. the same letter as the one that appeared 2 letters ago.),p,None,,,,,0,2,2,2,0,1,1,1,,,,,,,,,,,,,,,,,,,,,,,,,,,,,,,,,,,,,,,,,,,1.465,323.77382050000597,None,325.24097759998403,None,None,1,325.24097759998403,None,327.24810729996534,None,,,,,,,,,,,,,,,,,,,,,,,,,,,,,,,,P043,fencog,1,Pre,2022_May_12_1116,N-Back (New Version 2021),2021.1.4,120.03375346901586,
Conditions/Version_1Pr/twoback(1)_v1.xlsx,New rule: Press 'space' when you see 2-back (i.e. the same letter as the one that appeared 2 letters ago.),e,space,,,,,0,2,2,2,0,2,2,2,,,,,,,,,,,,,,,,,,,,,,,,,,,,,,,,,,,,,,,,,,,2.015,328.74762659997214,None,330.770950599981,None,space,1,330.770950599981,None,331.4885231999797,None,0.704954800021369,,,,,,,,,,,,,,,,,,,,,,,,,,,,,,,P043,fencog,1,Pre,2022_May_12_1116,N-Back (New Version 2021),2021.1.4,120.03375346901586,
Conditions/Version_1Pr/twoback(1)_v1.xlsx,New rule: Press 'space' when you see 2-back (i.e. the same letter as the one that appeared 2 letters ago.),s,None,,,,,0,2,2,2,0,3,3,3,,,,,,,,,,,,,,,,,,,,,,,,,,,,,,,,,,,,,,,,,,,1.615,332.9879955999786,None,334.6088354999665,None,None,1,334.6088354999665,None,336.61084129998926,None,,,,,,,,,,,,,,,,,,,,,,,,,,,,,,,,P043,fencog,1,Pre,2022_May_12_1116,N-Back (New Version 2021),2021.1.4,120.03375346901586,
Conditions/Version_1Pr/twoback(1)_v1.xlsx,New rule: Press 'space' when you see 2-back (i.e. the same letter as the one that appeared 2 letters ago.),S,None,,,,,0,2,2,2,0,4,4,4,,,,,,,,,,,,,,,,,,,,,,,,,,,,,,,,,,,,,,,,,,,1.79,338.1115155000007,None,339.90695929998765,None,None,1,339.90695929998765,None,341.9102216999745,None,,,,,,,,,,,,,,,,,,,,,,,,,,,,,,,,P043,fencog,1,Pre,2022_May_12_1116,N-Back (New Version 2021),2021.1.4,120.03375346901586,
Conditions/Version_1Pr/twoback(1)_v1.xlsx,New rule: Press 'space' when you see 2-back (i.e. the same letter as the one that appeared 2 letters ago.),s,space,,,,,0,2,2,2,0,5,5,5,,,,,,,,,,,,,,,,,,,,,,,,,,,,,,,,,,,,,,,,,,,1.44,343.40984119998757,None,344.85209659999236,None,space,1,344.85209659999236,None,345.2841896999744,None,0.4239022000110708,,,,,,,,,,,,,,,,,,,,,,,,,,,,,,,P043,fencog,1,Pre,2022_May_12_1116,N-Back (New Version 2021),2021.1.4,120.03375346901586,
Conditions/Version_1Pr/twoback(1)_v1.xlsx,New rule: Press 'space' when you see 2-back (i.e. the same letter as the one that appeared 2 letters ago.),P,None,,,,,0,2,2,2,0,6,6,6,,,,,,,,,,,,,,,,,,,,,,,,,,,,,,,,,,,,,,,,,,,1.29,346.7838963000104,None,348.08345799997915,None,None,1,348.08345799997915,None,350.0829507000162,None,,,,,,,,,,,,,,,,,,,,,,,,,,,,,,,,P043,fencog,1,Pre,2022_May_12_1116,N-Back (New Version 2021),2021.1.4,120.03375346901586,
Conditions/Version_1Pr/twoback(1)_v1.xlsx,New rule: Press 'space' when you see 2-back (i.e. the same letter as the one that appeared 2 letters ago.),C,None,,,,,0,2,2,2,0,7,7,7,,,,,,,,,,,,,,,,,,,,,,,,,,,,,,,,,,,,,,,,,,,1.04,351.5825483999797,None,352.62608469999395,None,None,1,352.62608469999395,None,354.6316111999913,None,,,,,,,,,,,,,,,,,,,,,,,,,,,,,,,,P043,fencog,1,Pre,2022_May_12_1116,N-Back (New Version 2021),2021.1.4,120.03375346901586,
Conditions/Version_1Pr/twoback(1)_v1.xlsx,New rule: Press 'space' when you see 2-back (i.e. the same letter as the one that appeared 2 letters ago.),x,None,,,,,0,2,2,2,0,8,8,8,,,,,,,,,,,,,,,,,,,,,,,,,,,,,,,,,,,,,,,,,,,1.265,356.13120850000996,None,357.3982085000025,None,None,1,357.3982085000025,None,359.4051765999757,None,,,,,,,,,,,,,,,,,,,,,,,,,,,,,,,,P043,fencog,1,Pre,2022_May_12_1116,N-Back (New Version 2021),2021.1.4,120.03375346901586,
Conditions/Version_1Pr/twoback(1)_v1.xlsx,New rule: Press 'space' when you see 2-back (i.e. the same letter as the one that appeared 2 letters ago.),Z,None,,,,,0,2,2,2,0,9,9,9,,,,,,,,,,,,,,,,,,,,,,,,,,,,,,,,,,,,,,,,,,,1.715,360.9047520000022,None,362.6210610999842,None,None,1,362.6210610999842,None,364.61999480001396,None,,,,,,,,,,,,,,,,,,,,,,,,,,,,,,,,P043,fencog,1,Pre,2022_May_12_1116,N-Back (New Version 2021),2021.1.4,120.03375346901586,
Conditions/Version_1Pr/twoback(1)_v1.xlsx,New rule: Press 'space' when you see 2-back (i.e. the same letter as the one that appeared 2 letters ago.),,,,,,,0,2,2,2,,,,,,,,,,,,,,,,,,,,,,,,,,,,,,,,,,,,,,,,,,,,,,,,,,,,,,,,,,,,,,,,,,,,,,,,,,,,,,,,,,,,,,,,,P043,fencog,1,Pre,2022_May_12_1116,N-Back (New Version 2021),2021.1.4,120.03375346901586,
Conditions/Version_1Pr/threeback(1)_v1.xlsx,New rule: Press 'space' when you see 3-back (i.e. the same letter as the one that appeared 3 letters ago.),r,None,,,,,0,3,3,3,0,0,0,0,,,,,,,,,,,,,,,,,,,,,,,,,,,,,,,,,366.141120699991,None,369.12934230000246,None,space,1.0824499999871477,369.12934230000246,None,366.141120699991,None,2.015,370.2363546999986,None,372.25491879996844,None,None,1,372.25491879996844,None,374.2591705999803,None,,,,,,,,,,,,,,,,,,,,,,,,,,,,,,,,P043,fencog,1,Pre,2022_May_12_1116,N-Back (New Version 2021),2021.1.4,120.03375346901586,
Conditions/Version_1Pr/threeback(1)_v1.xlsx,New rule: Press 'space' when you see 3-back (i.e. the same letter as the one that appeared 3 letters ago.),a,None,,,,,0,3,3,3,0,1,1,1,,,,,,,,,,,,,,,,,,,,,,,,,,,,,,,,,,,,,,,,,,,1.165,375.75866409996524,None,376.9255967999925,None,None,1,376.9255967999925,None,378.93283920001704,None,,,,,,,,,,,,,,,,,,,,,,,,,,,,,,,,P043,fencog,1,Pre,2022_May_12_1116,N-Back (New Version 2021),2021.1.4,120.03375346901586,
Conditions/Version_1Pr/threeback(1)_v1.xlsx,New rule: Press 'space' when you see 3-back (i.e. the same letter as the one that appeared 3 letters ago.),t,None,,,,,0,3,3,3,0,2,2,2,,,,,,,,,,,,,,,,,,,,,,,,,,,,,,,,,,,,,,,,,,,1.965,380.4323538999888,None,382.4001189999981,None,None,1,382.4001189999981,None,384.4061894000042,None,,,,,,,,,,,,,,,,,,,,,,,,,,,,,,,,P043,fencog,1,Pre,2022_May_12_1116,N-Back (New Version 2021),2021.1.4,120.03375346901586,
Conditions/Version_1Pr/threeback(1)_v1.xlsx,New rule: Press 'space' when you see 3-back (i.e. the same letter as the one that appeared 3 letters ago.),r,space,,,,,0,3,3,3,0,3,3,3,,,,,,,,,,,,,,,,,,,,,,,,,,,,,,,,,,,,,,,,,,,1.04,385.90575229999376,None,386.94898970000213,None,space,1,386.94898970000213,None,387.4085739000002,None,0.4469764999812469,,,,,,,,,,,,,,,,,,,,,,,,,,,,,,,P043,fencog,1,Pre,2022_May_12_1116,N-Back (New Version 2021),2021.1.4,120.03375346901586,
Conditions/Version_1Pr/threeback(1)_v1.xlsx,New rule: Press 'space' when you see 3-back (i.e. the same letter as the one that appeared 3 letters ago.),a,None,,,,,0,3,3,3,0,4,4,4,,,,,,,,,,,,,,,,,,,,,,,,,,,,,,,,,,,,,,,,,,,1.19,388.9131579999812,None,390.1054971999838,None,space,0,390.1054971999838,None,390.76766030001454,None,0.6346275000250898,,,,,,,,,,,,,,,,,,,,,,,,,,,,,,,P043,fencog,1,Pre,2022_May_12_1116,N-Back (New Version 2021),2021.1.4,120.03375346901586,
Conditions/Version_1Pr/threeback(1)_v1.xlsx,New rule: Press 'space' when you see 3-back (i.e. the same letter as the one that appeared 3 letters ago.),Y,None,,,,,0,3,3,3,0,5,5,5,,,,,,,,,,,,,,,,,,,,,,,,,,,,,,,,,,,,,,,,,,,1.915,392.2705096999998,None,394.1887144999928,None,None,1,394.1887144999928,None,396.19565780000994,None,,,,,,,,,,,,,,,,,,,,,,,,,,,,,,,,P043,fencog,1,Pre,2022_May_12_1116,N-Back (New Version 2021),2021.1.4,120.03375346901586,
Conditions/Version_1Pr/threeback(1)_v1.xlsx,New rule: Press 'space' when you see 3-back (i.e. the same letter as the one that appeared 3 letters ago.),q,None,,,,,0,3,3,3,0,6,6,6,,,,,,,,,,,,,,,,,,,,,,,,,,,,,,,,,,,,,,,,,,,1.765,397.6939907000051,None,399.46073819999583,None,None,1,399.46073819999583,None,401.46782439999515,None,,,,,,,,,,,,,,,,,,,,,,,,,,,,,,,,P043,fencog,1,Pre,2022_May_12_1116,N-Back (New Version 2021),2021.1.4,120.03375346901586,
Conditions/Version_1Pr/threeback(1)_v1.xlsx,New rule: Press 'space' when you see 3-back (i.e. the same letter as the one that appeared 3 letters ago.),A,space,,,,,0,3,3,3,0,7,7,7,,,,,,,,,,,,,,,,,,,,,,,,,,,,,,,,,,,,,,,,,,,1.115,402.96738739998545,None,404.0913281000103,None,None,0,404.0913281000103,None,406.09618529997533,None,,,,,,,,,,,,,,,,,,,,,,,,,,,,,,,,P043,fencog,1,Pre,2022_May_12_1116,N-Back (New Version 2021),2021.1.4,120.03375346901586,
Conditions/Version_1Pr/threeback(1)_v1.xlsx,New rule: Press 'space' when you see 3-back (i.e. the same letter as the one that appeared 3 letters ago.),y,None,,,,,0,3,3,3,0,8,8,8,,,,,,,,,,,,,,,,,,,,,,,,,,,,,,,,,,,,,,,,,,,1.69,407.59082829998806,None,409.2831239000079,None,None,1,409.2831239000079,None,411.2910844999715,None,,,,,,,,,,,,,,,,,,,,,,,,,,,,,,,,P043,fencog,1,Pre,2022_May_12_1116,N-Back (New Version 2021),2021.1.4,120.03375346901586,
Conditions/Version_1Pr/threeback(1)_v1.xlsx,New rule: Press 'space' when you see 3-back (i.e. the same letter as the one that appeared 3 letters ago.),r,None,,,,,0,3,3,3,0,9,9,9,,,,,,,,,,,,,,,,,,,,,,,,,,,,,,,,,,,,,,,,,,,1.74,412.78920539998217,None,414.5319435999845,None,space,0,414.5319435999845,None,415.36286330001894,None,0.8081947999889962,,,,,,,,,,,,,,,,,,,,,,,,,,,,,,,P043,fencog,1,Pre,2022_May_12_1116,N-Back (New Version 2021),2021.1.4,120.03375346901586,
Conditions/Version_1Pr/threeback(1)_v1.xlsx,New rule: Press 'space' when you see 3-back (i.e. the same letter as the one that appeared 3 letters ago.),,,,,,,0,3,3,3,,,,,,,,,,,,,,,,,,,,,,,,,,,,,,,,,,,,,,,,,,,,,,,,,,,,,,,,,,,,,,,,,,,,,,,,,,,,,,,,,,,,,,,,,P043,fencog,1,Pre,2022_May_12_1116,N-Back (New Version 2021),2021.1.4,120.03375346901586,
,,,,,,,,,,,,,,,,,,,,,,,,,,,,,,,,,,,,,,,,,,,,,,,,,,,,,,,,,,,,,,,,,,,,,,416.87670049996814,None,space,4.872199399978854,417.3717730999924,None,,,,,,,,,,,,,,,,,,,,,,,,,P043,fencog,1,Pre,2022_May_12_1116,N-Back (New Version 2021),2021.1.4,120.03375346901586,
,,,,,,,,,,,,,,,,,,,,,,,,,,,,,,,,,,,,,,,,,,,,,,,,,,,,,,,,,,,,,,,,,,,,,,,,,,,,422.2694322000025,None,space,1.8502771999919787,422.75368209998123,None,,,,,,,,,,,,,,,,,,,P043,fencog,1,Pre,2022_May_12_1116,N-Back (New Version 2021),2021.1.4,120.03375346901586,
,,,,Conditions/Version_1/zeroback(1)_v1.xlsx,Rule: Press 'space' when you see the letter 'x' or 'X'.,b,None,,,,,,,,,0,0,0,0,0,0,0,0,,,,,,,,,,,,,,,,,,,,,,,,,,,,,,,,,,,,,,,,,,,,,,,,,,,,,,,,,,,424.71653029997833,None,427.70369639998535,None,space,0.4040955999516882,427.70369639998535,None,424.71653029997833,None,1.8532,429.9941926000174,None,None,1,429.9941926000174,None,,P043,fencog,1,Pre,2022_May_12_1116,N-Back (New Version 2021),2021.1.4,120.03375346901586,
,,,,Conditions/Version_1/zeroback(1)_v1.xlsx,Rule: Press 'space' when you see the letter 'x' or 'X'.,T,None,,,,,,,,,0,0,0,0,0,1,1,1,,,,,,,,,,,,,,,,,,,,,,,,,,,,,,,,,,,,,,,,,,,,,,,,,,,,,,,,,,,,,,,,,,,,,1.9152,433.91677899996284,None,None,1,433.91677899996284,None,,P043,fencog,1,Pre,2022_May_12_1116,N-Back (New Version 2021),2021.1.4,120.03375346901586,
,,,,Conditions/Version_1/zeroback(1)_v1.xlsx,Rule: Press 'space' when you see the letter 'x' or 'X'.,L,None,,,,,,,,,0,0,0,0,0,2,2,2,,,,,,,,,,,,,,,,,,,,,,,,,,,,,,,,,,,,,,,,,,,,,,,,,,,,,,,,,,,,,,,,,,,,,1.5122,437.4330883999937,None,None,1,437.4330883999937,None,,P043,fencog,1,Pre,2022_May_12_1116,N-Back (New Version 2021),2021.1.4,120.03375346901586,
,,,,Conditions/Version_1/zeroback(1)_v1.xlsx,Rule: Press 'space' when you see the letter 'x' or 'X'.,x,space,,,,,,,,,0,0,0,0,0,3,3,3,,,,,,,,,,,,,,,,,,,,,,,,,,,,,,,,,,,,,,,,,,,,,,,,,,,,,,,,,,,,,,,,,,,,,1.9214,441.3642080000136,None,space,1,441.3642080000136,None,0.303810799960047,P043,fencog,1,Pre,2022_May_12_1116,N-Back (New Version 2021),2021.1.4,120.03375346901586,
,,,,Conditions/Version_1/zeroback(1)_v1.xlsx,Rule: Press 'space' when you see the letter 'x' or 'X'.,o,None,,,,,,,,,0,0,0,0,0,4,4,4,,,,,,,,,,,,,,,,,,,,,,,,,,,,,,,,,,,,,,,,,,,,,,,,,,,,,,,,,,,,,,,,,,,,,1.8408,445.2048641999718,None,None,1,445.2048641999718,None,,P043,fencog,1,Pre,2022_May_12_1116,N-Back (New Version 2021),2021.1.4,120.03375346901586,
,,,,Conditions/Version_1/zeroback(1)_v1.xlsx,Rule: Press 'space' when you see the letter 'x' or 'X'.,P,None,,,,,,,,,0,0,0,0,0,5,5,5,,,,,,,,,,,,,,,,,,,,,,,,,,,,,,,,,,,,,,,,,,,,,,,,,,,,,,,,,,,,,,,,,,,,,1.072,448.28708879998885,None,None,1,448.28708879998885,None,,P043,fencog,1,Pre,2022_May_12_1116,N-Back (New Version 2021),2021.1.4,120.03375346901586,
,,,,Conditions/Version_1/zeroback(1)_v1.xlsx,Rule: Press 'space' when you see the letter 'x' or 'X'.,X,space,,,,,,,,,0,0,0,0,0,6,6,6,,,,,,,,,,,,,,,,,,,,,,,,,,,,,,,,,,,,,,,,,,,,,,,,,,,,,,,,,,,,,,,,,,,,,1.4998,451.78877719998127,None,space,1,451.78877719998127,None,0.46301569999195635,P043,fencog,1,Pre,2022_May_12_1116,N-Back (New Version 2021),2021.1.4,120.03375346901586,
,,,,Conditions/Version_1/zeroback(1)_v1.xlsx,Rule: Press 'space' when you see the letter 'x' or 'X'.,n,None,,,,,,,,,0,0,0,0,0,7,7,7,,,,,,,,,,,,,,,,,,,,,,,,,,,,,,,,,,,,,,,,,,,,,,,,,,,,,,,,,,,,,,,,,,,,,1.2146,455.01095949998125,None,None,1,455.01095949998125,None,,P043,fencog,1,Pre,2022_May_12_1116,N-Back (New Version 2021),2021.1.4,120.03375346901586,
,,,,Conditions/Version_1/zeroback(1)_v1.xlsx,Rule: Press 'space' when you see the letter 'x' or 'X'.,M,None,,,,,,,,,0,0,0,0,0,8,8,8,,,,,,,,,,,,,,,,,,,,,,,,,,,,,,,,,,,,,,,,,,,,,,,,,,,,,,,,,,,,,,,,,,,,,1.0906,458.1109905000194,None,None,1,458.1109905000194,None,,P043,fencog,1,Pre,2022_May_12_1116,N-Back (New Version 2021),2021.1.4,120.03375346901586,
,,,,Conditions/Version_1/zeroback(1)_v1.xlsx,Rule: Press 'space' when you see the letter 'x' or 'X'.,a,None,,,,,,,,,0,0,0,0,0,9,9,9,,,,,,,,,,,,,,,,,,,,,,,,,,,,,,,,,,,,,,,,,,,,,,,,,,,,,,,,,,,,,,,,,,,,,1.2642,461.38471610000124,None,None,1,461.38471610000124,None,,P043,fencog,1,Pre,2022_May_12_1116,N-Back (New Version 2021),2021.1.4,120.03375346901586,
,,,,Conditions/Version_1/zeroback(1)_v1.xlsx,Rule: Press 'space' when you see the letter 'x' or 'X'.,,,,,,,,,,,0,0,0,0,,,,,,,,,,,,,,,,,,,,,,,,,,,,,,,,,,,,,,,,,,,,,,,,,,,,,,,,,,,,,,,,,,,,,,,,,,,,,,,,,P043,fencog,1,Pre,2022_May_12_1116,N-Back (New Version 2021),2021.1.4,120.03375346901586,
,,,,Conditions/Version_1/oneback(1)_v1.xlsx,New rule: Press 'space' when you see 1-back (i.e. the same letter as the one that appeared 1 letter ago.),b,None,,,,,,,,,0,1,1,1,0,0,0,0,,,,,,,,,,,,,,,,,,,,,,,,,,,,,,,,,,,,,,,,,,,,,,,,,,,,,,,,,,,463.42161540000234,None,466.4092759999912,None,space,1.5866918000392616,466.4092759999912,None,463.42161540000234,None,1.9648,469.9974043999682,None,None,1,469.9974043999682,None,,P043,fencog,1,Pre,2022_May_12_1116,N-Back (New Version 2021),2021.1.4,120.03375346901586,
,,,,Conditions/Version_1/oneback(1)_v1.xlsx,New rule: Press 'space' when you see 1-back (i.e. the same letter as the one that appeared 1 letter ago.),p,None,,,,,,,,,0,1,1,1,0,1,1,1,,,,,,,,,,,,,,,,,,,,,,,,,,,,,,,,,,,,,,,,,,,,,,,,,,,,,,,,,,,,,,,,,,,,,1.475,473.47128329996485,None,None,1,473.47128329996485,None,,P043,fencog,1,Pre,2022_May_12_1116,N-Back (New Version 2021),2021.1.4,120.03375346901586,
,,,,Conditions/Version_1/oneback(1)_v1.xlsx,New rule: Press 'space' when you see 1-back (i.e. the same letter as the one that appeared 1 letter ago.),M,None,,,,,,,,,0,1,1,1,0,2,2,2,,,,,,,,,,,,,,,,,,,,,,,,,,,,,,,,,,,,,,,,,,,,,,,,,,,,,,,,,,,,,,,,,,,,,1.661,477.13884650002,None,None,1,477.13884650002,None,,P043,fencog,1,Pre,2022_May_12_1116,N-Back (New Version 2021),2021.1.4,120.03375346901586,
,,,,Conditions/Version_1/oneback(1)_v1.xlsx,New rule: Press 'space' when you see 1-back (i.e. the same letter as the one that appeared 1 letter ago.),M,space,,,,,,,,,0,1,1,1,0,3,3,3,,,,,,,,,,,,,,,,,,,,,,,,,,,,,,,,,,,,,,,,,,,,,,,,,,,,,,,,,,,,,,,,,,,,,1.7416,480.8860131999827,None,space,1,480.8860131999827,None,0.39026519999606535,P043,fencog,1,Pre,2022_May_12_1116,N-Back (New Version 2021),2021.1.4,120.03375346901586,
,,,,Conditions/Version_1/oneback(1)_v1.xlsx,New rule: Press 'space' when you see 1-back (i.e. the same letter as the one that appeared 1 letter ago.),n,None,,,,,,,,,0,1,1,1,0,4,4,4,,,,,,,,,,,,,,,,,,,,,,,,,,,,,,,,,,,,,,,,,,,,,,,,,,,,,,,,,,,,,,,,,,,,,1.1774,484.0717610999709,None,None,1,484.0717610999709,None,,P043,fencog,1,Pre,2022_May_12_1116,N-Back (New Version 2021),2021.1.4,120.03375346901586,
,,,,Conditions/Version_1/oneback(1)_v1.xlsx,New rule: Press 'space' when you see 1-back (i.e. the same letter as the one that appeared 1 letter ago.),g,None,,,,,,,,,0,1,1,1,0,5,5,5,,,,,,,,,,,,,,,,,,,,,,,,,,,,,,,,,,,,,,,,,,,,,,,,,,,,,,,,,,,,,,,,,,,,,1.2022,487.2839791000006,None,None,1,487.2839791000006,None,,P043,fencog,1,Pre,2022_May_12_1116,N-Back (New Version 2021),2021.1.4,120.03375346901586,
,,,,Conditions/Version_1/oneback(1)_v1.xlsx,New rule: Press 'space' when you see 1-back (i.e. the same letter as the one that appeared 1 letter ago.),P,None,,,,,,,,,0,1,1,1,0,6,6,6,,,,,,,,,,,,,,,,,,,,,,,,,,,,,,,,,,,,,,,,,,,,,,,,,,,,,,,,,,,,,,,,,,,,,1.2146,490.49974369996926,None,None,1,490.49974369996926,None,,P043,fencog,1,Pre,2022_May_12_1116,N-Back (New Version 2021),2021.1.4,120.03375346901586,
,,,,Conditions/Version_1/oneback(1)_v1.xlsx,New rule: Press 'space' when you see 1-back (i.e. the same letter as the one that appeared 1 letter ago.),o,None,,,,,,,,,0,1,1,1,0,7,7,7,,,,,,,,,,,,,,,,,,,,,,,,,,,,,,,,,,,,,,,,,,,,,,,,,,,,,,,,,,,,,,,,,,,,,1.878,494.3818140999647,None,None,1,494.3818140999647,None,,P043,fencog,1,Pre,2022_May_12_1116,N-Back (New Version 2021),2021.1.4,120.03375346901586,
,,,,Conditions/Version_1/oneback(1)_v1.xlsx,New rule: Press 'space' when you see 1-back (i.e. the same letter as the one that appeared 1 letter ago.),f,None,,,,,,,,,0,1,1,1,0,8,8,8,,,,,,,,,,,,,,,,,,,,,,,,,,,,,,,,,,,,,,,,,,,,,,,,,,,,,,,,,,,,,,,,,,,,,1.5618,497.9482560000033,None,None,1,497.9482560000033,None,,P043,fencog,1,Pre,2022_May_12_1116,N-Back (New Version 2021),2021.1.4,120.03375346901586,
,,,,Conditions/Version_1/oneback(1)_v1.xlsx,New rule: Press 'space' when you see 1-back (i.e. the same letter as the one that appeared 1 letter ago.),F,space,,,,,,,,,0,1,1,1,0,9,9,9,,,,,,,,,,,,,,,,,,,,,,,,,,,,,,,,,,,,,,,,,,,,,,,,,,,,,,,,,,,,,,,,,,,,,1.382,501.3399819000042,None,space,1,501.3399819000042,None,0.5201805999968201,P043,fencog,1,Pre,2022_May_12_1116,N-Back (New Version 2021),2021.1.4,120.03375346901586,
,,,,Conditions/Version_1/oneback(1)_v1.xlsx,New rule: Press 'space' when you see 1-back (i.e. the same letter as the one that appeared 1 letter ago.),,,,,,,,,,,0,1,1,1,,,,,,,,,,,,,,,,,,,,,,,,,,,,,,,,,,,,,,,,,,,,,,,,,,,,,,,,,,,,,,,,,,,,,,,,,,,,,,,,,P043,fencog,1,Pre,2022_May_12_1116,N-Back (New Version 2021),2021.1.4,120.03375346901586,
,,,,Conditions/Version_1/twoback(1)_v1.xlsx,New rule: Press 'space' when you see 2-back (i.e. the same letter as the one that appeared 2 letters ago.),b,None,,,,,,,,,0,2,2,2,0,0,0,0,,,,,,,,,,,,,,,,,,,,,,,,,,,,,,,,,,,,,,,,,,,,,,,,,,,,,,,,,,,503.36879089998547,None,506.356352599978,None,space,5.255592700035777,506.356352599978,None,503.36879089998547,None,1.7044,513.3512055000174,None,None,1,513.3512055000174,None,,P043,fencog,1,Pre,2022_May_12_1116,N-Back (New Version 2021),2021.1.4,120.03375346901586,
,,,,Conditions/Version_1/twoback(1)_v1.xlsx,New rule: Press 'space' when you see 2-back (i.e. the same letter as the one that appeared 2 letters ago.),h,None,,,,,,,,,0,2,2,2,0,1,1,1,,,,,,,,,,,,,,,,,,,,,,,,,,,,,,,,,,,,,,,,,,,,,,,,,,,,,,,,,,,,,,,,,,,,,1.8222,517.1767285999958,None,None,1,517.1767285999958,None,,P043,fencog,1,Pre,2022_May_12_1116,N-Back (New Version 2021),2021.1.4,120.03375346901586,
,,,,Conditions/Version_1/twoback(1)_v1.xlsx,New rule: Press 'space' when you see 2-back (i.e. the same letter as the one that appeared 2 letters ago.),j,None,,,,,,,,,0,2,2,2,0,2,2,2,,,,,,,,,,,,,,,,,,,,,,,,,,,,,,,,,,,,,,,,,,,,,,,,,,,,,,,,,,,,,,,,,,,,,1.816,521.0006839999696,None,None,1,521.0006839999696,None,,P043,fencog,1,Pre,2022_May_12_1116,N-Back (New Version 2021),2021.1.4,120.03375346901586,
,,,,Conditions/Version_1/twoback(1)_v1.xlsx,New rule: Press 'space' when you see 2-back (i.e. the same letter as the one that appeared 2 letters ago.),H,space,,,,,,,,,0,2,2,2,0,3,3,3,,,,,,,,,,,,,,,,,,,,,,,,,,,,,,,,,,,,,,,,,,,,,,,,,,,,,,,,,,,,,,,,,,,,,1.6858,524.6995712000062,None,space,1,524.6995712000062,None,0.7441836000070907,P043,fencog,1,Pre,2022_May_12_1116,N-Back (New Version 2021),2021.1.4,120.03375346901586,
,,,,Conditions/Version_1/twoback(1)_v1.xlsx,New rule: Press 'space' when you see 2-back (i.e. the same letter as the one that appeared 2 letters ago.),p,None,,,,,,,,,0,2,2,2,0,4,4,4,,,,,,,,,,,,,,,,,,,,,,,,,,,,,,,,,,,,,,,,,,,,,,,,,,,,,,,,,,,,,,,,,,,,,1.6052,528.313731400005,None,None,1,528.313731400005,None,,P043,fencog,1,Pre,2022_May_12_1116,N-Back (New Version 2021),2021.1.4,120.03375346901586,
,,,,Conditions/Version_1/twoback(1)_v1.xlsx,New rule: Press 'space' when you see 2-back (i.e. the same letter as the one that appeared 2 letters ago.),p,None,,,,,,,,,0,2,2,2,0,5,5,5,,,,,,,,,,,,,,,,,,,,,,,,,,,,,,,,,,,,,,,,,,,,,,,,,,,,,,,,,,,,,,,,,,,,,1.475,531.7876173999975,None,None,1,531.7876173999975,None,,P043,fencog,1,Pre,2022_May_12_1116,N-Back (New Version 2021),2021.1.4,120.03375346901586,
,,,,Conditions/Version_1/twoback(1)_v1.xlsx,New rule: Press 'space' when you see 2-back (i.e. the same letter as the one that appeared 2 letters ago.),w,None,,,,,,,,,0,2,2,2,0,6,6,6,,,,,,,,,,,,,,,,,,,,,,,,,,,,,,,,,,,,,,,,,,,,,,,,,,,,,,,,,,,,,,,,,,,,,1.9896,535.7779762999853,None,None,1,535.7779762999853,None,,P043,fencog,1,Pre,2022_May_12_1116,N-Back (New Version 2021),2021.1.4,120.03375346901586,
,,,,Conditions/Version_1/twoback(1)_v1.xlsx,New rule: Press 'space' when you see 2-back (i.e. the same letter as the one that appeared 2 letters ago.),R,None,,,,,,,,,0,2,2,2,0,7,7,7,,,,,,,,,,,,,,,,,,,,,,,,,,,,,,,,,,,,,,,,,,,,,,,,,,,,,,,,,,,,,,,,,,,,,1.0844,538.868797699979,None,None,1,538.868797699979,None,,P043,fencog,1,Pre,2022_May_12_1116,N-Back (New Version 2021),2021.1.4,120.03375346901586,
,,,,Conditions/Version_1/twoback(1)_v1.xlsx,New rule: Press 'space' when you see 2-back (i.e. the same letter as the one that appeared 2 letters ago.),a,None,,,,,,,,,0,2,2,2,0,8,8,8,,,,,,,,,,,,,,,,,,,,,,,,,,,,,,,,,,,,,,,,,,,,,,,,,,,,,,,,,,,,,,,,,,,,,1.3696,542.2436604999821,None,None,1,542.2436604999821,None,,P043,fencog,1,Pre,2022_May_12_1116,N-Back (New Version 2021),2021.1.4,120.03375346901586,
,,,,Conditions/Version_1/twoback(1)_v1.xlsx,New rule: Press 'space' when you see 2-back (i.e. the same letter as the one that appeared 2 letters ago.),r,space,,,,,,,,,0,2,2,2,0,9,9,9,,,,,,,,,,,,,,,,,,,,,,,,,,,,,,,,,,,,,,,,,,,,,,,,,,,,,,,,,,,,,,,,,,,,,1.3882,545.644032799988,None,space,1,545.644032799988,None,1.287809700006619,P043,fencog,1,Pre,2022_May_12_1116,N-Back (New Version 2021),2021.1.4,120.03375346901586,
,,,,Conditions/Version_1/twoback(1)_v1.xlsx,New rule: Press 'space' when you see 2-back (i.e. the same letter as the one that appeared 2 letters ago.),,,,,,,,,,,0,2,2,2,,,,,,,,,,,,,,,,,,,,,,,,,,,,,,,,,,,,,,,,,,,,,,,,,,,,,,,,,,,,,,,,,,,,,,,,,,,,,,,,,P043,fencog,1,Pre,2022_May_12_1116,N-Back (New Version 2021),2021.1.4,120.03375346901586,
,,,,Conditions/Version_1/threeback(1)_v1.xlsx,New rule: Press 'space' when you see 3-back (i.e. the same letter as the one that appeared 3 letters ago.),r,None,,,,,,,,,0,3,3,3,0,0,0,0,,,,,,,,,,,,,,,,,,,,,,,,,,,,,,,,,,,,,,,,,,,,,,,,,,,,,,,,,,,547.6704363999888,None,550.6591389999958,None,space,10.057014600024559,550.6591389999958,None,547.6704363999888,None,1.382,562.1368556999951,None,None,1,562.1368556999951,None,,P043,fencog,1,Pre,2022_May_12_1116,N-Back (New Version 2021),2021.1.4,120.03375346901586,
,,,,Conditions/Version_1/threeback(1)_v1.xlsx,New rule: Press 'space' when you see 3-back (i.e. the same letter as the one that appeared 3 letters ago.),o,None,,,,,,,,,0,3,3,3,0,1,1,1,,,,,,,,,,,,,,,,,,,,,,,,,,,,,,,,,,,,,,,,,,,,,,,,,,,,,,,,,,,,,,,,,,,,,1.2766,565.4219209000003,None,None,1,565.4219209000003,None,,P043,fencog,1,Pre,2022_May_12_1116,N-Back (New Version 2021),2021.1.4,120.03375346901586,
,,,,Conditions/Version_1/threeback(1)_v1.xlsx,New rule: Press 'space' when you see 3-back (i.e. the same letter as the one that appeared 3 letters ago.),P,None,,,,,,,,,0,3,3,3,0,2,2,2,,,,,,,,,,,,,,,,,,,,,,,,,,,,,,,,,,,,,,,,,,,,,,,,,,,,,,,,,,,,,,,,,,,,,1.692,569.1181740000029,None,None,1,569.1181740000029,None,,P043,fencog,1,Pre,2022_May_12_1116,N-Back (New Version 2021),2021.1.4,120.03375346901586,
,,,,Conditions/Version_1/threeback(1)_v1.xlsx,New rule: Press 'space' when you see 3-back (i.e. the same letter as the one that appeared 3 letters ago.),R,space,,,,,,,,,0,3,3,3,0,3,3,3,,,,,,,,,,,,,,,,,,,,,,,,,,,,,,,,,,,,,,,,,,,,,,,,,,,,,,,,,,,,,,,,,,,,,1.5556,572.6755308000138,None,space,1,572.6755308000138,None,0.40850349998800084,P043,fencog,1,Pre,2022_May_12_1116,N-Back (New Version 2021),2021.1.4,120.03375346901586,
,,,,Conditions/Version_1/threeback(1)_v1.xlsx,New rule: Press 'space' when you see 3-back (i.e. the same letter as the one that appeared 3 letters ago.),p,None,,,,,,,,,0,3,3,3,0,4,4,4,,,,,,,,,,,,,,,,,,,,,,,,,,,,,,,,,,,,,,,,,,,,,,,,,,,,,,,,,,,,,,,,,,,,,1.1588,575.8496280999971,None,None,1,575.8496280999971,None,,P043,fencog,1,Pre,2022_May_12_1116,N-Back (New Version 2021),2021.1.4,120.03375346901586,
,,,,Conditions/Version_1/threeback(1)_v1.xlsx,New rule: Press 'space' when you see 3-back (i.e. the same letter as the one that appeared 3 letters ago.),E,None,,,,,,,,,0,3,3,3,0,5,5,5,,,,,,,,,,,,,,,,,,,,,,,,,,,,,,,,,,,,,,,,,,,,,,,,,,,,,,,,,,,,,,,,,,,,,1.165,579.0172773000086,None,None,1,579.0172773000086,None,,P043,fencog,1,Pre,2022_May_12_1116,N-Back (New Version 2021),2021.1.4,120.03375346901586,
,,,,Conditions/Version_1/threeback(1)_v1.xlsx,New rule: Press 'space' when you see 3-back (i.e. the same letter as the one that appeared 3 letters ago.),e,None,,,,,,,,,0,3,3,3,0,6,6,6,,,,,,,,,,,,,,,,,,,,,,,,,,,,,,,,,,,,,,,,,,,,,,,,,,,,,,,,,,,,,,,,,,,,,1.2022,582.232044000004,None,None,1,582.232044000004,None,,P043,fencog,1,Pre,2022_May_12_1116,N-Back (New Version 2021),2021.1.4,120.03375346901586,
,,,,Conditions/Version_1/threeback(1)_v1.xlsx,New rule: Press 'space' when you see 3-back (i.e. the same letter as the one that appeared 3 letters ago.),m,None,,,,,,,,,0,3,3,3,0,7,7,7,,,,,,,,,,,,,,,,,,,,,,,,,,,,,,,,,,,,,,,,,,,,,,,,,,,,,,,,,,,,,,,,,,,,,1.537,585.7821650999831,None,None,1,585.7821650999831,None,,P043,fencog,1,Pre,2022_May_12_1116,N-Back (New Version 2021),2021.1.4,120.03375346901586,
,,,,Conditions/Version_1/threeback(1)_v1.xlsx,New rule: Press 'space' when you see 3-back (i.e. the same letter as the one that appeared 3 letters ago.),n,None,,,,,,,,,0,3,3,3,0,8,8,8,,,,,,,,,,,,,,,,,,,,,,,,,,,,,,,,,,,,,,,,,,,,,,,,,,,,,,,,,,,,,,,,,,,,,1.1402,588.9327088000136,None,None,1,588.9327088000136,None,,P043,fencog,1,Pre,2022_May_12_1116,N-Back (New Version 2021),2021.1.4,120.03375346901586,
,,,,Conditions/Version_1/threeback(1)_v1.xlsx,New rule: Press 'space' when you see 3-back (i.e. the same letter as the one that appeared 3 letters ago.),e,space,,,,,,,,,0,3,3,3,0,9,9,9,,,,,,,,,,,,,,,,,,,,,,,,,,,,,,,,,,,,,,,,,,,,,,,,,,,,,,,,,,,,,,,,,,,,,1.7664,592.7038697999669,None,space,1,592.7038697999669,None,0.6038699000491761,P043,fencog,1,Pre,2022_May_12_1116,N-Back (New Version 2021),2021.1.4,120.03375346901586,
,,,,Conditions/Version_1/threeback(1)_v1.xlsx,New rule: Press 'space' when you see 3-back (i.e. the same letter as the one that appeared 3 letters ago.),,,,,,,,,,,0,3,3,3,,,,,,,,,,,,,,,,,,,,,,,,,,,,,,,,,,,,,,,,,,,,,,,,,,,,,,,,,,,,,,,,,,,,,,,,,,,,,,,,,P043,fencog,1,Pre,2022_May_12_1116,N-Back (New Version 2021),2021.1.4,120.03375346901586,
,,,,Conditions/Version_1/oneback(2)_v1.xlsx,New rule: Press 'space' when you see 1-back (i.e. the same letter as the one that appeared 1 letter ago.),q,None,,,,,,,,,0,4,4,4,0,0,0,0,,,,,,,,,,,,,,,,,,,,,,,,,,,,,,,,,,,,,,,,,,,,,,,,,,,,,,,,,,,594.7353952999692,None,597.7203606999828,None,space,6.2994606999563985,597.7203606999828,None,594.7353952999692,None,1.8718,605.9289896999835,None,None,1,605.9289896999835,None,,P043,fencog,1,Pre,2022_May_12_1116,N-Back (New Version 2021),2021.1.4,120.03375346901586,
,,,,Conditions/Version_1/oneback(2)_v1.xlsx,New rule: Press 'space' when you see 1-back (i.e. the same letter as the one that appeared 1 letter ago.),Q,space,,,,,,,,,0,4,4,4,0,1,1,1,,,,,,,,,,,,,,,,,,,,,,,,,,,,,,,,,,,,,,,,,,,,,,,,,,,,,,,,,,,,,,,,,,,,,1.134,609.0675271999789,None,space,1,609.0675271999789,None,0.5681784999906085,P043,fencog,1,Pre,2022_May_12_1116,N-Back (New Version 2021),2021.1.4,120.03375346901586,
,,,,Conditions/Version_1/oneback(2)_v1.xlsx,New rule: Press 'space' when you see 1-back (i.e. the same letter as the one that appeared 1 letter ago.),P,None,,,,,,,,,0,4,4,4,0,2,2,2,,,,,,,,,,,,,,,,,,,,,,,,,,,,,,,,,,,,,,,,,,,,,,,,,,,,,,,,,,,,,,,,,,,,,1.289,612.3637958000181,None,None,1,612.3637958000181,None,,P043,fencog,1,Pre,2022_May_12_1116,N-Back (New Version 2021),2021.1.4,120.03375346901586,
,,,,Conditions/Version_1/oneback(2)_v1.xlsx,New rule: Press 'space' when you see 1-back (i.e. the same letter as the one that appeared 1 letter ago.),o,None,,,,,,,,,0,4,4,4,0,3,3,3,,,,,,,,,,,,,,,,,,,,,,,,,,,,,,,,,,,,,,,,,,,,,,,,,,,,,,,,,,,,,,,,,,,,,1.6672,616.0304564000107,None,None,1,616.0304564000107,None,,P043,fencog,1,Pre,2022_May_12_1116,N-Back (New Version 2021),2021.1.4,120.03375346901586,
,,,,Conditions/Version_1/oneback(2)_v1.xlsx,New rule: Press 'space' when you see 1-back (i.e. the same letter as the one that appeared 1 letter ago.),m,None,,,,,,,,,0,4,4,4,0,4,4,4,,,,,,,,,,,,,,,,,,,,,,,,,,,,,,,,,,,,,,,,,,,,,,,,,,,,,,,,,,,,,,,,,,,,,1.2828,619.3200329999672,None,None,1,619.3200329999672,None,,P043,fencog,1,Pre,2022_May_12_1116,N-Back (New Version 2021),2021.1.4,120.03375346901586,
,,,,Conditions/Version_1/oneback(2)_v1.xlsx,New rule: Press 'space' when you see 1-back (i.e. the same letter as the one that appeared 1 letter ago.),Z,None,,,,,,,,,0,4,4,4,0,5,5,5,,,,,,,,,,,,,,,,,,,,,,,,,,,,,,,,,,,,,,,,,,,,,,,,,,,,,,,,,,,,,,,,,,,,,1.5742,622.8963030999876,None,None,1,622.8963030999876,None,,P043,fencog,1,Pre,2022_May_12_1116,N-Back (New Version 2021),2021.1.4,120.03375346901586,
,,,,Conditions/Version_1/oneback(2)_v1.xlsx,New rule: Press 'space' when you see 1-back (i.e. the same letter as the one that appeared 1 letter ago.),c,None,,,,,,,,,0,4,4,4,0,6,6,6,,,,,,,,,,,,,,,,,,,,,,,,,,,,,,,,,,,,,,,,,,,,,,,,,,,,,,,,,,,,,,,,,,,,,1.0348,625.9478054000065,None,None,1,625.9478054000065,None,,P043,fencog,1,Pre,2022_May_12_1116,N-Back (New Version 2021),2021.1.4,120.03375346901586,
,,,,Conditions/Version_1/oneback(2)_v1.xlsx,New rule: Press 'space' when you see 1-back (i.e. the same letter as the one that appeared 1 letter ago.),c,space,,,,,,,,,0,4,4,4,0,7,7,7,,,,,,,,,,,,,,,,,,,,,,,,,,,,,,,,,,,,,,,,,,,,,,,,,,,,,,,,,,,,,,,,,,,,,1.6176,629.5754448999651,None,space,1,629.5754448999651,None,0.3562379999784753,P043,fencog,1,Pre,2022_May_12_1116,N-Back (New Version 2021),2021.1.4,120.03375346901586,
,,,,Conditions/Version_1/oneback(2)_v1.xlsx,New rule: Press 'space' when you see 1-back (i.e. the same letter as the one that appeared 1 letter ago.),P,None,,,,,,,,,0,4,4,4,0,8,8,8,,,,,,,,,,,,,,,,,,,,,,,,,,,,,,,,,,,,,,,,,,,,,,,,,,,,,,,,,,,,,,,,,,,,,1.7416,633.3157979999669,None,None,1,633.3157979999669,None,,P043,fencog,1,Pre,2022_May_12_1116,N-Back (New Version 2021),2021.1.4,120.03375346901586,
,,,,Conditions/Version_1/oneback(2)_v1.xlsx,New rule: Press 'space' when you see 1-back (i.e. the same letter as the one that appeared 1 letter ago.),p,space,,,,,,,,,0,4,4,4,0,9,9,9,,,,,,,,,,,,,,,,,,,,,,,,,,,,,,,,,,,,,,,,,,,,,,,,,,,,,,,,,,,,,,,,,,,,,1.8036,637.1229822000023,None,space,1,637.1229822000023,None,0.5449155999813229,P043,fencog,1,Pre,2022_May_12_1116,N-Back (New Version 2021),2021.1.4,120.03375346901586,
,,,,Conditions/Version_1/oneback(2)_v1.xlsx,New rule: Press 'space' when you see 1-back (i.e. the same letter as the one that appeared 1 letter ago.),,,,,,,,,,,0,4,4,4,,,,,,,,,,,,,,,,,,,,,,,,,,,,,,,,,,,,,,,,,,,,,,,,,,,,,,,,,,,,,,,,,,,,,,,,,,,,,,,,,P043,fencog,1,Pre,2022_May_12_1116,N-Back (New Version 2021),2021.1.4,120.03375346901586,
,,,,Conditions/Version_1/zeroback(2)_v1.xlsx,New rule: Press 'space' when you see the letter 'x' or 'X'.,p,None,,,,,,,,,0,5,5,5,0,0,0,0,,,,,,,,,,,,,,,,,,,,,,,,,,,,,,,,,,,,,,,,,,,,,,,,,,,,,,,,,,,639.1439053000067,None,642.1235847999924,None,space,5.864000400004443,642.1235847999924,None,639.1439053000067,None,1.351,649.3696428000112,None,None,1,649.3696428000112,None,,P043,fencog,1,Pre,2022_May_12_1116,N-Back (New Version 2021),2021.1.4,120.03375346901586,
,,,,Conditions/Version_1/zeroback(2)_v1.xlsx,New rule: Press 'space' when you see the letter 'x' or 'X'.,L,None,,,,,,,,,0,5,5,5,0,1,1,1,,,,,,,,,,,,,,,,,,,,,,,,,,,,,,,,,,,,,,,,,,,,,,,,,,,,,,,,,,,,,,,,,,,,,1.9648,653.3376467999769,None,None,1,653.3376467999769,None,,P043,fencog,1,Pre,2022_May_12_1116,N-Back (New Version 2021),2021.1.4,120.03375346901586,
,,,,Conditions/Version_1/zeroback(2)_v1.xlsx,New rule: Press 'space' when you see the letter 'x' or 'X'.,G,None,,,,,,,,,0,5,5,5,0,2,2,2,,,,,,,,,,,,,,,,,,,,,,,,,,,,,,,,,,,,,,,,,,,,,,,,,,,,,,,,,,,,,,,,,,,,,1.7478,657.0922060000012,None,None,1,657.0922060000012,None,,P043,fencog,1,Pre,2022_May_12_1116,N-Back (New Version 2021),2021.1.4,120.03375346901586,
,,,,Conditions/Version_1/zeroback(2)_v1.xlsx,New rule: Press 'space' when you see the letter 'x' or 'X'.,y,None,,,,,,,,,0,5,5,5,0,3,3,3,,,,,,,,,,,,,,,,,,,,,,,,,,,,,,,,,,,,,,,,,,,,,,,,,,,,,,,,,,,,,,,,,,,,,1.8098,660.9077596999705,None,None,1,660.9077596999705,None,,P043,fencog,1,Pre,2022_May_12_1116,N-Back (New Version 2021),2021.1.4,120.03375346901586,
,,,,Conditions/Version_1/zeroback(2)_v1.xlsx,New rule: Press 'space' when you see the letter 'x' or 'X'.,Y,None,,,,,,,,,0,5,5,5,0,4,4,4,,,,,,,,,,,,,,,,,,,,,,,,,,,,,,,,,,,,,,,,,,,,,,,,,,,,,,,,,,,,,,,,,,,,,1.6486,664.5586502999649,None,None,1,664.5586502999649,None,,P043,fencog,1,Pre,2022_May_12_1116,N-Back (New Version 2021),2021.1.4,120.03375346901586,
,,,,Conditions/Version_1/zeroback(2)_v1.xlsx,New rule: Press 'space' when you see the letter 'x' or 'X'.,W,None,,,,,,,,,0,5,5,5,0,5,5,5,,,,,,,,,,,,,,,,,,,,,,,,,,,,,,,,,,,,,,,,,,,,,,,,,,,,,,,,,,,,,,,,,,,,,1.878,668.4500725999824,None,None,1,668.4500725999824,None,,P043,fencog,1,Pre,2022_May_12_1116,N-Back (New Version 2021),2021.1.4,120.03375346901586,
,,,,Conditions/Version_1/zeroback(2)_v1.xlsx,New rule: Press 'space' when you see the letter 'x' or 'X'.,x,space,,,,,,,,,0,5,5,5,0,6,6,6,,,,,,,,,,,,,,,,,,,,,,,,,,,,,,,,,,,,,,,,,,,,,,,,,,,,,,,,,,,,,,,,,,,,,1.1588,671.617085099977,None,space,1,671.617085099977,None,0.5705948999966495,P043,fencog,1,Pre,2022_May_12_1116,N-Back (New Version 2021),2021.1.4,120.03375346901586,
,,,,Conditions/Version_1/zeroback(2)_v1.xlsx,New rule: Press 'space' when you see the letter 'x' or 'X'.,X,space,,,,,,,,,0,5,5,5,0,7,7,7,,,,,,,,,,,,,,,,,,,,,,,,,,,,,,,,,,,,,,,,,,,,,,,,,,,,,,,,,,,,,,,,,,,,,1.3386,674.9638693999732,None,space,1,674.9638693999732,None,0.3999811999965459,P043,fencog,1,Pre,2022_May_12_1116,N-Back (New Version 2021),2021.1.4,120.03375346901586,
,,,,Conditions/Version_1/zeroback(2)_v1.xlsx,New rule: Press 'space' when you see the letter 'x' or 'X'.,p,None,,,,,,,,,0,5,5,5,0,8,8,8,,,,,,,,,,,,,,,,,,,,,,,,,,,,,,,,,,,,,,,,,,,,,,,,,,,,,,,,,,,,,,,,,,,,,1.8532,678.8309164000093,None,None,1,678.8309164000093,None,,P043,fencog,1,Pre,2022_May_12_1116,N-Back (New Version 2021),2021.1.4,120.03375346901586,
,,,,Conditions/Version_1/zeroback(2)_v1.xlsx,New rule: Press 'space' when you see the letter 'x' or 'X'.,h,None,,,,,,,,,0,5,5,5,0,9,9,9,,,,,,,,,,,,,,,,,,,,,,,,,,,,,,,,,,,,,,,,,,,,,,,,,,,,,,,,,,,,,,,,,,,,,1.6114,682.4513012999669,None,None,1,682.4513012999669,None,,P043,fencog,1,Pre,2022_May_12_1116,N-Back (New Version 2021),2021.1.4,120.03375346901586,
,,,,Conditions/Version_1/zeroback(2)_v1.xlsx,New rule: Press 'space' when you see the letter 'x' or 'X'.,,,,,,,,,,,0,5,5,5,,,,,,,,,,,,,,,,,,,,,,,,,,,,,,,,,,,,,,,,,,,,,,,,,,,,,,,,,,,,,,,,,,,,,,,,,,,,,,,,,P043,fencog,1,Pre,2022_May_12_1116,N-Back (New Version 2021),2021.1.4,120.03375346901586,
,,,,Conditions/Version_1/threeback(2)_v1.xlsx,New rule: Press 'space' when you see 3-back (i.e. the same letter as the one that appeared 3 letters ago.),q,None,,,,,,,,,0,6,6,6,0,0,0,0,,,,,,,,,,,,,,,,,,,,,,,,,,,,,,,,,,,,,,,,,,,,,,,,,,,,,,,,,,,684.4769939999678,None,687.4601611999678,None,space,3.791640599956736,687.4601611999678,None,684.4769939999678,None,1.9586,693.2428169000195,None,None,1,693.2428169000195,None,,P043,fencog,1,Pre,2022_May_12_1116,N-Back (New Version 2021),2021.1.4,120.03375346901586,
,,,,Conditions/Version_1/threeback(2)_v1.xlsx,New rule: Press 'space' when you see 3-back (i.e. the same letter as the one that appeared 3 letters ago.),Y,None,,,,,,,,,0,6,6,6,0,1,1,1,,,,,,,,,,,,,,,,,,,,,,,,,,,,,,,,,,,,,,,,,,,,,,,,,,,,,,,,,,,,,,,,,,,,,1.1836,696.4314551000134,None,None,1,696.4314551000134,None,,P043,fencog,1,Pre,2022_May_12_1116,N-Back (New Version 2021),2021.1.4,120.03375346901586,
,,,,Conditions/Version_1/threeback(2)_v1.xlsx,New rule: Press 'space' when you see 3-back (i.e. the same letter as the one that appeared 3 letters ago.),p,None,,,,,,,,,0,6,6,6,0,2,2,2,,,,,,,,,,,,,,,,,,,,,,,,,,,,,,,,,,,,,,,,,,,,,,,,,,,,,,,,,,,,,,,,,,,,,1.6548,700.0972799999872,None,None,1,700.0972799999872,None,,P043,fencog,1,Pre,2022_May_12_1116,N-Back (New Version 2021),2021.1.4,120.03375346901586,
,,,,Conditions/Version_1/threeback(2)_v1.xlsx,New rule: Press 'space' when you see 3-back (i.e. the same letter as the one that appeared 3 letters ago.),p,None,,,,,,,,,0,6,6,6,0,3,3,3,,,,,,,,,,,,,,,,,,,,,,,,,,,,,,,,,,,,,,,,,,,,,,,,,,,,,,,,,,,,,,,,,,,,,1.754,703.8618271999876,None,None,1,703.8618271999876,None,,P043,fencog,1,Pre,2022_May_12_1116,N-Back (New Version 2021),2021.1.4,120.03375346901586,
,,,,Conditions/Version_1/threeback(2)_v1.xlsx,New rule: Press 'space' when you see 3-back (i.e. the same letter as the one that appeared 3 letters ago.),y,space,,,,,,,,,0,6,6,6,0,4,4,4,,,,,,,,,,,,,,,,,,,,,,,,,,,,,,,,,,,,,,,,,,,,,,,,,,,,,,,,,,,,,,,,,,,,,1.5308,707.3939007999725,None,space,1,707.3939007999725,None,0.9940314999548718,P043,fencog,1,Pre,2022_May_12_1116,N-Back (New Version 2021),2021.1.4,120.03375346901586,
,,,,Conditions/Version_1/threeback(2)_v1.xlsx,New rule: Press 'space' when you see 3-back (i.e. the same letter as the one that appeared 3 letters ago.),u,None,,,,,,,,,0,6,6,6,0,5,5,5,,,,,,,,,,,,,,,,,,,,,,,,,,,,,,,,,,,,,,,,,,,,,,,,,,,,,,,,,,,,,,,,,,,,,1.7912,711.1847123000189,None,None,1,711.1847123000189,None,,P043,fencog,1,Pre,2022_May_12_1116,N-Back (New Version 2021),2021.1.4,120.03375346901586,
,,,,Conditions/Version_1/threeback(2)_v1.xlsx,New rule: Press 'space' when you see 3-back (i.e. the same letter as the one that appeared 3 letters ago.),P,space,,,,,,,,,0,6,6,6,0,6,6,6,,,,,,,,,,,,,,,,,,,,,,,,,,,,,,,,,,,,,,,,,,,,,,,,,,,,,,,,,,,,,,,,,,,,,1.0534,714.244653599977,None,space,1,714.244653599977,None,0.6152204000391066,P043,fencog,1,Pre,2022_May_12_1116,N-Back (New Version 2021),2021.1.4,120.03375346901586,
,,,,Conditions/Version_1/threeback(2)_v1.xlsx,New rule: Press 'space' when you see 3-back (i.e. the same letter as the one that appeared 3 letters ago.),a,None,,,,,,,,,0,6,6,6,0,7,7,7,,,,,,,,,,,,,,,,,,,,,,,,,,,,,,,,,,,,,,,,,,,,,,,,,,,,,,,,,,,,,,,,,,,,,1.3944,717.6493418000173,None,None,1,717.6493418000173,None,,P043,fencog,1,Pre,2022_May_12_1116,N-Back (New Version 2021),2021.1.4,120.03375346901586,
,,,,Conditions/Version_1/threeback(2)_v1.xlsx,New rule: Press 'space' when you see 3-back (i.e. the same letter as the one that appeared 3 letters ago.),U,space,,,,,,,,,0,6,6,6,0,8,8,8,,,,,,,,,,,,,,,,,,,,,,,,,,,,,,,,,,,,,,,,,,,,,,,,,,,,,,,,,,,,,,,,,,,,,1.4254,721.0745988999843,None,space,1,721.0745988999843,None,0.4412392000085674,P043,fencog,1,Pre,2022_May_12_1116,N-Back (New Version 2021),2021.1.4,120.03375346901586,
,,,,Conditions/Version_1/threeback(2)_v1.xlsx,New rule: Press 'space' when you see 3-back (i.e. the same letter as the one that appeared 3 letters ago.),q,None,,,,,,,,,0,6,6,6,0,9,9,9,,,,,,,,,,,,,,,,,,,,,,,,,,,,,,,,,,,,,,,,,,,,,,,,,,,,,,,,,,,,,,,,,,,,,1.3758,724.455618500011,None,None,1,724.455618500011,None,,P043,fencog,1,Pre,2022_May_12_1116,N-Back (New Version 2021),2021.1.4,120.03375346901586,
,,,,Conditions/Version_1/threeback(2)_v1.xlsx,New rule: Press 'space' when you see 3-back (i.e. the same letter as the one that appeared 3 letters ago.),,,,,,,,,,,0,6,6,6,,,,,,,,,,,,,,,,,,,,,,,,,,,,,,,,,,,,,,,,,,,,,,,,,,,,,,,,,,,,,,,,,,,,,,,,,,,,,,,,,P043,fencog,1,Pre,2022_May_12_1116,N-Back (New Version 2021),2021.1.4,120.03375346901586,
,,,,Conditions/Version_1/twoback(2)_v1.xlsx,New rule: Press 'space' when you see 2-back (i.e. the same letter as the one that appeared 2 letters ago.),q,None,,,,,,,,,0,7,7,7,0,0,0,0,,,,,,,,,,,,,,,,,,,,,,,,,,,,,,,,,,,,,,,,,,,,,,,,,,,,,,,,,,,726.493468599976,None,729.4811807000078,None,space,5.6667166000115685,729.4811807000078,None,726.493468599976,None,1.9338,737.1103613000014,None,None,1,737.1103613000014,None,,P043,fencog,1,Pre,2022_May_12_1116,N-Back (New Version 2021),2021.1.4,120.03375346901586,
,,,,Conditions/Version_1/twoback(2)_v1.xlsx,New rule: Press 'space' when you see 2-back (i.e. the same letter as the one that appeared 2 letters ago.),r,None,,,,,,,,,0,7,7,7,0,1,1,1,,,,,,,,,,,,,,,,,,,,,,,,,,,,,,,,,,,,,,,,,,,,,,,,,,,,,,,,,,,,,,,,,,,,,1.7478,740.8684042000095,None,None,1,740.8684042000095,None,,P043,fencog,1,Pre,2022_May_12_1116,N-Back (New Version 2021),2021.1.4,120.03375346901586,
,,,,Conditions/Version_1/twoback(2)_v1.xlsx,New rule: Press 'space' when you see 2-back (i.e. the same letter as the one that appeared 2 letters ago.),q,space,,,,,,,,,0,7,7,7,0,2,2,2,,,,,,,,,,,,,,,,,,,,,,,,,,,,,,,,,,,,,,,,,,,,,,,,,,,,,,,,,,,,,,,,,,,,,1.3696,744.2431628999766,None,space,1,744.2431628999766,None,0.45644239999819547,P043,fencog,1,Pre,2022_May_12_1116,N-Back (New Version 2021),2021.1.4,120.03375346901586,
,,,,Conditions/Version_1/twoback(2)_v1.xlsx,New rule: Press 'space' when you see 2-back (i.e. the same letter as the one that appeared 2 letters ago.),P,None,,,,,,,,,0,7,7,7,0,3,3,3,,,,,,,,,,,,,,,,,,,,,,,,,,,,,,,,,,,,,,,,,,,,,,,,,,,,,,,,,,,,,,,,,,,,,1.4874,747.7443680000142,None,None,1,747.7443680000142,None,,P043,fencog,1,Pre,2022_May_12_1116,N-Back (New Version 2021),2021.1.4,120.03375346901586,
,,,,Conditions/Version_1/twoback(2)_v1.xlsx,New rule: Press 'space' when you see 2-back (i.e. the same letter as the one that appeared 2 letters ago.),p,None,,,,,,,,,0,7,7,7,0,4,4,4,,,,,,,,,,,,,,,,,,,,,,,,,,,,,,,,,,,,,,,,,,,,,,,,,,,,,,,,,,,,,,,,,,,,,1.9214,751.6725582999643,None,None,1,751.6725582999643,None,,P043,fencog,1,Pre,2022_May_12_1116,N-Back (New Version 2021),2021.1.4,120.03375346901586,
,,,,Conditions/Version_1/twoback(2)_v1.xlsx,New rule: Press 'space' when you see 2-back (i.e. the same letter as the one that appeared 2 letters ago.),H,None,,,,,,,,,0,7,7,7,0,5,5,5,,,,,,,,,,,,,,,,,,,,,,,,,,,,,,,,,,,,,,,,,,,,,,,,,,,,,,,,,,,,,,,,,,,,,1.8904,755.5630448000156,None,None,1,755.5630448000156,None,,P043,fencog,1,Pre,2022_May_12_1116,N-Back (New Version 2021),2021.1.4,120.03375346901586,
,,,,Conditions/Version_1/twoback(2)_v1.xlsx,New rule: Press 'space' when you see 2-back (i.e. the same letter as the one that appeared 2 letters ago.),g,None,,,,,,,,,0,7,7,7,0,6,6,6,,,,,,,,,,,,,,,,,,,,,,,,,,,,,,,,,,,,,,,,,,,,,,,,,,,,,,,,,,,,,,,,,,,,,1.8656,759.4296618999797,None,None,1,759.4296618999797,None,,P043,fencog,1,Pre,2022_May_12_1116,N-Back (New Version 2021),2021.1.4,120.03375346901586,
,,,,Conditions/Version_1/twoback(2)_v1.xlsx,New rule: Press 'space' when you see 2-back (i.e. the same letter as the one that appeared 2 letters ago.),j,None,,,,,,,,,0,7,7,7,0,7,7,7,,,,,,,,,,,,,,,,,,,,,,,,,,,,,,,,,,,,,,,,,,,,,,,,,,,,,,,,,,,,,,,,,,,,,1.5246,762.9609197999816,None,None,1,762.9609197999816,None,,P043,fencog,1,Pre,2022_May_12_1116,N-Back (New Version 2021),2021.1.4,120.03375346901586,
,,,,Conditions/Version_1/twoback(2)_v1.xlsx,New rule: Press 'space' when you see 2-back (i.e. the same letter as the one that appeared 2 letters ago.),g,space,,,,,,,,,0,7,7,7,0,8,8,8,,,,,,,,,,,,,,,,,,,,,,,,,,,,,,,,,,,,,,,,,,,,,,,,,,,,,,,,,,,,,,,,,,,,,1.5618,766.5287290000124,None,space,1,766.5287290000124,None,0.3871600000420585,P043,fencog,1,Pre,2022_May_12_1116,N-Back (New Version 2021),2021.1.4,120.03375346901586,
,,,,Conditions/Version_1/twoback(2)_v1.xlsx,New rule: Press 'space' when you see 2-back (i.e. the same letter as the one that appeared 2 letters ago.),G,None,,,,,,,,,0,7,7,7,0,9,9,9,,,,,,,,,,,,,,,,,,,,,,,,,,,,,,,,,,,,,,,,,,,,,,,,,,,,,,,,,,,,,,,,,,,,,1.2952,769.8338321999763,None,None,1,769.8338321999763,None,,P043,fencog,1,Pre,2022_May_12_1116,N-Back (New Version 2021),2021.1.4,120.03375346901586,
,,,,Conditions/Version_1/twoback(2)_v1.xlsx,New rule: Press 'space' when you see 2-back (i.e. the same letter as the one that appeared 2 letters ago.),,,,,,,,,,,0,7,7,7,,,,,,,,,,,,,,,,,,,,,,,,,,,,,,,,,,,,,,,,,,,,,,,,,,,,,,,,,,,,,,,,,,,,,,,,,,,,,,,,,P043,fencog,1,Pre,2022_May_12_1116,N-Back (New Version 2021),2021.1.4,120.03375346901586,
,,,,Conditions/Version_1/threeback(3)_v1.xlsx,New rule: Press 'space' when you see 3-back (i.e. the same letter as the one that appeared 3 letters ago.),w,None,,,,,,,,,0,8,8,8,0,0,0,0,,,,,,,,,,,,,,,,,,,,,,,,,,,,,,,,,,,,,,,,,,,,,,,,,,,,,,,,,,,771.8576405000058,None,774.843614900019,None,space,3.2080689999856986,774.843614900019,None,771.8576405000058,None,1.1402,779.2382028999855,None,None,1,779.2382028999855,None,,P043,fencog,1,Pre,2022_May_12_1116,N-Back (New Version 2021),2021.1.4,120.03375346901586,
,,,,Conditions/Version_1/threeback(3)_v1.xlsx,New rule: Press 'space' when you see 3-back (i.e. the same letter as the one that appeared 3 letters ago.),p,None,,,,,,,,,0,8,8,8,0,1,1,1,,,,,,,,,,,,,,,,,,,,,,,,,,,,,,,,,,,,,,,,,,,,,,,,,,,,,,,,,,,,,,,,,,,,,1.289,782.5311122999992,None,None,1,782.5311122999992,None,,P043,fencog,1,Pre,2022_May_12_1116,N-Back (New Version 2021),2021.1.4,120.03375346901586,
,,,,Conditions/Version_1/threeback(3)_v1.xlsx,New rule: Press 'space' when you see 3-back (i.e. the same letter as the one that appeared 3 letters ago.),P,None,,,,,,,,,0,8,8,8,0,2,2,2,,,,,,,,,,,,,,,,,,,,,,,,,,,,,,,,,,,,,,,,,,,,,,,,,,,,,,,,,,,,,,,,,,,,,1.7788,786.3226226000115,None,None,1,786.3226226000115,None,,P043,fencog,1,Pre,2022_May_12_1116,N-Back (New Version 2021),2021.1.4,120.03375346901586,
,,,,Conditions/Version_1/threeback(3)_v1.xlsx,New rule: Press 'space' when you see 3-back (i.e. the same letter as the one that appeared 3 letters ago.),i,None,,,,,,,,,0,8,8,8,0,3,3,3,,,,,,,,,,,,,,,,,,,,,,,,,,,,,,,,,,,,,,,,,,,,,,,,,,,,,,,,,,,,,,,,,,,,,1.4812,789.8116657999926,None,None,1,789.8116657999926,None,,P043,fencog,1,Pre,2022_May_12_1116,N-Back (New Version 2021),2021.1.4,120.03375346901586,
,,,,Conditions/Version_1/threeback(3)_v1.xlsx,New rule: Press 'space' when you see 3-back (i.e. the same letter as the one that appeared 3 letters ago.),f,None,,,,,,,,,0,8,8,8,0,4,4,4,,,,,,,,,,,,,,,,,,,,,,,,,,,,,,,,,,,,,,,,,,,,,,,,,,,,,,,,,,,,,,,,,,,,,1.7106,793.5267881000182,None,None,1,793.5267881000182,None,,P043,fencog,1,Pre,2022_May_12_1116,N-Back (New Version 2021),2021.1.4,120.03375346901586,
,,,,Conditions/Version_1/threeback(3)_v1.xlsx,New rule: Press 'space' when you see 3-back (i.e. the same letter as the one that appeared 3 letters ago.),o,None,,,,,,,,,0,8,8,8,0,5,5,5,,,,,,,,,,,,,,,,,,,,,,,,,,,,,,,,,,,,,,,,,,,,,,,,,,,,,,,,,,,,,,,,,,,,,1.3014,796.8340966000105,None,None,1,796.8340966000105,None,,P043,fencog,1,Pre,2022_May_12_1116,N-Back (New Version 2021),2021.1.4,120.03375346901586,
,,,,Conditions/Version_1/threeback(3)_v1.xlsx,New rule: Press 'space' when you see 3-back (i.e. the same letter as the one that appeared 3 letters ago.),w,None,,,,,,,,,0,8,8,8,0,6,6,6,,,,,,,,,,,,,,,,,,,,,,,,,,,,,,,,,,,,,,,,,,,,,,,,,,,,,,,,,,,,,,,,,,,,,1.3696,800.2166560000041,None,None,1,800.2166560000041,None,,P043,fencog,1,Pre,2022_May_12_1116,N-Back (New Version 2021),2021.1.4,120.03375346901586,
,,,,Conditions/Version_1/threeback(3)_v1.xlsx,New rule: Press 'space' when you see 3-back (i.e. the same letter as the one that appeared 3 letters ago.),F,space,,,,,,,,,0,8,8,8,0,7,7,7,,,,,,,,,,,,,,,,,,,,,,,,,,,,,,,,,,,,,,,,,,,,,,,,,,,,,,,,,,,,,,,,,,,,,1.9462,804.1660066000186,None,space,1,804.1660066000186,None,0.5258398000150919,P043,fencog,1,Pre,2022_May_12_1116,N-Back (New Version 2021),2021.1.4,120.03375346901586,
,,,,Conditions/Version_1/threeback(3)_v1.xlsx,New rule: Press 'space' when you see 3-back (i.e. the same letter as the one that appeared 3 letters ago.),p,None,,,,,,,,,0,8,8,8,0,8,8,8,,,,,,,,,,,,,,,,,,,,,,,,,,,,,,,,,,,,,,,,,,,,,,,,,,,,,,,,,,,,,,,,,,,,,1.3262,807.5065971000004,None,None,1,807.5065971000004,None,,P043,fencog,1,Pre,2022_May_12_1116,N-Back (New Version 2021),2021.1.4,120.03375346901586,
,,,,Conditions/Version_1/threeback(3)_v1.xlsx,New rule: Press 'space' when you see 3-back (i.e. the same letter as the one that appeared 3 letters ago.),W,space,,,,,,,,,0,8,8,8,0,9,9,9,,,,,,,,,,,,,,,,,,,,,,,,,,,,,,,,,,,,,,,,,,,,,,,,,,,,,,,,,,,,,,,,,,,,,1.041,810.546839699964,None,space,1,810.546839699964,None,0.8248720999690704,P043,fencog,1,Pre,2022_May_12_1116,N-Back (New Version 2021),2021.1.4,120.03375346901586,
,,,,Conditions/Version_1/threeback(3)_v1.xlsx,New rule: Press 'space' when you see 3-back (i.e. the same letter as the one that appeared 3 letters ago.),,,,,,,,,,,0,8,8,8,,,,,,,,,,,,,,,,,,,,,,,,,,,,,,,,,,,,,,,,,,,,,,,,,,,,,,,,,,,,,,,,,,,,,,,,,,,,,,,,,P043,fencog,1,Pre,2022_May_12_1116,N-Back (New Version 2021),2021.1.4,120.03375346901586,
,,,,Conditions/Version_1/zeroback(3)_v1.xlsx,New rule: Press 'space' when you see the letter 'x' or 'X'.,X,space,,,,,,,,,0,9,9,9,0,0,0,0,,,,,,,,,,,,,,,,,,,,,,,,,,,,,,,,,,,,,,,,,,,,,,,,,,,,,,,,,,,812.5680124000064,None,815.5549726000172,None,space,0.7206450999947265,815.5549726000172,None,812.5680124000064,None,1.7664,818.0778990999679,None,space,1,818.0778990999679,None,0.5896261999732815,P043,fencog,1,Pre,2022_May_12_1116,N-Back (New Version 2021),2021.1.4,120.03375346901586,
,,,,Conditions/Version_1/zeroback(3)_v1.xlsx,New rule: Press 'space' when you see the letter 'x' or 'X'.,B,None,,,,,,,,,0,9,9,9,0,1,1,1,,,,,,,,,,,,,,,,,,,,,,,,,,,,,,,,,,,,,,,,,,,,,,,,,,,,,,,,,,,,,,,,,,,,,1.2952,821.3802272999892,None,None,1,821.3802272999892,None,,P043,fencog,1,Pre,2022_May_12_1116,N-Back (New Version 2021),2021.1.4,120.03375346901586,
,,,,Conditions/Version_1/zeroback(3)_v1.xlsx,New rule: Press 'space' when you see the letter 'x' or 'X'.,m,None,,,,,,,,,0,9,9,9,0,2,2,2,,,,,,,,,,,,,,,,,,,,,,,,,,,,,,,,,,,,,,,,,,,,,,,,,,,,,,,,,,,,,,,,,,,,,1.971,825.3593027999741,None,None,1,825.3593027999741,None,,P043,fencog,1,Pre,2022_May_12_1116,N-Back (New Version 2021),2021.1.4,120.03375346901586,
,,,,Conditions/Version_1/zeroback(3)_v1.xlsx,New rule: Press 'space' when you see the letter 'x' or 'X'.,m,None,,,,,,,,,0,9,9,9,0,3,3,3,,,,,,,,,,,,,,,,,,,,,,,,,,,,,,,,,,,,,,,,,,,,,,,,,,,,,,,,,,,,,,,,,,,,,1.8656,829.2248368000146,None,None,1,829.2248368000146,None,,P043,fencog,1,Pre,2022_May_12_1116,N-Back (New Version 2021),2021.1.4,120.03375346901586,
,,,,Conditions/Version_1/zeroback(3)_v1.xlsx,New rule: Press 'space' when you see the letter 'x' or 'X'.,o,None,,,,,,,,,0,9,9,9,0,4,4,4,,,,,,,,,,,,,,,,,,,,,,,,,,,,,,,,,,,,,,,,,,,,,,,,,,,,,,,,,,,,,,,,,,,,,1.8284,833.058664000011,None,None,1,833.058664000011,None,,P043,fencog,1,Pre,2022_May_12_1116,N-Back (New Version 2021),2021.1.4,120.03375346901586,
,,,,Conditions/Version_1/zeroback(3)_v1.xlsx,New rule: Press 'space' when you see the letter 'x' or 'X'.,p,None,,,,,,,,,0,9,9,9,0,5,5,5,,,,,,,,,,,,,,,,,,,,,,,,,,,,,,,,,,,,,,,,,,,,,,,,,,,,,,,,,,,,,,,,,,,,,1.878,836.9473159000045,None,None,1,836.9473159000045,None,,P043,fencog,1,Pre,2022_May_12_1116,N-Back (New Version 2021),2021.1.4,120.03375346901586,
,,,,Conditions/Version_1/zeroback(3)_v1.xlsx,New rule: Press 'space' when you see the letter 'x' or 'X'.,G,None,,,,,,,,,0,9,9,9,0,6,6,6,,,,,,,,,,,,,,,,,,,,,,,,,,,,,,,,,,,,,,,,,,,,,,,,,,,,,,,,,,,,,,,,,,,,,1.4874,840.4392708999803,None,None,1,840.4392708999803,None,,P043,fencog,1,Pre,2022_May_12_1116,N-Back (New Version 2021),2021.1.4,120.03375346901586,
,,,,Conditions/Version_1/zeroback(3)_v1.xlsx,New rule: Press 'space' when you see the letter 'x' or 'X'.,X,space,,,,,,,,,0,9,9,9,0,7,7,7,,,,,,,,,,,,,,,,,,,,,,,,,,,,,,,,,,,,,,,,,,,,,,,,,,,,,,,,,,,,,,,,,,,,,1.7974,844.2463705000118,None,space,1,844.2463705000118,None,0.517273599980399,P043,fencog,1,Pre,2022_May_12_1116,N-Back (New Version 2021),2021.1.4,120.03375346901586,
,,,,Conditions/Version_1/zeroback(3)_v1.xlsx,New rule: Press 'space' when you see the letter 'x' or 'X'.,p,None,,,,,,,,,0,9,9,9,0,8,8,8,,,,,,,,,,,,,,,,,,,,,,,,,,,,,,,,,,,,,,,,,,,,,,,,,,,,,,,,,,,,,,,,,,,,,1.0658,847.3207676999737,None,None,1,847.3207676999737,None,,P043,fencog,1,Pre,2022_May_12_1116,N-Back (New Version 2021),2021.1.4,120.03375346901586,
,,,,Conditions/Version_1/zeroback(3)_v1.xlsx,New rule: Press 'space' when you see the letter 'x' or 'X'.,x,space,,,,,,,,,0,9,9,9,0,9,9,9,,,,,,,,,,,,,,,,,,,,,,,,,,,,,,,,,,,,,,,,,,,,,,,,,,,,,,,,,,,,,,,,,,,,,1.9028,851.2347619999782,None,space,1,851.2347619999782,None,0.3608834000187926,P043,fencog,1,Pre,2022_May_12_1116,N-Back (New Version 2021),2021.1.4,120.03375346901586,
,,,,Conditions/Version_1/zeroback(3)_v1.xlsx,New rule: Press 'space' when you see the letter 'x' or 'X'.,,,,,,,,,,,0,9,9,9,,,,,,,,,,,,,,,,,,,,,,,,,,,,,,,,,,,,,,,,,,,,,,,,,,,,,,,,,,,,,,,,,,,,,,,,,,,,,,,,,P043,fencog,1,Pre,2022_May_12_1116,N-Back (New Version 2021),2021.1.4,120.03375346901586,
,,,,Conditions/Version_1/twoback(3)_v1.xlsx,New rule: Press 'space' when you see 2-back (i.e. the same letter as the one that appeared 2 letters ago.),e,None,,,,,,,,,0,10,10,10,0,0,0,0,,,,,,,,,,,,,,,,,,,,,,,,,,,,,,,,,,,,,,,,,,,,,,,,,,,,,,,,,,,853.2570870000054,None,856.2432923999731,None,space,1.5842459000414237,856.2432923999731,None,853.2570870000054,None,1.444,859.3086949000135,None,None,1,859.3086949000135,None,,P043,fencog,1,Pre,2022_May_12_1116,N-Back (New Version 2021),2021.1.4,120.03375346901586,
,,,,Conditions/Version_1/twoback(3)_v1.xlsx,New rule: Press 'space' when you see 2-back (i.e. the same letter as the one that appeared 2 letters ago.),o,None,,,,,,,,,0,10,10,10,0,1,1,1,,,,,,,,,,,,,,,,,,,,,,,,,,,,,,,,,,,,,,,,,,,,,,,,,,,,,,,,,,,,,,,,,,,,,1.8098,863.1361642999691,None,None,1,863.1361642999691,None,,P043,fencog,1,Pre,2022_May_12_1116,N-Back (New Version 2021),2021.1.4,120.03375346901586,
,,,,Conditions/Version_1/twoback(3)_v1.xlsx,New rule: Press 'space' when you see 2-back (i.e. the same letter as the one that appeared 2 letters ago.),P,None,,,,,,,,,0,10,10,10,0,2,2,2,,,,,,,,,,,,,,,,,,,,,,,,,,,,,,,,,,,,,,,,,,,,,,,,,,,,,,,,,,,,,,,,,,,,,1.3076,866.4494290999719,None,None,1,866.4494290999719,None,,P043,fencog,1,Pre,2022_May_12_1116,N-Back (New Version 2021),2021.1.4,120.03375346901586,
,,,,Conditions/Version_1/twoback(3)_v1.xlsx,New rule: Press 'space' when you see 2-back (i.e. the same letter as the one that appeared 2 letters ago.),z,None,,,,,,,,,0,10,10,10,0,3,3,3,,,,,,,,,,,,,,,,,,,,,,,,,,,,,,,,,,,,,,,,,,,,,,,,,,,,,,,,,,,,,,,,,,,,,1.3448,869.806761600019,None,None,1,869.806761600019,None,,P043,fencog,1,Pre,2022_May_12_1116,N-Back (New Version 2021),2021.1.4,120.03375346901586,
,,,,Conditions/Version_1/twoback(3)_v1.xlsx,New rule: Press 'space' when you see 2-back (i.e. the same letter as the one that appeared 2 letters ago.),X,None,,,,,,,,,0,10,10,10,0,4,4,4,,,,,,,,,,,,,,,,,,,,,,,,,,,,,,,,,,,,,,,,,,,,,,,,,,,,,,,,,,,,,,,,,,,,,1.2766,873.0967727999669,None,None,1,873.0967727999669,None,,P043,fencog,1,Pre,2022_May_12_1116,N-Back (New Version 2021),2021.1.4,120.03375346901586,
,,,,Conditions/Version_1/twoback(3)_v1.xlsx,New rule: Press 'space' when you see 2-back (i.e. the same letter as the one that appeared 2 letters ago.),z,space,,,,,,,,,0,10,10,10,0,5,5,5,,,,,,,,,,,,,,,,,,,,,,,,,,,,,,,,,,,,,,,,,,,,,,,,,,,,,,,,,,,,,,,,,,,,,1.7416,876.8438644999987,None,space,1,876.8438644999987,None,0.4078600999782793,P043,fencog,1,Pre,2022_May_12_1116,N-Back (New Version 2021),2021.1.4,120.03375346901586,
,,,,Conditions/Version_1/twoback(3)_v1.xlsx,New rule: Press 'space' when you see 2-back (i.e. the same letter as the one that appeared 2 letters ago.),x,space,,,,,,,,,0,10,10,10,0,6,6,6,,,,,,,,,,,,,,,,,,,,,,,,,,,,,,,,,,,,,,,,,,,,,,,,,,,,,,,,,,,,,,,,,,,,,1.6548,880.5094477999955,None,space,1,880.5094477999955,None,0.5023587999748997,P043,fencog,1,Pre,2022_May_12_1116,N-Back (New Version 2021),2021.1.4,120.03375346901586,
,,,,Conditions/Version_1/twoback(3)_v1.xlsx,New rule: Press 'space' when you see 2-back (i.e. the same letter as the one that appeared 2 letters ago.),c,None,,,,,,,,,0,10,10,10,0,7,7,7,,,,,,,,,,,,,,,,,,,,,,,,,,,,,,,,,,,,,,,,,,,,,,,,,,,,,,,,,,,,,,,,,,,,,1.3944,883.9086105999886,None,None,1,883.9086105999886,None,,P043,fencog,1,Pre,2022_May_12_1116,N-Back (New Version 2021),2021.1.4,120.03375346901586,
,,,,Conditions/Version_1/twoback(3)_v1.xlsx,New rule: Press 'space' when you see 2-back (i.e. the same letter as the one that appeared 2 letters ago.),i,None,,,,,,,,,0,10,10,10,0,8,8,8,,,,,,,,,,,,,,,,,,,,,,,,,,,,,,,,,,,,,,,,,,,,,,,,,,,,,,,,,,,,,,,,,,,,,1.4812,887.3907859000028,None,None,1,887.3907859000028,None,,P043,fencog,1,Pre,2022_May_12_1116,N-Back (New Version 2021),2021.1.4,120.03375346901586,
,,,,Conditions/Version_1/twoback(3)_v1.xlsx,New rule: Press 'space' when you see 2-back (i.e. the same letter as the one that appeared 2 letters ago.),C,space,,,,,,,,,0,10,10,10,0,9,9,9,,,,,,,,,,,,,,,,,,,,,,,,,,,,,,,,,,,,,,,,,,,,,,,,,,,,,,,,,,,,,,,,,,,,,1.1154,890.5092497000005,None,space,1,890.5092497000005,None,0.5504623000160791,P043,fencog,1,Pre,2022_May_12_1116,N-Back (New Version 2021),2021.1.4,120.03375346901586,
,,,,Conditions/Version_1/twoback(3)_v1.xlsx,New rule: Press 'space' when you see 2-back (i.e. the same letter as the one that appeared 2 letters ago.),,,,,,,,,,,0,10,10,10,,,,,,,,,,,,,,,,,,,,,,,,,,,,,,,,,,,,,,,,,,,,,,,,,,,,,,,,,,,,,,,,,,,,,,,,,,,,,,,,,P043,fencog,1,Pre,2022_May_12_1116,N-Back (New Version 2021),2021.1.4,120.03375346901586,
,,,,Conditions/Version_1/oneback(3)_v1.xlsx,New rule: Press 'space' when you see 1-back (i.e. the same letter as the one that appeared 1 letter ago.),o,None,,,,,,,,,0,11,11,11,0,0,0,0,,,,,,,,,,,,,,,,,,,,,,,,,,,,,,,,,,,,,,,,,,,,,,,,,,,,,,,,,,,892.5359640999814,None,895.5238131000078,None,space,0.33595219999551773,895.5238131000078,None,892.5359640999814,None,1.9338,897.8293864000007,None,None,1,897.8293864000007,None,,P043,fencog,1,Pre,2022_May_12_1116,N-Back (New Version 2021),2021.1.4,120.03375346901586,
,,,,Conditions/Version_1/oneback(3)_v1.xlsx,New rule: Press 'space' when you see 1-back (i.e. the same letter as the one that appeared 1 letter ago.),O,space,,,,,,,,,0,11,11,11,0,1,1,1,,,,,,,,,,,,,,,,,,,,,,,,,,,,,,,,,,,,,,,,,,,,,,,,,,,,,,,,,,,,,,,,,,,,,1.8284,901.6629406000138,None,space,1,901.6629406000138,None,0.5564882999751717,P043,fencog,1,Pre,2022_May_12_1116,N-Back (New Version 2021),2021.1.4,120.03375346901586,
,,,,Conditions/Version_1/oneback(3)_v1.xlsx,New rule: Press 'space' when you see 1-back (i.e. the same letter as the one that appeared 1 letter ago.),h,None,,,,,,,,,0,11,11,11,0,2,2,2,,,,,,,,,,,,,,,,,,,,,,,,,,,,,,,,,,,,,,,,,,,,,,,,,,,,,,,,,,,,,,,,,,,,,1.1526,904.8273472000146,None,None,1,904.8273472000146,None,,P043,fencog,1,Pre,2022_May_12_1116,N-Back (New Version 2021),2021.1.4,120.03375346901586,
,,,,Conditions/Version_1/oneback(3)_v1.xlsx,New rule: Press 'space' when you see 1-back (i.e. the same letter as the one that appeared 1 letter ago.),g,None,,,,,,,,,0,11,11,11,0,3,3,3,,,,,,,,,,,,,,,,,,,,,,,,,,,,,,,,,,,,,,,,,,,,,,,,,,,,,,,,,,,,,,,,,,,,,1.847,908.6761685999809,None,None,1,908.6761685999809,None,,P043,fencog,1,Pre,2022_May_12_1116,N-Back (New Version 2021),2021.1.4,120.03375346901586,
,,,,Conditions/Version_1/oneback(3)_v1.xlsx,New rule: Press 'space' when you see 1-back (i.e. the same letter as the one that appeared 1 letter ago.),n,None,,,,,,,,,0,11,11,11,0,4,4,4,,,,,,,,,,,,,,,,,,,,,,,,,,,,,,,,,,,,,,,,,,,,,,,,,,,,,,,,,,,,,,,,,,,,,1.3262,912.0091425999999,None,None,1,912.0091425999999,None,,P043,fencog,1,Pre,2022_May_12_1116,N-Back (New Version 2021),2021.1.4,120.03375346901586,
,,,,Conditions/Version_1/oneback(3)_v1.xlsx,New rule: Press 'space' when you see 1-back (i.e. the same letter as the one that appeared 1 letter ago.),z,None,,,,,,,,,0,11,11,11,0,5,5,5,,,,,,,,,,,,,,,,,,,,,,,,,,,,,,,,,,,,,,,,,,,,,,,,,,,,,,,,,,,,,,,,,,,,,1.2022,915.2159223000053,None,None,1,915.2159223000053,None,,P043,fencog,1,Pre,2022_May_12_1116,N-Back (New Version 2021),2021.1.4,120.03375346901586,
,,,,Conditions/Version_1/oneback(3)_v1.xlsx,New rule: Press 'space' when you see 1-back (i.e. the same letter as the one that appeared 1 letter ago.),X,None,,,,,,,,,0,11,11,11,0,6,6,6,,,,,,,,,,,,,,,,,,,,,,,,,,,,,,,,,,,,,,,,,,,,,,,,,,,,,,,,,,,,,,,,,,,,,1.4068,918.6241321999696,None,None,1,918.6241321999696,None,,P043,fencog,1,Pre,2022_May_12_1116,N-Back (New Version 2021),2021.1.4,120.03375346901586,
,,,,Conditions/Version_1/oneback(3)_v1.xlsx,New rule: Press 'space' when you see 1-back (i.e. the same letter as the one that appeared 1 letter ago.),r,None,,,,,,,,,0,11,11,11,0,7,7,7,,,,,,,,,,,,,,,,,,,,,,,,,,,,,,,,,,,,,,,,,,,,,,,,,,,,,,,,,,,,,,,,,,,,,1.258,921.8910376999993,None,None,1,921.8910376999993,None,,P043,fencog,1,Pre,2022_May_12_1116,N-Back (New Version 2021),2021.1.4,120.03375346901586,
,,,,Conditions/Version_1/oneback(3)_v1.xlsx,New rule: Press 'space' when you see 1-back (i.e. the same letter as the one that appeared 1 letter ago.),r,space,,,,,,,,,0,11,11,11,0,8,8,8,,,,,,,,,,,,,,,,,,,,,,,,,,,,,,,,,,,,,,,,,,,,,,,,,,,,,,,,,,,,,,,,,,,,,1.1588,925.0563837999944,None,space,1,925.0563837999944,None,0.6271653000148945,P043,fencog,1,Pre,2022_May_12_1116,N-Back (New Version 2021),2021.1.4,120.03375346901586,
,,,,Conditions/Version_1/oneback(3)_v1.xlsx,New rule: Press 'space' when you see 1-back (i.e. the same letter as the one that appeared 1 letter ago.),P,None,,,,,,,,,0,11,11,11,0,9,9,9,,,,,,,,,,,,,,,,,,,,,,,,,,,,,,,,,,,,,,,,,,,,,,,,,,,,,,,,,,,,,,,,,,,,,1.7354,928.8058004999766,None,None,1,928.8058004999766,None,,P043,fencog,1,Pre,2022_May_12_1116,N-Back (New Version 2021),2021.1.4,120.03375346901586,
,,,,Conditions/Version_1/oneback(3)_v1.xlsx,New rule: Press 'space' when you see 1-back (i.e. the same letter as the one that appeared 1 letter ago.),,,,,,,,,,,0,11,11,11,,,,,,,,,,,,,,,,,,,,,,,,,,,,,,,,,,,,,,,,,,,,,,,,,,,,,,,,,,,,,,,,,,,,,,,,,,,,,,,,,P043,fencog,1,Pre,2022_May_12_1116,N-Back (New Version 2021),2021.1.4,120.03375346901586,
,,,,Conditions/Version_1/twoback(4)_v1.xlsx,New rule: Press 'space' when you see 2-back (i.e. the same letter as the one that appeared 2 letters ago.),r,None,,,,,,,,,0,12,12,12,0,0,0,0,,,,,,,,,,,,,,,,,,,,,,,,,,,,,,,,,,,,,,,,,,,,,,,,,,,,,,,,,,,930.8408826999948,None,933.8212275999831,None,space,1.3104419999872334,933.8212275999831,None,930.8408826999948,None,1.7912,937.0004639999825,None,None,1,937.0004639999825,None,,P043,fencog,1,Pre,2022_May_12_1116,N-Back (New Version 2021),2021.1.4,120.03375346901586,
,,,,Conditions/Version_1/twoback(4)_v1.xlsx,New rule: Press 'space' when you see 2-back (i.e. the same letter as the one that appeared 2 letters ago.),T,None,,,,,,,,,0,12,12,12,0,1,1,1,,,,,,,,,,,,,,,,,,,,,,,,,,,,,,,,,,,,,,,,,,,,,,,,,,,,,,,,,,,,,,,,,,,,,1.2084,940.2173686000169,None,None,1,940.2173686000169,None,,P043,fencog,1,Pre,2022_May_12_1116,N-Back (New Version 2021),2021.1.4,120.03375346901586,
,,,,Conditions/Version_1/twoback(4)_v1.xlsx,New rule: Press 'space' when you see 2-back (i.e. the same letter as the one that appeared 2 letters ago.),o,None,,,,,,,,,0,12,12,12,0,2,2,2,,,,,,,,,,,,,,,,,,,,,,,,,,,,,,,,,,,,,,,,,,,,,,,,,,,,,,,,,,,,,,,,,,,,,1.3758,943.6004873999627,None,None,1,943.6004873999627,None,,P043,fencog,1,Pre,2022_May_12_1116,N-Back (New Version 2021),2021.1.4,120.03375346901586,
,,,,Conditions/Version_1/twoback(4)_v1.xlsx,New rule: Press 'space' when you see 2-back (i.e. the same letter as the one that appeared 2 letters ago.),p,None,,,,,,,,,0,12,12,12,0,3,3,3,,,,,,,,,,,,,,,,,,,,,,,,,,,,,,,,,,,,,,,,,,,,,,,,,,,,,,,,,,,,,,,,,,,,,1.8098,947.4241690000053,None,None,1,947.4241690000053,None,,P043,fencog,1,Pre,2022_May_12_1116,N-Back (New Version 2021),2021.1.4,120.03375346901586,
,,,,Conditions/Version_1/twoback(4)_v1.xlsx,New rule: Press 'space' when you see 2-back (i.e. the same letter as the one that appeared 2 letters ago.),p,None,,,,,,,,,0,12,12,12,0,4,4,4,,,,,,,,,,,,,,,,,,,,,,,,,,,,,,,,,,,,,,,,,,,,,,,,,,,,,,,,,,,,,,,,,,,,,1.0224,950.4554895000183,None,None,1,950.4554895000183,None,,P043,fencog,1,Pre,2022_May_12_1116,N-Back (New Version 2021),2021.1.4,120.03375346901586,
,,,,Conditions/Version_1/twoback(4)_v1.xlsx,New rule: Press 'space' when you see 2-back (i.e. the same letter as the one that appeared 2 letters ago.),y,None,,,,,,,,,0,12,12,12,0,5,5,5,,,,,,,,,,,,,,,,,,,,,,,,,,,,,,,,,,,,,,,,,,,,,,,,,,,,,,,,,,,,,,,,,,,,,1.4254,953.8818235999788,None,None,1,953.8818235999788,None,,P043,fencog,1,Pre,2022_May_12_1116,N-Back (New Version 2021),2021.1.4,120.03375346901586,
,,,,Conditions/Version_1/twoback(4)_v1.xlsx,New rule: Press 'space' when you see 2-back (i.e. the same letter as the one that appeared 2 letters ago.),P,space,,,,,,,,,0,12,12,12,0,6,6,6,,,,,,,,,,,,,,,,,,,,,,,,,,,,,,,,,,,,,,,,,,,,,,,,,,,,,,,,,,,,,,,,,,,,,1.8036,957.6970205999678,None,space,1,957.6970205999678,None,0.4586373000056483,P043,fencog,1,Pre,2022_May_12_1116,N-Back (New Version 2021),2021.1.4,120.03375346901586,
,,,,Conditions/Version_1/twoback(4)_v1.xlsx,New rule: Press 'space' when you see 2-back (i.e. the same letter as the one that appeared 2 letters ago.),y,None,,,,,,,,,0,12,12,12,0,7,7,7,,,,,,,,,,,,,,,,,,,,,,,,,,,,,,,,,,,,,,,,,,,,,,,,,,,,,,,,,,,,,,,,,,,,,1.7044,961.4113358000177,None,space,0,961.4113358000177,None,0.4081155000021681,P043,fencog,1,Pre,2022_May_12_1116,N-Back (New Version 2021),2021.1.4,120.03375346901586,
,,,,Conditions/Version_1/twoback(4)_v1.xlsx,New rule: Press 'space' when you see 2-back (i.e. the same letter as the one that appeared 2 letters ago.),y,space,,,,,,,,,0,12,12,12,0,8,8,8,,,,,,,,,,,,,,,,,,,,,,,,,,,,,,,,,,,,,,,,,,,,,,,,,,,,,,,,,,,,,,,,,,,,,1.2952,964.7182200999814,None,None,0,964.7182200999814,None,,P043,fencog,1,Pre,2022_May_12_1116,N-Back (New Version 2021),2021.1.4,120.03375346901586,
,,,,Conditions/Version_1/twoback(4)_v1.xlsx,New rule: Press 'space' when you see 2-back (i.e. the same letter as the one that appeared 2 letters ago.),,,,,,,,,,,0,12,12,12,,,,,,,,,,,,,,,,,,,,,,,,,,,,,,,,,,,,,,,,,,,,,,,,,,,,,,,,,,,,,,,,,,,,,,,,,,,,,,,,,P043,fencog,1,Pre,2022_May_12_1116,N-Back (New Version 2021),2021.1.4,120.03375346901586,
,,,,Conditions/Version_1/zeroback(4)_v1.xlsx,New rule: Press 'space' when you see the letter 'x' or 'X'.,o,None,,,,,,,,,0,13,13,13,0,0,0,0,,,,,,,,,,,,,,,,,,,,,,,,,,,,,,,,,,,,,,,,,,,,,,,,,,,,,,,,,,,966.7421404999914,None,969.7268849000102,None,space,0.8365685000317171,969.7268849000102,None,966.7421404999914,None,1.5618,972.1656814999878,None,None,1,972.1656814999878,None,,P043,fencog,1,Pre,2022_May_12_1116,N-Back (New Version 2021),2021.1.4,120.03375346901586,
,,,,Conditions/Version_1/zeroback(4)_v1.xlsx,New rule: Press 'space' when you see the letter 'x' or 'X'.,X,space,,,,,,,,,0,13,13,13,0,1,1,1,,,,,,,,,,,,,,,,,,,,,,,,,,,,,,,,,,,,,,,,,,,,,,,,,,,,,,,,,,,,,,,,,,,,,1.4378,975.6063787000021,None,space,1,975.6063787000021,None,0.6130761000094935,P043,fencog,1,Pre,2022_May_12_1116,N-Back (New Version 2021),2021.1.4,120.03375346901586,
,,,,Conditions/Version_1/zeroback(4)_v1.xlsx,New rule: Press 'space' when you see the letter 'x' or 'X'.,p,None,,,,,,,,,0,13,13,13,0,2,2,2,,,,,,,,,,,,,,,,,,,,,,,,,,,,,,,,,,,,,,,,,,,,,,,,,,,,,,,,,,,,,,,,,,,,,1.258,978.8690380000044,None,None,1,978.8690380000044,None,,P043,fencog,1,Pre,2022_May_12_1116,N-Back (New Version 2021),2021.1.4,120.03375346901586,
,,,,Conditions/Version_1/zeroback(4)_v1.xlsx,New rule: Press 'space' when you see the letter 'x' or 'X'.,m,None,,,,,,,,,0,13,13,13,0,3,3,3,,,,,,,,,,,,,,,,,,,,,,,,,,,,,,,,,,,,,,,,,,,,,,,,,,,,,,,,,,,,,,,,,,,,,1.8222,982.6992748000193,None,None,1,982.6992748000193,None,,P043,fencog,1,Pre,2022_May_12_1116,N-Back (New Version 2021),2021.1.4,120.03375346901586,
,,,,Conditions/Version_1/zeroback(4)_v1.xlsx,New rule: Press 'space' when you see the letter 'x' or 'X'.,n,None,,,,,,,,,0,13,13,13,0,4,4,4,,,,,,,,,,,,,,,,,,,,,,,,,,,,,,,,,,,,,,,,,,,,,,,,,,,,,,,,,,,,,,,,,,,,,1.5556,986.2616583000054,None,None,1,986.2616583000054,None,,P043,fencog,1,Pre,2022_May_12_1116,N-Back (New Version 2021),2021.1.4,120.03375346901586,
,,,,Conditions/Version_1/zeroback(4)_v1.xlsx,New rule: Press 'space' when you see the letter 'x' or 'X'.,m,None,,,,,,,,,0,13,13,13,0,5,5,5,,,,,,,,,,,,,,,,,,,,,,,,,,,,,,,,,,,,,,,,,,,,,,,,,,,,,,,,,,,,,,,,,,,,,1.2828,989.55229219998,None,None,1,989.55229219998,None,,P043,fencog,1,Pre,2022_May_12_1116,N-Back (New Version 2021),2021.1.4,120.03375346901586,
,,,,Conditions/Version_1/zeroback(4)_v1.xlsx,New rule: Press 'space' when you see the letter 'x' or 'X'.,C,None,,,,,,,,,0,13,13,13,0,6,6,6,,,,,,,,,,,,,,,,,,,,,,,,,,,,,,,,,,,,,,,,,,,,,,,,,,,,,,,,,,,,,,,,,,,,,1.7788,993.334313099971,None,None,1,993.334313099971,None,,P043,fencog,1,Pre,2022_May_12_1116,N-Back (New Version 2021),2021.1.4,120.03375346901586,
,,,,Conditions/Version_1/zeroback(4)_v1.xlsx,New rule: Press 'space' when you see the letter 'x' or 'X'.,m,None,,,,,,,,,0,13,13,13,0,7,7,7,,,,,,,,,,,,,,,,,,,,,,,,,,,,,,,,,,,,,,,,,,,,,,,,,,,,,,,,,,,,,,,,,,,,,1.4068,996.7430918000173,None,None,1,996.7430918000173,None,,P043,fencog,1,Pre,2022_May_12_1116,N-Back (New Version 2021),2021.1.4,120.03375346901586,
,,,,Conditions/Version_1/zeroback(4)_v1.xlsx,New rule: Press 'space' when you see the letter 'x' or 'X'.,p,None,,,,,,,,,0,13,13,13,0,8,8,8,,,,,,,,,,,,,,,,,,,,,,,,,,,,,,,,,,,,,,,,,,,,,,,,,,,,,,,,,,,,,,,,,,,,,1.4688,1000.2239284999669,None,None,1,1000.2239284999669,None,,P043,fencog,1,Pre,2022_May_12_1116,N-Back (New Version 2021),2021.1.4,120.03375346901586,
,,,,Conditions/Version_1/zeroback(4)_v1.xlsx,New rule: Press 'space' when you see the letter 'x' or 'X'.,X,space,,,,,,,,,0,13,13,13,0,9,9,9,,,,,,,,,,,,,,,,,,,,,,,,,,,,,,,,,,,,,,,,,,,,,,,,,,,,,,,,,,,,,,,,,,,,,1.6858,1003.9147376000183,None,space,1,1003.9147376000183,None,0.3769554999889806,P043,fencog,1,Pre,2022_May_12_1116,N-Back (New Version 2021),2021.1.4,120.03375346901586,
,,,,Conditions/Version_1/zeroback(4)_v1.xlsx,New rule: Press 'space' when you see the letter 'x' or 'X'.,,,,,,,,,,,0,13,13,13,,,,,,,,,,,,,,,,,,,,,,,,,,,,,,,,,,,,,,,,,,,,,,,,,,,,,,,,,,,,,,,,,,,,,,,,,,,,,,,,,P043,fencog,1,Pre,2022_May_12_1116,N-Back (New Version 2021),2021.1.4,120.03375346901586,
,,,,Conditions/Version_1/oneback(4)_v1.xlsx,New rule: Press 'space' when you see 1-back (i.e. the same letter as the one that appeared 1 letter ago.),w,None,,,,,,,,,0,14,14,14,0,0,0,0,,,,,,,,,,,,,,,,,,,,,,,,,,,,,,,,,,,,,,,,,,,,,,,,,,,,,,,,,,,1005.9330938999774,None,1008.9236000999808,None,space,0.8159342000144534,1008.9236000999808,None,1005.9330938999774,None,1.9648,1011.7373775999877,None,None,1,1011.7373775999877,None,,P043,fencog,1,Pre,2022_May_12_1116,N-Back (New Version 2021),2021.1.4,120.03375346901586,
,,,,Conditions/Version_1/oneback(4)_v1.xlsx,New rule: Press 'space' when you see 1-back (i.e. the same letter as the one that appeared 1 letter ago.),q,None,,,,,,,,,0,14,14,14,0,1,1,1,,,,,,,,,,,,,,,,,,,,,,,,,,,,,,,,,,,,,,,,,,,,,,,,,,,,,,,,,,,,,,,,,,,,,1.8408,1015.5781104000052,None,None,1,1015.5781104000052,None,,P043,fencog,1,Pre,2022_May_12_1116,N-Back (New Version 2021),2021.1.4,120.03375346901586,
,,,,Conditions/Version_1/oneback(4)_v1.xlsx,New rule: Press 'space' when you see 1-back (i.e. the same letter as the one that appeared 1 letter ago.),i,None,,,,,,,,,0,14,14,14,0,2,2,2,,,,,,,,,,,,,,,,,,,,,,,,,,,,,,,,,,,,,,,,,,,,,,,,,,,,,,,,,,,,,,,,,,,,,1.6176,1019.2019266000134,None,None,1,1019.2019266000134,None,,P043,fencog,1,Pre,2022_May_12_1116,N-Back (New Version 2021),2021.1.4,120.03375346901586,
,,,,Conditions/Version_1/oneback(4)_v1.xlsx,New rule: Press 'space' when you see 1-back (i.e. the same letter as the one that appeared 1 letter ago.),t,None,,,,,,,,,0,14,14,14,0,3,3,3,,,,,,,,,,,,,,,,,,,,,,,,,,,,,,,,,,,,,,,,,,,,,,,,,,,,,,,,,,,,,,,,,,,,,1.6548,1022.8603871999658,None,None,1,1022.8603871999658,None,,P043,fencog,1,Pre,2022_May_12_1116,N-Back (New Version 2021),2021.1.4,120.03375346901586,
,,,,Conditions/Version_1/oneback(4)_v1.xlsx,New rule: Press 'space' when you see 1-back (i.e. the same letter as the one that appeared 1 letter ago.),v,None,,,,,,,,,0,14,14,14,0,4,4,4,,,,,,,,,,,,,,,,,,,,,,,,,,,,,,,,,,,,,,,,,,,,,,,,,,,,,,,,,,,,,,,,,,,,,1.692,1026.5599055999774,None,None,1,1026.5599055999774,None,,P043,fencog,1,Pre,2022_May_12_1116,N-Back (New Version 2021),2021.1.4,120.03375346901586,
,,,,Conditions/Version_1/oneback(4)_v1.xlsx,New rule: Press 'space' when you see 1-back (i.e. the same letter as the one that appeared 1 letter ago.),V,space,,,,,,,,,0,14,14,14,0,5,5,5,,,,,,,,,,,,,,,,,,,,,,,,,,,,,,,,,,,,,,,,,,,,,,,,,,,,,,,,,,,,,,,,,,,,,1.4068,1029.9752374999807,None,space,1,1029.9752374999807,None,0.42038680001860484,P043,fencog,1,Pre,2022_May_12_1116,N-Back (New Version 2021),2021.1.4,120.03375346901586,
,,,,Conditions/Version_1/oneback(4)_v1.xlsx,New rule: Press 'space' when you see 1-back (i.e. the same letter as the one that appeared 1 letter ago.),v,space,,,,,,,,,0,14,14,14,0,6,6,6,,,,,,,,,,,,,,,,,,,,,,,,,,,,,,,,,,,,,,,,,,,,,,,,,,,,,,,,,,,,,,,,,,,,,1.289,1033.274628299987,None,space,1,1033.274628299987,None,0.7692433000192977,P043,fencog,1,Pre,2022_May_12_1116,N-Back (New Version 2021),2021.1.4,120.03375346901586,
,,,,Conditions/Version_1/oneback(4)_v1.xlsx,New rule: Press 'space' when you see 1-back (i.e. the same letter as the one that appeared 1 letter ago.),p,None,,,,,,,,,0,14,14,14,0,7,7,7,,,,,,,,,,,,,,,,,,,,,,,,,,,,,,,,,,,,,,,,,,,,,,,,,,,,,,,,,,,,,,,,,,,,,1.7726,1037.0548069999786,None,None,1,1037.0548069999786,None,,P043,fencog,1,Pre,2022_May_12_1116,N-Back (New Version 2021),2021.1.4,120.03375346901586,
,,,,Conditions/Version_1/oneback(4)_v1.xlsx,New rule: Press 'space' when you see 1-back (i.e. the same letter as the one that appeared 1 letter ago.),w,None,,,,,,,,,0,14,14,14,0,8,8,8,,,,,,,,,,,,,,,,,,,,,,,,,,,,,,,,,,,,,,,,,,,,,,,,,,,,,,,,,,,,,,,,,,,,,1.1154,1040.1790091000148,None,None,1,1040.1790091000148,None,,P043,fencog,1,Pre,2022_May_12_1116,N-Back (New Version 2021),2021.1.4,120.03375346901586,
,,,,Conditions/Version_1/oneback(4)_v1.xlsx,New rule: Press 'space' when you see 1-back (i.e. the same letter as the one that appeared 1 letter ago.),W,space,,,,,,,,,0,14,14,14,0,9,9,9,,,,,,,,,,,,,,,,,,,,,,,,,,,,,,,,,,,,,,,,,,,,,,,,,,,,,,,,,,,,,,,,,,,,,1.568,1043.7533570000087,None,space,1,1043.7533570000087,None,0.42605559999356046,P043,fencog,1,Pre,2022_May_12_1116,N-Back (New Version 2021),2021.1.4,120.03375346901586,
,,,,Conditions/Version_1/oneback(4)_v1.xlsx,New rule: Press 'space' when you see 1-back (i.e. the same letter as the one that appeared 1 letter ago.),,,,,,,,,,,0,14,14,14,,,,,,,,,,,,,,,,,,,,,,,,,,,,,,,,,,,,,,,,,,,,,,,,,,,,,,,,,,,,,,,,,,,,,,,,,,,,,,,,,P043,fencog,1,Pre,2022_May_12_1116,N-Back (New Version 2021),2021.1.4,120.03375346901586,
,,,,Conditions/Version_1/threeback(4)_v1.xlsx,New rule: Press 'space' when you see 3-back (i.e. the same letter as the one that appeared 3 letters ago.),A,None,,,,,,,,,0,15,15,15,0,0,0,0,,,,,,,,,,,,,,,,,,,,,,,,,,,,,,,,,,,,,,,,,,,,,,,,,,,,,,,,,,,1045.7774852999719,None,1048.7619988999795,None,space,6.689465699950233,1048.7619988999795,None,1045.7774852999719,None,1.6176,1057.108346199966,None,None,1,1057.108346199966,None,,P043,fencog,1,Pre,2022_May_12_1116,N-Back (New Version 2021),2021.1.4,120.03375346901586,
,,,,Conditions/Version_1/threeback(4)_v1.xlsx,New rule: Press 'space' when you see 3-back (i.e. the same letter as the one that appeared 3 letters ago.),n,None,,,,,,,,,0,15,15,15,0,1,1,1,,,,,,,,,,,,,,,,,,,,,,,,,,,,,,,,,,,,,,,,,,,,,,,,,,,,,,,,,,,,,,,,,,,,,1.1402,1060.2564115999849,None,None,1,1060.2564115999849,None,,P043,fencog,1,Pre,2022_May_12_1116,N-Back (New Version 2021),2021.1.4,120.03375346901586,
,,,,Conditions/Version_1/threeback(4)_v1.xlsx,New rule: Press 'space' when you see 3-back (i.e. the same letter as the one that appeared 3 letters ago.),g,None,,,,,,,,,0,15,15,15,0,2,2,2,,,,,,,,,,,,,,,,,,,,,,,,,,,,,,,,,,,,,,,,,,,,,,,,,,,,,,,,,,,,,,,,,,,,,1.6672,1063.931597399991,None,None,1,1063.931597399991,None,,P043,fencog,1,Pre,2022_May_12_1116,N-Back (New Version 2021),2021.1.4,120.03375346901586,
,,,,Conditions/Version_1/threeback(4)_v1.xlsx,New rule: Press 'space' when you see 3-back (i.e. the same letter as the one that appeared 3 letters ago.),A,space,,,,,,,,,0,15,15,15,0,3,3,3,,,,,,,,,,,,,,,,,,,,,,,,,,,,,,,,,,,,,,,,,,,,,,,,,,,,,,,,,,,,,,,,,,,,,1.1712,1067.1127370999893,None,space,1,1067.1127370999893,None,0.45088149997172877,P043,fencog,1,Pre,2022_May_12_1116,N-Back (New Version 2021),2021.1.4,120.03375346901586,
,,,,Conditions/Version_1/threeback(4)_v1.xlsx,New rule: Press 'space' when you see 3-back (i.e. the same letter as the one that appeared 3 letters ago.),p,None,,,,,,,,,0,15,15,15,0,4,4,4,,,,,,,,,,,,,,,,,,,,,,,,,,,,,,,,,,,,,,,,,,,,,,,,,,,,,,,,,,,,,,,,,,,,,1.63,1070.745525699982,None,None,1,1070.745525699982,None,,P043,fencog,1,Pre,2022_May_12_1116,N-Back (New Version 2021),2021.1.4,120.03375346901586,
,,,,Conditions/Version_1/threeback(4)_v1.xlsx,New rule: Press 'space' when you see 3-back (i.e. the same letter as the one that appeared 3 letters ago.),O,None,,,,,,,,,0,15,15,15,0,5,5,5,,,,,,,,,,,,,,,,,,,,,,,,,,,,,,,,,,,,,,,,,,,,,,,,,,,,,,,,,,,,,,,,,,,,,1.5742,1074.32733,None,None,1,1074.32733,None,,P043,fencog,1,Pre,2022_May_12_1116,N-Back (New Version 2021),2021.1.4,120.03375346901586,
,,,,Conditions/Version_1/threeback(4)_v1.xlsx,New rule: Press 'space' when you see 3-back (i.e. the same letter as the one that appeared 3 letters ago.),a,space,,,,,,,,,0,15,15,15,0,6,6,6,,,,,,,,,,,,,,,,,,,,,,,,,,,,,,,,,,,,,,,,,,,,,,,,,,,,,,,,,,,,,,,,,,,,,1.7044,1078.0345128999907,None,space,1,1078.0345128999907,None,0.4808967999997549,P043,fencog,1,Pre,2022_May_12_1116,N-Back (New Version 2021),2021.1.4,120.03375346901586,
,,,,Conditions/Version_1/threeback(4)_v1.xlsx,New rule: Press 'space' when you see 3-back (i.e. the same letter as the one that appeared 3 letters ago.),p,space,,,,,,,,,0,15,15,15,0,7,7,7,,,,,,,,,,,,,,,,,,,,,,,,,,,,,,,,,,,,,,,,,,,,,,,,,,,,,,,,,,,,,,,,,,,,,1.754,1081.7930077000055,None,space,1,1081.7930077000055,None,1.362779299961403,P043,fencog,1,Pre,2022_May_12_1116,N-Back (New Version 2021),2021.1.4,120.03375346901586,
,,,,Conditions/Version_1/threeback(4)_v1.xlsx,New rule: Press 'space' when you see 3-back (i.e. the same letter as the one that appeared 3 letters ago.),x,None,,,,,,,,,0,15,15,15,0,8,8,8,,,,,,,,,,,,,,,,,,,,,,,,,,,,,,,,,,,,,,,,,,,,,,,,,,,,,,,,,,,,,,,,,,,,,1.2022,1085.0117212000187,None,None,1,1085.0117212000187,None,,P043,fencog,1,Pre,2022_May_12_1116,N-Back (New Version 2021),2021.1.4,120.03375346901586,
,,,,Conditions/Version_1/threeback(4)_v1.xlsx,New rule: Press 'space' when you see 3-back (i.e. the same letter as the one that appeared 3 letters ago.),X,None,,,,,,,,,0,15,15,15,0,9,9,9,,,,,,,,,,,,,,,,,,,,,,,,,,,,,,,,,,,,,,,,,,,,,,,,,,,,,,,,,,,,,,,,,,,,,1.444,1088.4645771000069,None,None,1,1088.4645771000069,None,,P043,fencog,1,Pre,2022_May_12_1116,N-Back (New Version 2021),2021.1.4,120.03375346901586,
,,,,Conditions/Version_1/threeback(4)_v1.xlsx,New rule: Press 'space' when you see 3-back (i.e. the same letter as the one that appeared 3 letters ago.),,,,,,,,,,,0,15,15,15,,,,,,,,,,,,,,,,,,,,,,,,,,,,,,,,,,,,,,,,,,,,,,,,,,,,,,,,,,,,,,,,,,,,,,,,,,,,,,,,,P043,fencog,1,Pre,2022_May_12_1116,N-Back (New Version 2021),2021.1.4,120.03375346901586,
