CondFileP,InstructionsP,LettersDisplayedP,CorrectnessP,CondFile,Instructions,LettersDisplayed,Correctness,practicetrials.thisRepN,practicetrials.thisTrialN,practicetrials.thisN,practicetrials.thisIndex,InnerLoopPractice.thisRepN,InnerLoopPractice.thisTrialN,InnerLoopPractice.thisN,InnerLoopPractice.thisIndex,trials.thisRepN,trials.thisTrialN,trials.thisN,trials.thisIndex,InnerLoop.thisRepN,InnerLoop.thisTrialN,InnerLoop.thisN,InnerLoop.thisIndex,TaskVersionText.started,TaskVersionText.stopped,InstrKey1.keys,InstrKey1.rt,InstrKey1.started,InstrKey1.stopped,text.started,text.stopped,key_resp_4.keys,key_resp_4.rt,key_resp_4.started,key_resp_4.stopped,text_2.started,text_2.stopped,key_resp_3.keys,key_resp_3.rt,key_resp_3.started,key_resp_3.stopped,text_3.started,text_3.stopped,key_resp_2.keys,key_resp_2.rt,key_resp_2.started,key_resp_2.stopped,PractIn1.started,PractIn1.stopped,PractIn2.started,PractIn2.stopped,PractInstructionPass.keys,PractInstructionPass.rt,PractInstructionPass.started,PractInstructionPass.stopped,PractBlock1.started,PractBlock1.stopped,ISIjitterPractice,ISI_Pract_Fixation.started,ISI_Pract_Fixation.stopped,N_backP.started,N_backP.stopped,KeyPractice.keys,KeyPractice.corr,KeyPractice.rt,KeyPractice.started,KeyPractice.stopped,text_4.started,text_4.stopped,TransitionText.started,TransitionText.stopped,key_resp_6.keys,key_resp_6.rt,key_resp_6.started,key_resp_6.stopped,text_5.started,text_5.stopped,key_resp_5.keys,key_resp_5.rt,key_resp_5.started,key_resp_5.stopped,MainInt1.started,MainInt1.stopped,MainInt2.started,MainInt2.stopped,InstructionPass.keys,InstructionPass.rt,InstructionPass.started,InstructionPass.stopped,Blocks1.started,Blocks1.stopped,ISIjitter,N_backD.started,N_backD.stopped,key_resp.keys,key_resp.corr,key_resp.started,key_resp.stopped,key_resp.rt,participant,Study Name,Task Version (required to run),PRE/POST,date,expName,psychopyVersion,frameRate
,,,,,,,,,,,,,,,,,,,,,,,,42.8509298,None,space,21.7243654,43.3399072,None,,,,,,,,,,,,,,,,,,,,,,,,,,,,,,,,,,,,,,,,,,,,,,,,,,,,,,,,,,,,,,,,,,,,,,,P043,FENCOG,2,Post,2022_May_19_1210,N-Back (New Version 2021),2021.1.4,120.0357707
,,,,,,,,,,,,,,,,,,,,,,,,,,,,,,65.1114783,None,space,2.6388678,65.6086973,None,,,,,,,,,,,,,,,,,,,,,,,,,,,,,,,,,,,,,,,,,,,,,,,,,,,,,,,,,,,,,,,,,P043,FENCOG,2,Post,2022_May_19_1210,N-Back (New Version 2021),2021.1.4,120.0357707
,,,,,,,,,,,,,,,,,,,,,,,,,,,,,,,,,,,,68.3108722,None,space,1.5206002,68.7997021,None,,,,,,,,,,,,,,,,,,,,,,,,,,,,,,,,,,,,,,,,,,,,,,,,,,,,,,,,,,,P043,FENCOG,2,Post,2022_May_19_1210,N-Back (New Version 2021),2021.1.4,120.0357707
,,,,,,,,,,,,,,,,,,,,,,,,,,,,,,,,,,,,,,,,,,70.3662631,None,space,0.2643411,70.8629605,None,,,,,,,,,,,,,,,,,,,,,,,,,,,,,,,,,,,,,,,,,,,,,,,,,,,,,P043,FENCOG,2,Post,2022_May_19_1210,N-Back (New Version 2021),2021.1.4,120.0357707
Conditions/Version_2Pr/zeroback(1)_v2.xlsx,Rule: Press 'space' when you see the letter 'x' or 'X'.,x,space,,,,,0,0,0,0,0,0,0,0,,,,,,,,,,,,,,,,,,,,,,,,,,,,,,,,,72.7654849,None,75.7768137,None,space,0.6865424,75.7768137,None,72.7654849,None,1.815,76.5024988,None,78.3246202,None,space,1,0.6113475,78.3246202,None,78.9701776,None,,,,,,,,,,,,,,,,,,,,,,,,,,,,,,,P043,FENCOG,2,Post,2022_May_19_1210,N-Back (New Version 2021),2021.1.4,120.0357707
Conditions/Version_2Pr/zeroback(1)_v2.xlsx,Rule: Press 'space' when you see the letter 'x' or 'X'.,R,None,,,,,0,0,0,0,0,1,1,1,,,,,,,,,,,,,,,,,,,,,,,,,,,,,,,,,,,,,,,,,,,1.465,80.4718065,None,81.9459315,None,None,1,,81.9459315,None,83.9451878,None,,,,,,,,,,,,,,,,,,,,,,,,,,,,,,,P043,FENCOG,2,Post,2022_May_19_1210,N-Back (New Version 2021),2021.1.4,120.0357707
Conditions/Version_2Pr/zeroback(1)_v2.xlsx,Rule: Press 'space' when you see the letter 'x' or 'X'.,p,None,,,,,0,0,0,0,0,2,2,2,,,,,,,,,,,,,,,,,,,,,,,,,,,,,,,,,,,,,,,,,,,1.065,85.44378,None,86.5168425,None,None,1,,86.5168425,None,88.5166688,None,,,,,,,,,,,,,,,,,,,,,,,,,,,,,,,P043,FENCOG,2,Post,2022_May_19_1210,N-Back (New Version 2021),2021.1.4,120.0357707
Conditions/Version_2Pr/zeroback(1)_v2.xlsx,Rule: Press 'space' when you see the letter 'x' or 'X'.,O,None,,,,,0,0,0,0,0,3,3,3,,,,,,,,,,,,,,,,,,,,,,,,,,,,,,,,,,,,,,,,,,,1.79,90.0173767,None,91.8173211,None,None,1,,91.8173211,None,93.8131491,None,,,,,,,,,,,,,,,,,,,,,,,,,,,,,,,P043,FENCOG,2,Post,2022_May_19_1210,N-Back (New Version 2021),2021.1.4,120.0357707
Conditions/Version_2Pr/zeroback(1)_v2.xlsx,Rule: Press 'space' when you see the letter 'x' or 'X'.,i,None,,,,,0,0,0,0,0,4,4,4,,,,,,,,,,,,,,,,,,,,,,,,,,,,,,,,,,,,,,,,,,,1.64,95.3159097,None,96.9639391,None,None,1,,96.9639391,None,98.9675962,None,,,,,,,,,,,,,,,,,,,,,,,,,,,,,,,P043,FENCOG,2,Post,2022_May_19_1210,N-Back (New Version 2021),2021.1.4,120.0357707
Conditions/Version_2Pr/zeroback(1)_v2.xlsx,Rule: Press 'space' when you see the letter 'x' or 'X'.,U,None,,,,,0,0,0,0,0,5,5,5,,,,,,,,,,,,,,,,,,,,,,,,,,,,,,,,,,,,,,,,,,,1.215,100.4646149,None,101.6907903,None,None,1,,101.6907903,None,103.6857023,None,,,,,,,,,,,,,,,,,,,,,,,,,,,,,,,P043,FENCOG,2,Post,2022_May_19_1210,N-Back (New Version 2021),2021.1.4,120.0357707
Conditions/Version_2Pr/zeroback(1)_v2.xlsx,Rule: Press 'space' when you see the letter 'x' or 'X'.,N,None,,,,,0,0,0,0,0,6,6,6,,,,,,,,,,,,,,,,,,,,,,,,,,,,,,,,,,,,,,,,,,,1.29,105.1883632,None,106.4816446,None,None,1,,106.4816446,None,108.4869745,None,,,,,,,,,,,,,,,,,,,,,,,,,,,,,,,P043,FENCOG,2,Post,2022_May_19_1210,N-Back (New Version 2021),2021.1.4,120.0357707
Conditions/Version_2Pr/zeroback(1)_v2.xlsx,Rule: Press 'space' when you see the letter 'x' or 'X'.,m,None,,,,,0,0,0,0,0,7,7,7,,,,,,,,,,,,,,,,,,,,,,,,,,,,,,,,,,,,,,,,,,,1.14,109.9865204,None,111.1341803,None,None,1,,111.1341803,None,113.130359,None,,,,,,,,,,,,,,,,,,,,,,,,,,,,,,,P043,FENCOG,2,Post,2022_May_19_1210,N-Back (New Version 2021),2021.1.4,120.0357707
Conditions/Version_2Pr/zeroback(1)_v2.xlsx,Rule: Press 'space' when you see the letter 'x' or 'X'.,x,space,,,,,0,0,0,0,0,8,8,8,,,,,,,,,,,,,,,,,,,,,,,,,,,,,,,,,,,,,,,,,,,1.69,114.6351757,None,116.3295061,None,space,1,0.382145,116.3295061,None,116.7233025,None,,,,,,,,,,,,,,,,,,,,,,,,,,,,,,,P043,FENCOG,2,Post,2022_May_19_1210,N-Back (New Version 2021),2021.1.4,120.0357707
Conditions/Version_2Pr/zeroback(1)_v2.xlsx,Rule: Press 'space' when you see the letter 'x' or 'X'.,X,space,,,,,0,0,0,0,0,9,9,9,,,,,,,,,,,,,,,,,,,,,,,,,,,,,,,,,,,,,,,,,,,1.99,118.2272013,None,120.2255984,None,space,1,0.5104523,120.2255984,None,120.7545544,None,,,,,,,,,,,,,,,,,,,,,,,,,,,,,,,P043,FENCOG,2,Post,2022_May_19_1210,N-Back (New Version 2021),2021.1.4,120.0357707
Conditions/Version_2Pr/zeroback(1)_v2.xlsx,Rule: Press 'space' when you see the letter 'x' or 'X'.,,,,,,,0,0,0,0,,,,,,,,,,,,,,,,,,,,,,,,,,,,,,,,,,,,,,,,,,,,,,,,,,,,,,,,,,,,,,,,,,,,,,,,,,,,,,,,,,,,,,,,,P043,FENCOG,2,Post,2022_May_19_1210,N-Back (New Version 2021),2021.1.4,120.0357707
Conditions/Version_2Pr/oneback(1)_v2.xlsx,New rule: Press 'space' when you see 1-back (i.e. the same letter as the one that appeared 1 letter ago.),r,None,,,,,0,1,1,1,0,0,0,0,,,,,,,,,,,,,,,,,,,,,,,,,,,,,,,,,122.3000075,None,125.2865609,None,space,0.3446573,125.2865609,None,122.3000075,None,1.54,125.6652632,None,127.2106718,None,None,1,,127.2106718,None,129.2120941,None,,,,,,,,,,,,,,,,,,,,,,,,,,,,,,,P043,FENCOG,2,Post,2022_May_19_1210,N-Back (New Version 2021),2021.1.4,120.0357707
Conditions/Version_2Pr/oneback(1)_v2.xlsx,New rule: Press 'space' when you see 1-back (i.e. the same letter as the one that appeared 1 letter ago.),t,None,,,,,0,1,1,1,0,1,1,1,,,,,,,,,,,,,,,,,,,,,,,,,,,,,,,,,,,,,,,,,,,1.24,130.7137469,None,131.9613697,None,None,1,,131.9613697,None,133.9628585,None,,,,,,,,,,,,,,,,,,,,,,,,,,,,,,,P043,FENCOG,2,Post,2022_May_19_1210,N-Back (New Version 2021),2021.1.4,120.0357707
Conditions/Version_2Pr/oneback(1)_v2.xlsx,New rule: Press 'space' when you see 1-back (i.e. the same letter as the one that appeared 1 letter ago.),Y,None,,,,,0,1,1,1,0,2,2,2,,,,,,,,,,,,,,,,,,,,,,,,,,,,,,,,,,,,,,,,,,,2.015,135.462868,None,137.483385,None,None,1,,137.483385,None,139.4887224,None,,,,,,,,,,,,,,,,,,,,,,,,,,,,,,,P043,FENCOG,2,Post,2022_May_19_1210,N-Back (New Version 2021),2021.1.4,120.0357707
Conditions/Version_2Pr/oneback(1)_v2.xlsx,New rule: Press 'space' when you see 1-back (i.e. the same letter as the one that appeared 1 letter ago.),y,space,,,,,0,1,1,1,0,3,3,3,,,,,,,,,,,,,,,,,,,,,,,,,,,,,,,,,,,,,,,,,,,1.065,140.9861226,None,142.0606895,None,space,1,0.5627028,142.0606895,None,142.6407357,None,,,,,,,,,,,,,,,,,,,,,,,,,,,,,,,P043,FENCOG,2,Post,2022_May_19_1210,N-Back (New Version 2021),2021.1.4,120.0357707
Conditions/Version_2Pr/oneback(1)_v2.xlsx,New rule: Press 'space' when you see 1-back (i.e. the same letter as the one that appeared 1 letter ago.),p,None,,,,,0,1,1,1,0,4,4,4,,,,,,,,,,,,,,,,,,,,,,,,,,,,,,,,,,,,,,,,,,,1.815,144.1452058,None,145.9633933,None,None,1,,145.9633933,None,147.9620104,None,,,,,,,,,,,,,,,,,,,,,,,,,,,,,,,P043,FENCOG,2,Post,2022_May_19_1210,N-Back (New Version 2021),2021.1.4,120.0357707
Conditions/Version_2Pr/oneback(1)_v2.xlsx,New rule: Press 'space' when you see 1-back (i.e. the same letter as the one that appeared 1 letter ago.),P,space,,,,,0,1,1,1,0,5,5,5,,,,,,,,,,,,,,,,,,,,,,,,,,,,,,,,,,,,,,,,,,,1.89,149.4664928,None,151.3650954,None,space,1,0.3541575,151.3650954,None,151.7366353,None,,,,,,,,,,,,,,,,,,,,,,,,,,,,,,,P043,FENCOG,2,Post,2022_May_19_1210,N-Back (New Version 2021),2021.1.4,120.0357707
Conditions/Version_2Pr/oneback(1)_v2.xlsx,New rule: Press 'space' when you see 1-back (i.e. the same letter as the one that appeared 1 letter ago.),e,None,,,,,0,1,1,1,0,6,6,6,,,,,,,,,,,,,,,,,,,,,,,,,,,,,,,,,,,,,,,,,,,1.315,153.2421216,None,154.563449,None,None,1,,154.563449,None,156.5650016,None,,,,,,,,,,,,,,,,,,,,,,,,,,,,,,,P043,FENCOG,2,Post,2022_May_19_1210,N-Back (New Version 2021),2021.1.4,120.0357707
Conditions/Version_2Pr/oneback(1)_v2.xlsx,New rule: Press 'space' when you see 1-back (i.e. the same letter as the one that appeared 1 letter ago.),r,None,,,,,0,1,1,1,0,7,7,7,,,,,,,,,,,,,,,,,,,,,,,,,,,,,,,,,,,,,,,,,,,1.09,158.064211,None,159.1610177,None,None,1,,159.1610177,None,161.162174,None,,,,,,,,,,,,,,,,,,,,,,,,,,,,,,,P043,FENCOG,2,Post,2022_May_19_1210,N-Back (New Version 2021),2021.1.4,120.0357707
Conditions/Version_2Pr/oneback(1)_v2.xlsx,New rule: Press 'space' when you see 1-back (i.e. the same letter as the one that appeared 1 letter ago.),R,space,,,,,0,1,1,1,0,8,8,8,,,,,,,,,,,,,,,,,,,,,,,,,,,,,,,,,,,,,,,,,,,1.69,162.6626538,None,164.3610873,None,space,1,0.3432237,164.3610873,None,164.729102,None,,,,,,,,,,,,,,,,,,,,,,,,,,,,,,,P043,FENCOG,2,Post,2022_May_19_1210,N-Back (New Version 2021),2021.1.4,120.0357707
Conditions/Version_2Pr/oneback(1)_v2.xlsx,New rule: Press 'space' when you see 1-back (i.e. the same letter as the one that appeared 1 letter ago.),p,None,,,,,0,1,1,1,0,9,9,9,,,,,,,,,,,,,,,,,,,,,,,,,,,,,,,,,,,,,,,,,,,1.94,166.2299933,None,168.1732856,None,None,1,,168.1732856,None,170.179101,None,,,,,,,,,,,,,,,,,,,,,,,,,,,,,,,P043,FENCOG,2,Post,2022_May_19_1210,N-Back (New Version 2021),2021.1.4,120.0357707
Conditions/Version_2Pr/oneback(1)_v2.xlsx,New rule: Press 'space' when you see 1-back (i.e. the same letter as the one that appeared 1 letter ago.),,,,,,,0,1,1,1,,,,,,,,,,,,,,,,,,,,,,,,,,,,,,,,,,,,,,,,,,,,,,,,,,,,,,,,,,,,,,,,,,,,,,,,,,,,,,,,,,,,,,,,,P043,FENCOG,2,Post,2022_May_19_1210,N-Back (New Version 2021),2021.1.4,120.0357707
Conditions/Version_2Pr/twoback(1)_v2.xlsx,New rule: Press 'space' when you see 2-back (i.e. the same letter as the one that appeared 2 letters ago.),r,None,,,,,0,2,2,2,0,0,0,0,,,,,,,,,,,,,,,,,,,,,,,,,,,,,,,,,171.7165588,None,174.6969575,None,space,0.3901722,174.6969575,None,171.7165588,None,1.04,175.1200962,None,176.1708346,None,None,1,,176.1708346,None,178.1728546,None,,,,,,,,,,,,,,,,,,,,,,,,,,,,,,,P043,FENCOG,2,Post,2022_May_19_1210,N-Back (New Version 2021),2021.1.4,120.0357707
Conditions/Version_2Pr/twoback(1)_v2.xlsx,New rule: Press 'space' when you see 2-back (i.e. the same letter as the one that appeared 2 letters ago.),P,None,,,,,0,2,2,2,0,1,1,1,,,,,,,,,,,,,,,,,,,,,,,,,,,,,,,,,,,,,,,,,,,1.665,179.6756907,None,181.3475953,None,None,1,,181.3475953,None,183.3546227,None,,,,,,,,,,,,,,,,,,,,,,,,,,,,,,,P043,FENCOG,2,Post,2022_May_19_1210,N-Back (New Version 2021),2021.1.4,120.0357707
Conditions/Version_2Pr/twoback(1)_v2.xlsx,New rule: Press 'space' when you see 2-back (i.e. the same letter as the one that appeared 2 letters ago.),o,None,,,,,0,2,2,2,0,2,2,2,,,,,,,,,,,,,,,,,,,,,,,,,,,,,,,,,,,,,,,,,,,1.915,184.848301,None,186.7681288,None,None,1,,186.7681288,None,188.7703901,None,,,,,,,,,,,,,,,,,,,,,,,,,,,,,,,P043,FENCOG,2,Post,2022_May_19_1210,N-Back (New Version 2021),2021.1.4,120.0357707
Conditions/Version_2Pr/twoback(1)_v2.xlsx,New rule: Press 'space' when you see 2-back (i.e. the same letter as the one that appeared 2 letters ago.),p,space,,,,,0,2,2,2,0,3,3,3,,,,,,,,,,,,,,,,,,,,,,,,,,,,,,,,,,,,,,,,,,,1.265,190.271203,None,191.5431886,None,space,1,0.5204659,191.5431886,None,192.0832343,None,,,,,,,,,,,,,,,,,,,,,,,,,,,,,,,P043,FENCOG,2,Post,2022_May_19_1210,N-Back (New Version 2021),2021.1.4,120.0357707
Conditions/Version_2Pr/twoback(1)_v2.xlsx,New rule: Press 'space' when you see 2-back (i.e. the same letter as the one that appeared 2 letters ago.),Y,None,,,,,0,2,2,2,0,4,4,4,,,,,,,,,,,,,,,,,,,,,,,,,,,,,,,,,,,,,,,,,,,1.715,193.5889592,None,195.3103834,None,None,1,,195.3103834,None,197.3071337,None,,,,,,,,,,,,,,,,,,,,,,,,,,,,,,,P043,FENCOG,2,Post,2022_May_19_1210,N-Back (New Version 2021),2021.1.4,120.0357707
Conditions/Version_2Pr/twoback(1)_v2.xlsx,New rule: Press 'space' when you see 2-back (i.e. the same letter as the one that appeared 2 letters ago.),q,None,,,,,0,2,2,2,0,5,5,5,,,,,,,,,,,,,,,,,,,,,,,,,,,,,,,,,,,,,,,,,,,1.69,198.8102598,None,200.5087109,None,None,1,,200.5087109,None,202.5100837,None,,,,,,,,,,,,,,,,,,,,,,,,,,,,,,,P043,FENCOG,2,Post,2022_May_19_1210,N-Back (New Version 2021),2021.1.4,120.0357707
Conditions/Version_2Pr/twoback(1)_v2.xlsx,New rule: Press 'space' when you see 2-back (i.e. the same letter as the one that appeared 2 letters ago.),m,None,,,,,0,2,2,2,0,6,6,6,,,,,,,,,,,,,,,,,,,,,,,,,,,,,,,,,,,,,,,,,,,1.59,204.0087987,None,205.605682,None,None,1,,205.605682,None,207.6108003,None,,,,,,,,,,,,,,,,,,,,,,,,,,,,,,,P043,FENCOG,2,Post,2022_May_19_1210,N-Back (New Version 2021),2021.1.4,120.0357707
Conditions/Version_2Pr/twoback(1)_v2.xlsx,New rule: Press 'space' when you see 2-back (i.e. the same letter as the one that appeared 2 letters ago.),Q,space,,,,,0,2,2,2,0,7,7,7,,,,,,,,,,,,,,,,,,,,,,,,,,,,,,,,,,,,,,,,,,,1.64,209.1072206,None,210.7572783,None,space,1,0.4021439,210.7572783,None,211.1791597,None,,,,,,,,,,,,,,,,,,,,,,,,,,,,,,,P043,FENCOG,2,Post,2022_May_19_1210,N-Back (New Version 2021),2021.1.4,120.0357707
Conditions/Version_2Pr/twoback(1)_v2.xlsx,New rule: Press 'space' when you see 2-back (i.e. the same letter as the one that appeared 2 letters ago.),L,None,,,,,0,2,2,2,0,8,8,8,,,,,,,,,,,,,,,,,,,,,,,,,,,,,,,,,,,,,,,,,,,1.34,212.6833218,None,214.030927,None,None,1,,214.030927,None,216.0360196,None,,,,,,,,,,,,,,,,,,,,,,,,,,,,,,,P043,FENCOG,2,Post,2022_May_19_1210,N-Back (New Version 2021),2021.1.4,120.0357707
Conditions/Version_2Pr/twoback(1)_v2.xlsx,New rule: Press 'space' when you see 2-back (i.e. the same letter as the one that appeared 2 letters ago.),q,space,,,,,0,2,2,2,0,9,9,9,,,,,,,,,,,,,,,,,,,,,,,,,,,,,,,,,,,,,,,,,,,1.89,217.5297283,None,219.4247905,None,space,1,0.3505203,219.4247905,None,219.7955493,None,,,,,,,,,,,,,,,,,,,,,,,,,,,,,,,P043,FENCOG,2,Post,2022_May_19_1210,N-Back (New Version 2021),2021.1.4,120.0357707
Conditions/Version_2Pr/twoback(1)_v2.xlsx,New rule: Press 'space' when you see 2-back (i.e. the same letter as the one that appeared 2 letters ago.),,,,,,,0,2,2,2,,,,,,,,,,,,,,,,,,,,,,,,,,,,,,,,,,,,,,,,,,,,,,,,,,,,,,,,,,,,,,,,,,,,,,,,,,,,,,,,,,,,,,,,,P043,FENCOG,2,Post,2022_May_19_1210,N-Back (New Version 2021),2021.1.4,120.0357707
Conditions/Version_2Pr/threeback(1)_v2.xlsx,New rule: Press 'space' when you see 3-back (i.e. the same letter as the one that appeared 3 letters ago.),u,None,,,,,0,3,3,3,0,0,0,0,,,,,,,,,,,,,,,,,,,,,,,,,,,,,,,,,221.3346999,None,224.3158635,None,space,0.3792226,224.3158635,None,221.3346999,None,1.29,224.7324413,None,226.0342452,None,None,1,,226.0342452,None,228.0408336,None,,,,,,,,,,,,,,,,,,,,,,,,,,,,,,,P043,FENCOG,2,Post,2022_May_19_1210,N-Back (New Version 2021),2021.1.4,120.0357707
Conditions/Version_2Pr/threeback(1)_v2.xlsx,New rule: Press 'space' when you see 3-back (i.e. the same letter as the one that appeared 3 letters ago.),U,None,,,,,0,3,3,3,0,1,1,1,,,,,,,,,,,,,,,,,,,,,,,,,,,,,,,,,,,,,,,,,,,1.44,229.536262,None,230.9811937,None,None,1,,230.9811937,None,232.9810482,None,,,,,,,,,,,,,,,,,,,,,,,,,,,,,,,P043,FENCOG,2,Post,2022_May_19_1210,N-Back (New Version 2021),2021.1.4,120.0357707
Conditions/Version_2Pr/threeback(1)_v2.xlsx,New rule: Press 'space' when you see 3-back (i.e. the same letter as the one that appeared 3 letters ago.),p,None,,,,,0,3,3,3,0,2,2,2,,,,,,,,,,,,,,,,,,,,,,,,,,,,,,,,,,,,,,,,,,,1.04,234.4830464,None,235.5305032,None,None,1,,235.5305032,None,237.5288849,None,,,,,,,,,,,,,,,,,,,,,,,,,,,,,,,P043,FENCOG,2,Post,2022_May_19_1210,N-Back (New Version 2021),2021.1.4,120.0357707
Conditions/Version_2Pr/threeback(1)_v2.xlsx,New rule: Press 'space' when you see 3-back (i.e. the same letter as the one that appeared 3 letters ago.),U,space,,,,,0,3,3,3,0,3,3,3,,,,,,,,,,,,,,,,,,,,,,,,,,,,,,,,,,,,,,,,,,,1.365,239.0317201,None,240.4037419,None,space,1,0.4196362,240.4037419,None,240.8357063,None,,,,,,,,,,,,,,,,,,,,,,,,,,,,,,,P043,FENCOG,2,Post,2022_May_19_1210,N-Back (New Version 2021),2021.1.4,120.0357707
Conditions/Version_2Pr/threeback(1)_v2.xlsx,New rule: Press 'space' when you see 3-back (i.e. the same letter as the one that appeared 3 letters ago.),e,None,,,,,0,3,3,3,0,4,4,4,,,,,,,,,,,,,,,,,,,,,,,,,,,,,,,,,,,,,,,,,,,2.015,242.3406825,None,244.3607701,None,None,1,,244.3607701,None,246.3634212,None,,,,,,,,,,,,,,,,,,,,,,,,,,,,,,,P043,FENCOG,2,Post,2022_May_19_1210,N-Back (New Version 2021),2021.1.4,120.0357707
Conditions/Version_2Pr/threeback(1)_v2.xlsx,New rule: Press 'space' when you see 3-back (i.e. the same letter as the one that appeared 3 letters ago.),R,None,,,,,0,3,3,3,0,5,5,5,,,,,,,,,,,,,,,,,,,,,,,,,,,,,,,,,,,,,,,,,,,1.89,247.8623963,None,249.757168,None,None,1,,249.757168,None,251.7658144,None,,,,,,,,,,,,,,,,,,,,,,,,,,,,,,,P043,FENCOG,2,Post,2022_May_19_1210,N-Back (New Version 2021),2021.1.4,120.0357707
Conditions/Version_2Pr/threeback(1)_v2.xlsx,New rule: Press 'space' when you see 3-back (i.e. the same letter as the one that appeared 3 letters ago.),p,None,,,,,0,3,3,3,0,6,6,6,,,,,,,,,,,,,,,,,,,,,,,,,,,,,,,,,,,,,,,,,,,1.59,253.2609381,None,254.8576262,None,None,1,,254.8576262,None,256.8598119,None,,,,,,,,,,,,,,,,,,,,,,,,,,,,,,,P043,FENCOG,2,Post,2022_May_19_1210,N-Back (New Version 2021),2021.1.4,120.0357707
Conditions/Version_2Pr/threeback(1)_v2.xlsx,New rule: Press 'space' when you see 3-back (i.e. the same letter as the one that appeared 3 letters ago.),E,space,,,,,0,3,3,3,0,7,7,7,,,,,,,,,,,,,,,,,,,,,,,,,,,,,,,,,,,,,,,,,,,1.94,258.3593022,None,260.3069806,None,space,1,0.3963015,260.3069806,None,260.7181254,None,,,,,,,,,,,,,,,,,,,,,,,,,,,,,,,P043,FENCOG,2,Post,2022_May_19_1210,N-Back (New Version 2021),2021.1.4,120.0357707
Conditions/Version_2Pr/threeback(1)_v2.xlsx,New rule: Press 'space' when you see 3-back (i.e. the same letter as the one that appeared 3 letters ago.),k,None,,,,,0,3,3,3,0,8,8,8,,,,,,,,,,,,,,,,,,,,,,,,,,,,,,,,,,,,,,,,,,,1.215,262.226333,None,263.4479518,None,None,1,,263.4479518,None,265.4482837,None,,,,,,,,,,,,,,,,,,,,,,,,,,,,,,,P043,FENCOG,2,Post,2022_May_19_1210,N-Back (New Version 2021),2021.1.4,120.0357707
Conditions/Version_2Pr/threeback(1)_v2.xlsx,New rule: Press 'space' when you see 3-back (i.e. the same letter as the one that appeared 3 letters ago.),m,None,,,,,0,3,3,3,0,9,9,9,,,,,,,,,,,,,,,,,,,,,,,,,,,,,,,,,,,,,,,,,,,1.24,266.9484923,None,268.1954103,None,None,1,,268.1954103,None,270.1966024,None,,,,,,,,,,,,,,,,,,,,,,,,,,,,,,,P043,FENCOG,2,Post,2022_May_19_1210,N-Back (New Version 2021),2021.1.4,120.0357707
Conditions/Version_2Pr/threeback(1)_v2.xlsx,New rule: Press 'space' when you see 3-back (i.e. the same letter as the one that appeared 3 letters ago.),,,,,,,0,3,3,3,,,,,,,,,,,,,,,,,,,,,,,,,,,,,,,,,,,,,,,,,,,,,,,,,,,,,,,,,,,,,,,,,,,,,,,,,,,,,,,,,,,,,,,,,P043,FENCOG,2,Post,2022_May_19_1210,N-Back (New Version 2021),2021.1.4,120.0357707
,,,,,,,,,,,,,,,,,,,,,,,,,,,,,,,,,,,,,,,,,,,,,,,,,,,,,,,,,,,,,,,,,,,,,,271.7114709,None,space,1.641726,272.2056121,None,,,,,,,,,,,,,,,,,,,,,,,,,P043,FENCOG,2,Post,2022_May_19_1210,N-Back (New Version 2021),2021.1.4,120.0357707
,,,,,,,,,,,,,,,,,,,,,,,,,,,,,,,,,,,,,,,,,,,,,,,,,,,,,,,,,,,,,,,,,,,,,,,,,,,,273.892403,None,space,55.8667862,274.3885113,None,,,,,,,,,,,,,,,,,,,P043,FENCOG,2,Post,2022_May_19_1210,N-Back (New Version 2021),2021.1.4,120.0357707
,,,,Conditions/Version_1/zeroback(1)_v1.xlsx,Rule: Press 'space' when you see the letter 'x' or 'X'.,b,None,,,,,,,,,0,0,0,0,0,0,0,0,,,,,,,,,,,,,,,,,,,,,,,,,,,,,,,,,,,,,,,,,,,,,,,,,,,,,,,,,,,330.3907962,None,333.3762059,None,space,1.7267747,333.3762059,None,330.3907962,None,1.289,336.4436035,None,None,1,336.4436035,None,,P043,FENCOG,2,Post,2022_May_19_1210,N-Back (New Version 2021),2021.1.4,120.0357707
,,,,Conditions/Version_1/zeroback(1)_v1.xlsx,Rule: Press 'space' when you see the letter 'x' or 'X'.,T,None,,,,,,,,,0,0,0,0,0,1,1,1,,,,,,,,,,,,,,,,,,,,,,,,,,,,,,,,,,,,,,,,,,,,,,,,,,,,,,,,,,,,,,,,,,,,,1.2394,339.7005512,None,None,1,339.7005512,None,,P043,FENCOG,2,Post,2022_May_19_1210,N-Back (New Version 2021),2021.1.4,120.0357707
,,,,Conditions/Version_1/zeroback(1)_v1.xlsx,Rule: Press 'space' when you see the letter 'x' or 'X'.,L,None,,,,,,,,,0,0,0,0,0,2,2,2,,,,,,,,,,,,,,,,,,,,,,,,,,,,,,,,,,,,,,,,,,,,,,,,,,,,,,,,,,,,,,,,,,,,,1.9338,343.6405102,None,None,1,343.6405102,None,,P043,FENCOG,2,Post,2022_May_19_1210,N-Back (New Version 2021),2021.1.4,120.0357707
,,,,Conditions/Version_1/zeroback(1)_v1.xlsx,Rule: Press 'space' when you see the letter 'x' or 'X'.,x,space,,,,,,,,,0,0,0,0,0,3,3,3,,,,,,,,,,,,,,,,,,,,,,,,,,,,,,,,,,,,,,,,,,,,,,,,,,,,,,,,,,,,,,,,,,,,,1.1464,346.7971713,None,space,1,346.7971713,None,0.4100568,P043,FENCOG,2,Post,2022_May_19_1210,N-Back (New Version 2021),2021.1.4,120.0357707
,,,,Conditions/Version_1/zeroback(1)_v1.xlsx,Rule: Press 'space' when you see the letter 'x' or 'X'.,o,None,,,,,,,,,0,0,0,0,0,4,4,4,,,,,,,,,,,,,,,,,,,,,,,,,,,,,,,,,,,,,,,,,,,,,,,,,,,,,,,,,,,,,,,,,,,,,1.4998,350.3052082,None,None,1,350.3052082,None,,P043,FENCOG,2,Post,2022_May_19_1210,N-Back (New Version 2021),2021.1.4,120.0357707
,,,,Conditions/Version_1/zeroback(1)_v1.xlsx,Rule: Press 'space' when you see the letter 'x' or 'X'.,P,None,,,,,,,,,0,0,0,0,0,5,5,5,,,,,,,,,,,,,,,,,,,,,,,,,,,,,,,,,,,,,,,,,,,,,,,,,,,,,,,,,,,,,,,,,,,,,1.2022,353.5107804,None,None,1,353.5107804,None,,P043,FENCOG,2,Post,2022_May_19_1210,N-Back (New Version 2021),2021.1.4,120.0357707
,,,,Conditions/Version_1/zeroback(1)_v1.xlsx,Rule: Press 'space' when you see the letter 'x' or 'X'.,X,space,,,,,,,,,0,0,0,0,0,6,6,6,,,,,,,,,,,,,,,,,,,,,,,,,,,,,,,,,,,,,,,,,,,,,,,,,,,,,,,,,,,,,,,,,,,,,1.9028,357.4272729,None,space,1,357.4272729,None,0.4439415,P043,FENCOG,2,Post,2022_May_19_1210,N-Back (New Version 2021),2021.1.4,120.0357707
,,,,Conditions/Version_1/zeroback(1)_v1.xlsx,Rule: Press 'space' when you see the letter 'x' or 'X'.,n,None,,,,,,,,,0,0,0,0,0,7,7,7,,,,,,,,,,,,,,,,,,,,,,,,,,,,,,,,,,,,,,,,,,,,,,,,,,,,,,,,,,,,,,,,,,,,,1.5494,360.9960451,None,None,1,360.9960451,None,,P043,FENCOG,2,Post,2022_May_19_1210,N-Back (New Version 2021),2021.1.4,120.0357707
,,,,Conditions/Version_1/zeroback(1)_v1.xlsx,Rule: Press 'space' when you see the letter 'x' or 'X'.,M,None,,,,,,,,,0,0,0,0,0,8,8,8,,,,,,,,,,,,,,,,,,,,,,,,,,,,,,,,,,,,,,,,,,,,,,,,,,,,,,,,,,,,,,,,,,,,,1.072,364.0769252,None,None,1,364.0769252,None,,P043,FENCOG,2,Post,2022_May_19_1210,N-Back (New Version 2021),2021.1.4,120.0357707
,,,,Conditions/Version_1/zeroback(1)_v1.xlsx,Rule: Press 'space' when you see the letter 'x' or 'X'.,a,None,,,,,,,,,0,0,0,0,0,9,9,9,,,,,,,,,,,,,,,,,,,,,,,,,,,,,,,,,,,,,,,,,,,,,,,,,,,,,,,,,,,,,,,,,,,,,1.5308,367.6244472,None,None,1,367.6244472,None,,P043,FENCOG,2,Post,2022_May_19_1210,N-Back (New Version 2021),2021.1.4,120.0357707
,,,,Conditions/Version_1/zeroback(1)_v1.xlsx,Rule: Press 'space' when you see the letter 'x' or 'X'.,,,,,,,,,,,0,0,0,0,,,,,,,,,,,,,,,,,,,,,,,,,,,,,,,,,,,,,,,,,,,,,,,,,,,,,,,,,,,,,,,,,,,,,,,,,,,,,,,,,P043,FENCOG,2,Post,2022_May_19_1210,N-Back (New Version 2021),2021.1.4,120.0357707
,,,,Conditions/Version_1/oneback(1)_v1.xlsx,New rule: Press 'space' when you see 1-back (i.e. the same letter as the one that appeared 1 letter ago.),b,None,,,,,,,,,0,1,1,1,0,0,0,0,,,,,,,,,,,,,,,,,,,,,,,,,,,,,,,,,,,,,,,,,,,,,,,,,,,,,,,,,,,369.6670366,None,372.6466485,None,space,0.352233,372.6466485,None,369.6670366,None,1.9152,374.964615,None,None,1,374.964615,None,,P043,FENCOG,2,Post,2022_May_19_1210,N-Back (New Version 2021),2021.1.4,120.0357707
,,,,Conditions/Version_1/oneback(1)_v1.xlsx,New rule: Press 'space' when you see 1-back (i.e. the same letter as the one that appeared 1 letter ago.),p,None,,,,,,,,,0,1,1,1,0,1,1,1,,,,,,,,,,,,,,,,,,,,,,,,,,,,,,,,,,,,,,,,,,,,,,,,,,,,,,,,,,,,,,,,,,,,,1.1402,378.1214816,None,None,1,378.1214816,None,,P043,FENCOG,2,Post,2022_May_19_1210,N-Back (New Version 2021),2021.1.4,120.0357707
,,,,Conditions/Version_1/oneback(1)_v1.xlsx,New rule: Press 'space' when you see 1-back (i.e. the same letter as the one that appeared 1 letter ago.),M,None,,,,,,,,,0,1,1,1,0,2,2,2,,,,,,,,,,,,,,,,,,,,,,,,,,,,,,,,,,,,,,,,,,,,,,,,,,,,,,,,,,,,,,,,,,,,,1.3138,381.4439102,None,None,1,381.4439102,None,,P043,FENCOG,2,Post,2022_May_19_1210,N-Back (New Version 2021),2021.1.4,120.0357707
,,,,Conditions/Version_1/oneback(1)_v1.xlsx,New rule: Press 'space' when you see 1-back (i.e. the same letter as the one that appeared 1 letter ago.),M,space,,,,,,,,,0,1,1,1,0,3,3,3,,,,,,,,,,,,,,,,,,,,,,,,,,,,,,,,,,,,,,,,,,,,,,,,,,,,,,,,,,,,,,,,,,,,,1.2146,384.6738378,None,space,1,384.6738378,None,0.4373193,P043,FENCOG,2,Post,2022_May_19_1210,N-Back (New Version 2021),2021.1.4,120.0357707
,,,,Conditions/Version_1/oneback(1)_v1.xlsx,New rule: Press 'space' when you see 1-back (i.e. the same letter as the one that appeared 1 letter ago.),n,None,,,,,,,,,0,1,1,1,0,4,4,4,,,,,,,,,,,,,,,,,,,,,,,,,,,,,,,,,,,,,,,,,,,,,,,,,,,,,,,,,,,,,,,,,,,,,1.2332,387.91873,None,None,1,387.91873,None,,P043,FENCOG,2,Post,2022_May_19_1210,N-Back (New Version 2021),2021.1.4,120.0357707
,,,,Conditions/Version_1/oneback(1)_v1.xlsx,New rule: Press 'space' when you see 1-back (i.e. the same letter as the one that appeared 1 letter ago.),g,None,,,,,,,,,0,1,1,1,0,5,5,5,,,,,,,,,,,,,,,,,,,,,,,,,,,,,,,,,,,,,,,,,,,,,,,,,,,,,,,,,,,,,,,,,,,,,1.7726,391.700751,None,None,1,391.700751,None,,P043,FENCOG,2,Post,2022_May_19_1210,N-Back (New Version 2021),2021.1.4,120.0357707
,,,,Conditions/Version_1/oneback(1)_v1.xlsx,New rule: Press 'space' when you see 1-back (i.e. the same letter as the one that appeared 1 letter ago.),P,None,,,,,,,,,0,1,1,1,0,6,6,6,,,,,,,,,,,,,,,,,,,,,,,,,,,,,,,,,,,,,,,,,,,,,,,,,,,,,,,,,,,,,,,,,,,,,1.0472,394.7584759,None,None,1,394.7584759,None,,P043,FENCOG,2,Post,2022_May_19_1210,N-Back (New Version 2021),2021.1.4,120.0357707
,,,,Conditions/Version_1/oneback(1)_v1.xlsx,New rule: Press 'space' when you see 1-back (i.e. the same letter as the one that appeared 1 letter ago.),o,None,,,,,,,,,0,1,1,1,0,7,7,7,,,,,,,,,,,,,,,,,,,,,,,,,,,,,,,,,,,,,,,,,,,,,,,,,,,,,,,,,,,,,,,,,,,,,1.041,397.8163606,None,None,1,397.8163606,None,,P043,FENCOG,2,Post,2022_May_19_1210,N-Back (New Version 2021),2021.1.4,120.0357707
,,,,Conditions/Version_1/oneback(1)_v1.xlsx,New rule: Press 'space' when you see 1-back (i.e. the same letter as the one that appeared 1 letter ago.),f,None,,,,,,,,,0,1,1,1,0,8,8,8,,,,,,,,,,,,,,,,,,,,,,,,,,,,,,,,,,,,,,,,,,,,,,,,,,,,,,,,,,,,,,,,,,,,,1.8904,401.7258951,None,None,1,401.7258951,None,,P043,FENCOG,2,Post,2022_May_19_1210,N-Back (New Version 2021),2021.1.4,120.0357707
,,,,Conditions/Version_1/oneback(1)_v1.xlsx,New rule: Press 'space' when you see 1-back (i.e. the same letter as the one that appeared 1 letter ago.),F,space,,,,,,,,,0,1,1,1,0,9,9,9,,,,,,,,,,,,,,,,,,,,,,,,,,,,,,,,,,,,,,,,,,,,,,,,,,,,,,,,,,,,,,,,,,,,,1.5494,405.2834723,None,space,1,405.2834723,None,0.3397591,P043,FENCOG,2,Post,2022_May_19_1210,N-Back (New Version 2021),2021.1.4,120.0357707
,,,,Conditions/Version_1/oneback(1)_v1.xlsx,New rule: Press 'space' when you see 1-back (i.e. the same letter as the one that appeared 1 letter ago.),,,,,,,,,,,0,1,1,1,,,,,,,,,,,,,,,,,,,,,,,,,,,,,,,,,,,,,,,,,,,,,,,,,,,,,,,,,,,,,,,,,,,,,,,,,,,,,,,,,P043,FENCOG,2,Post,2022_May_19_1210,N-Back (New Version 2021),2021.1.4,120.0357707
,,,,Conditions/Version_1/twoback(1)_v1.xlsx,New rule: Press 'space' when you see 2-back (i.e. the same letter as the one that appeared 2 letters ago.),b,None,,,,,,,,,0,2,2,2,0,0,0,0,,,,,,,,,,,,,,,,,,,,,,,,,,,,,,,,,,,,,,,,,,,,,,,,,,,,,,,,,,,407.319316,None,410.3024974,None,space,0.3923884,410.3024974,None,407.319316,None,1.568,412.3098189,None,None,1,412.3098189,None,,P043,FENCOG,2,Post,2022_May_19_1210,N-Back (New Version 2021),2021.1.4,120.0357707
,,,,Conditions/Version_1/twoback(1)_v1.xlsx,New rule: Press 'space' when you see 2-back (i.e. the same letter as the one that appeared 2 letters ago.),h,None,,,,,,,,,0,2,2,2,0,1,1,1,,,,,,,,,,,,,,,,,,,,,,,,,,,,,,,,,,,,,,,,,,,,,,,,,,,,,,,,,,,,,,,,,,,,,1.9152,416.238617,None,None,1,416.238617,None,,P043,FENCOG,2,Post,2022_May_19_1210,N-Back (New Version 2021),2021.1.4,120.0357707
,,,,Conditions/Version_1/twoback(1)_v1.xlsx,New rule: Press 'space' when you see 2-back (i.e. the same letter as the one that appeared 2 letters ago.),j,None,,,,,,,,,0,2,2,2,0,2,2,2,,,,,,,,,,,,,,,,,,,,,,,,,,,,,,,,,,,,,,,,,,,,,,,,,,,,,,,,,,,,,,,,,,,,,1.9276,420.1680582,None,None,1,420.1680582,None,,P043,FENCOG,2,Post,2022_May_19_1210,N-Back (New Version 2021),2021.1.4,120.0357707
,,,,Conditions/Version_1/twoback(1)_v1.xlsx,New rule: Press 'space' when you see 2-back (i.e. the same letter as the one that appeared 2 letters ago.),H,space,,,,,,,,,0,2,2,2,0,3,3,3,,,,,,,,,,,,,,,,,,,,,,,,,,,,,,,,,,,,,,,,,,,,,,,,,,,,,,,,,,,,,,,,,,,,,1.8098,423.9874107,None,space,1,423.9874107,None,0.4355449,P043,FENCOG,2,Post,2022_May_19_1210,N-Back (New Version 2021),2021.1.4,120.0357707
,,,,Conditions/Version_1/twoback(1)_v1.xlsx,New rule: Press 'space' when you see 2-back (i.e. the same letter as the one that appeared 2 letters ago.),p,None,,,,,,,,,0,2,2,2,0,4,4,4,,,,,,,,,,,,,,,,,,,,,,,,,,,,,,,,,,,,,,,,,,,,,,,,,,,,,,,,,,,,,,,,,,,,,1.9462,427.9394803,None,None,1,427.9394803,None,,P043,FENCOG,2,Post,2022_May_19_1210,N-Back (New Version 2021),2021.1.4,120.0357707
,,,,Conditions/Version_1/twoback(1)_v1.xlsx,New rule: Press 'space' when you see 2-back (i.e. the same letter as the one that appeared 2 letters ago.),p,None,,,,,,,,,0,2,2,2,0,5,5,5,,,,,,,,,,,,,,,,,,,,,,,,,,,,,,,,,,,,,,,,,,,,,,,,,,,,,,,,,,,,,,,,,,,,,1.041,430.984293,None,None,1,430.984293,None,,P043,FENCOG,2,Post,2022_May_19_1210,N-Back (New Version 2021),2021.1.4,120.0357707
,,,,Conditions/Version_1/twoback(1)_v1.xlsx,New rule: Press 'space' when you see 2-back (i.e. the same letter as the one that appeared 2 letters ago.),w,None,,,,,,,,,0,2,2,2,0,6,6,6,,,,,,,,,,,,,,,,,,,,,,,,,,,,,,,,,,,,,,,,,,,,,,,,,,,,,,,,,,,,,,,,,,,,,1.3448,434.3496868,None,None,1,434.3496868,None,,P043,FENCOG,2,Post,2022_May_19_1210,N-Back (New Version 2021),2021.1.4,120.0357707
,,,,Conditions/Version_1/twoback(1)_v1.xlsx,New rule: Press 'space' when you see 2-back (i.e. the same letter as the one that appeared 2 letters ago.),R,None,,,,,,,,,0,2,2,2,0,7,7,7,,,,,,,,,,,,,,,,,,,,,,,,,,,,,,,,,,,,,,,,,,,,,,,,,,,,,,,,,,,,,,,,,,,,,1.661,438.0188729,None,None,1,438.0188729,None,,P043,FENCOG,2,Post,2022_May_19_1210,N-Back (New Version 2021),2021.1.4,120.0357707
,,,,Conditions/Version_1/twoback(1)_v1.xlsx,New rule: Press 'space' when you see 2-back (i.e. the same letter as the one that appeared 2 letters ago.),a,None,,,,,,,,,0,2,2,2,0,8,8,8,,,,,,,,,,,,,,,,,,,,,,,,,,,,,,,,,,,,,,,,,,,,,,,,,,,,,,,,,,,,,,,,,,,,,1.3882,441.4198468,None,None,1,441.4198468,None,,P043,FENCOG,2,Post,2022_May_19_1210,N-Back (New Version 2021),2021.1.4,120.0357707
,,,,Conditions/Version_1/twoback(1)_v1.xlsx,New rule: Press 'space' when you see 2-back (i.e. the same letter as the one that appeared 2 letters ago.),r,space,,,,,,,,,0,2,2,2,0,9,9,9,,,,,,,,,,,,,,,,,,,,,,,,,,,,,,,,,,,,,,,,,,,,,,,,,,,,,,,,,,,,,,,,,,,,,1.3386,444.7668955,None,space,1,444.7668955,None,0.6882994,P043,FENCOG,2,Post,2022_May_19_1210,N-Back (New Version 2021),2021.1.4,120.0357707
,,,,Conditions/Version_1/twoback(1)_v1.xlsx,New rule: Press 'space' when you see 2-back (i.e. the same letter as the one that appeared 2 letters ago.),,,,,,,,,,,0,2,2,2,,,,,,,,,,,,,,,,,,,,,,,,,,,,,,,,,,,,,,,,,,,,,,,,,,,,,,,,,,,,,,,,,,,,,,,,,,,,,,,,,P043,FENCOG,2,Post,2022_May_19_1210,N-Back (New Version 2021),2021.1.4,120.0357707
,,,,Conditions/Version_1/threeback(1)_v1.xlsx,New rule: Press 'space' when you see 3-back (i.e. the same letter as the one that appeared 3 letters ago.),r,None,,,,,,,,,0,3,3,3,0,0,0,0,,,,,,,,,,,,,,,,,,,,,,,,,,,,,,,,,,,,,,,,,,,,,,,,,,,,,,,,,,,446.809762,None,449.7926265,None,space,0.6542225,449.7926265,None,446.809762,None,1.2704,451.7531922,None,None,1,451.7531922,None,,P043,FENCOG,2,Post,2022_May_19_1210,N-Back (New Version 2021),2021.1.4,120.0357707
,,,,Conditions/Version_1/threeback(1)_v1.xlsx,New rule: Press 'space' when you see 3-back (i.e. the same letter as the one that appeared 3 letters ago.),o,None,,,,,,,,,0,3,3,3,0,1,1,1,,,,,,,,,,,,,,,,,,,,,,,,,,,,,,,,,,,,,,,,,,,,,,,,,,,,,,,,,,,,,,,,,,,,,1.1836,454.9507489,None,None,1,454.9507489,None,,P043,FENCOG,2,Post,2022_May_19_1210,N-Back (New Version 2021),2021.1.4,120.0357707
,,,,Conditions/Version_1/threeback(1)_v1.xlsx,New rule: Press 'space' when you see 3-back (i.e. the same letter as the one that appeared 3 letters ago.),P,None,,,,,,,,,0,3,3,3,0,2,2,2,,,,,,,,,,,,,,,,,,,,,,,,,,,,,,,,,,,,,,,,,,,,,,,,,,,,,,,,,,,,,,,,,,,,,1.0596,458.0171811,None,None,1,458.0171811,None,,P043,FENCOG,2,Post,2022_May_19_1210,N-Back (New Version 2021),2021.1.4,120.0357707
,,,,Conditions/Version_1/threeback(1)_v1.xlsx,New rule: Press 'space' when you see 3-back (i.e. the same letter as the one that appeared 3 letters ago.),R,space,,,,,,,,,0,3,3,3,0,3,3,3,,,,,,,,,,,,,,,,,,,,,,,,,,,,,,,,,,,,,,,,,,,,,,,,,,,,,,,,,,,,,,,,,,,,,1.0782,461.1117118,None,space,1,461.1117118,None,0.3833885,P043,FENCOG,2,Post,2022_May_19_1210,N-Back (New Version 2021),2021.1.4,120.0357707
,,,,Conditions/Version_1/threeback(1)_v1.xlsx,New rule: Press 'space' when you see 3-back (i.e. the same letter as the one that appeared 3 letters ago.),p,None,,,,,,,,,0,3,3,3,0,4,4,4,,,,,,,,,,,,,,,,,,,,,,,,,,,,,,,,,,,,,,,,,,,,,,,,,,,,,,,,,,,,,,,,,,,,,1.9028,465.027441,None,None,1,465.027441,None,,P043,FENCOG,2,Post,2022_May_19_1210,N-Back (New Version 2021),2021.1.4,120.0357707
,,,,Conditions/Version_1/threeback(1)_v1.xlsx,New rule: Press 'space' when you see 3-back (i.e. the same letter as the one that appeared 3 letters ago.),E,None,,,,,,,,,0,3,3,3,0,5,5,5,,,,,,,,,,,,,,,,,,,,,,,,,,,,,,,,,,,,,,,,,,,,,,,,,,,,,,,,,,,,,,,,,,,,,1.7168,468.7529393,None,None,1,468.7529393,None,,P043,FENCOG,2,Post,2022_May_19_1210,N-Back (New Version 2021),2021.1.4,120.0357707
,,,,Conditions/Version_1/threeback(1)_v1.xlsx,New rule: Press 'space' when you see 3-back (i.e. the same letter as the one that appeared 3 letters ago.),e,None,,,,,,,,,0,3,3,3,0,6,6,6,,,,,,,,,,,,,,,,,,,,,,,,,,,,,,,,,,,,,,,,,,,,,,,,,,,,,,,,,,,,,,,,,,,,,1.8718,472.6335401,None,None,1,472.6335401,None,,P043,FENCOG,2,Post,2022_May_19_1210,N-Back (New Version 2021),2021.1.4,120.0357707
,,,,Conditions/Version_1/threeback(1)_v1.xlsx,New rule: Press 'space' when you see 3-back (i.e. the same letter as the one that appeared 3 letters ago.),m,None,,,,,,,,,0,3,3,3,0,7,7,7,,,,,,,,,,,,,,,,,,,,,,,,,,,,,,,,,,,,,,,,,,,,,,,,,,,,,,,,,,,,,,,,,,,,,1.3572,475.9996107,None,None,1,475.9996107,None,,P043,FENCOG,2,Post,2022_May_19_1210,N-Back (New Version 2021),2021.1.4,120.0357707
,,,,Conditions/Version_1/threeback(1)_v1.xlsx,New rule: Press 'space' when you see 3-back (i.e. the same letter as the one that appeared 3 letters ago.),n,None,,,,,,,,,0,3,3,3,0,8,8,8,,,,,,,,,,,,,,,,,,,,,,,,,,,,,,,,,,,,,,,,,,,,,,,,,,,,,,,,,,,,,,,,,,,,,1.475,479.4844229,None,None,1,479.4844229,None,,P043,FENCOG,2,Post,2022_May_19_1210,N-Back (New Version 2021),2021.1.4,120.0357707
,,,,Conditions/Version_1/threeback(1)_v1.xlsx,New rule: Press 'space' when you see 3-back (i.e. the same letter as the one that appeared 3 letters ago.),e,space,,,,,,,,,0,3,3,3,0,9,9,9,,,,,,,,,,,,,,,,,,,,,,,,,,,,,,,,,,,,,,,,,,,,,,,,,,,,,,,,,,,,,,,,,,,,,1.1278,482.6245926,None,space,1,482.6245926,None,0.3983213,P043,FENCOG,2,Post,2022_May_19_1210,N-Back (New Version 2021),2021.1.4,120.0357707
,,,,Conditions/Version_1/threeback(1)_v1.xlsx,New rule: Press 'space' when you see 3-back (i.e. the same letter as the one that appeared 3 letters ago.),,,,,,,,,,,0,3,3,3,,,,,,,,,,,,,,,,,,,,,,,,,,,,,,,,,,,,,,,,,,,,,,,,,,,,,,,,,,,,,,,,,,,,,,,,,,,,,,,,,P043,FENCOG,2,Post,2022_May_19_1210,N-Back (New Version 2021),2021.1.4,120.0357707
,,,,Conditions/Version_1/oneback(2)_v1.xlsx,New rule: Press 'space' when you see 1-back (i.e. the same letter as the one that appeared 1 letter ago.),q,None,,,,,,,,,0,4,4,4,0,0,0,0,,,,,,,,,,,,,,,,,,,,,,,,,,,,,,,,,,,,,,,,,,,,,,,,,,,,,,,,,,,484.6655453,None,487.6475075,None,space,0.7434589,487.6475075,None,484.6655453,None,1.7292,490.1697863,None,None,1,490.1697863,None,,P043,FENCOG,2,Post,2022_May_19_1210,N-Back (New Version 2021),2021.1.4,120.0357707
,,,,Conditions/Version_1/oneback(2)_v1.xlsx,New rule: Press 'space' when you see 1-back (i.e. the same letter as the one that appeared 1 letter ago.),Q,space,,,,,,,,,0,4,4,4,0,1,1,1,,,,,,,,,,,,,,,,,,,,,,,,,,,,,,,,,,,,,,,,,,,,,,,,,,,,,,,,,,,,,,,,,,,,,1.9028,494.0873274,None,space,1,494.0873274,None,0.3358152,P043,FENCOG,2,Post,2022_May_19_1210,N-Back (New Version 2021),2021.1.4,120.0357707
,,,,Conditions/Version_1/oneback(2)_v1.xlsx,New rule: Press 'space' when you see 1-back (i.e. the same letter as the one that appeared 1 letter ago.),P,None,,,,,,,,,0,4,4,4,0,2,2,2,,,,,,,,,,,,,,,,,,,,,,,,,,,,,,,,,,,,,,,,,,,,,,,,,,,,,,,,,,,,,,,,,,,,,1.475,497.5682154,None,None,1,497.5682154,None,,P043,FENCOG,2,Post,2022_May_19_1210,N-Back (New Version 2021),2021.1.4,120.0357707
,,,,Conditions/Version_1/oneback(2)_v1.xlsx,New rule: Press 'space' when you see 1-back (i.e. the same letter as the one that appeared 1 letter ago.),o,None,,,,,,,,,0,4,4,4,0,3,3,3,,,,,,,,,,,,,,,,,,,,,,,,,,,,,,,,,,,,,,,,,,,,,,,,,,,,,,,,,,,,,,,,,,,,,1.7416,501.313207,None,None,1,501.313207,None,,P043,FENCOG,2,Post,2022_May_19_1210,N-Back (New Version 2021),2021.1.4,120.0357707
,,,,Conditions/Version_1/oneback(2)_v1.xlsx,New rule: Press 'space' when you see 1-back (i.e. the same letter as the one that appeared 1 letter ago.),m,None,,,,,,,,,0,4,4,4,0,4,4,4,,,,,,,,,,,,,,,,,,,,,,,,,,,,,,,,,,,,,,,,,,,,,,,,,,,,,,,,,,,,,,,,,,,,,1.7664,505.0923277,None,None,1,505.0923277,None,,P043,FENCOG,2,Post,2022_May_19_1210,N-Back (New Version 2021),2021.1.4,120.0357707
,,,,Conditions/Version_1/oneback(2)_v1.xlsx,New rule: Press 'space' when you see 1-back (i.e. the same letter as the one that appeared 1 letter ago.),Z,None,,,,,,,,,0,4,4,4,0,5,5,5,,,,,,,,,,,,,,,,,,,,,,,,,,,,,,,,,,,,,,,,,,,,,,,,,,,,,,,,,,,,,,,,,,,,,1.7974,508.8963321,None,None,1,508.8963321,None,,P043,FENCOG,2,Post,2022_May_19_1210,N-Back (New Version 2021),2021.1.4,120.0357707
,,,,Conditions/Version_1/oneback(2)_v1.xlsx,New rule: Press 'space' when you see 1-back (i.e. the same letter as the one that appeared 1 letter ago.),c,None,,,,,,,,,0,4,4,4,0,6,6,6,,,,,,,,,,,,,,,,,,,,,,,,,,,,,,,,,,,,,,,,,,,,,,,,,,,,,,,,,,,,,,,,,,,,,1.9462,512.8610448,None,None,1,512.8610448,None,,P043,FENCOG,2,Post,2022_May_19_1210,N-Back (New Version 2021),2021.1.4,120.0357707
,,,,Conditions/Version_1/oneback(2)_v1.xlsx,New rule: Press 'space' when you see 1-back (i.e. the same letter as the one that appeared 1 letter ago.),c,space,,,,,,,,,0,4,4,4,0,7,7,7,,,,,,,,,,,,,,,,,,,,,,,,,,,,,,,,,,,,,,,,,,,,,,,,,,,,,,,,,,,,,,,,,,,,,1.2084,516.0753439,None,space,1,516.0753439,None,0.7159685,P043,FENCOG,2,Post,2022_May_19_1210,N-Back (New Version 2021),2021.1.4,120.0357707
,,,,Conditions/Version_1/oneback(2)_v1.xlsx,New rule: Press 'space' when you see 1-back (i.e. the same letter as the one that appeared 1 letter ago.),P,None,,,,,,,,,0,4,4,4,0,8,8,8,,,,,,,,,,,,,,,,,,,,,,,,,,,,,,,,,,,,,,,,,,,,,,,,,,,,,,,,,,,,,,,,,,,,,1.8222,519.9127777,None,None,1,519.9127777,None,,P043,FENCOG,2,Post,2022_May_19_1210,N-Back (New Version 2021),2021.1.4,120.0357707
,,,,Conditions/Version_1/oneback(2)_v1.xlsx,New rule: Press 'space' when you see 1-back (i.e. the same letter as the one that appeared 1 letter ago.),p,space,,,,,,,,,0,4,4,4,0,9,9,9,,,,,,,,,,,,,,,,,,,,,,,,,,,,,,,,,,,,,,,,,,,,,,,,,,,,,,,,,,,,,,,,,,,,,1.2518,523.1776462,None,space,1,523.1776462,None,0.4374626,P043,FENCOG,2,Post,2022_May_19_1210,N-Back (New Version 2021),2021.1.4,120.0357707
,,,,Conditions/Version_1/oneback(2)_v1.xlsx,New rule: Press 'space' when you see 1-back (i.e. the same letter as the one that appeared 1 letter ago.),,,,,,,,,,,0,4,4,4,,,,,,,,,,,,,,,,,,,,,,,,,,,,,,,,,,,,,,,,,,,,,,,,,,,,,,,,,,,,,,,,,,,,,,,,,,,,,,,,,P043,FENCOG,2,Post,2022_May_19_1210,N-Back (New Version 2021),2021.1.4,120.0357707
,,,,Conditions/Version_1/zeroback(2)_v1.xlsx,New rule: Press 'space' when you see the letter 'x' or 'X'.,p,None,,,,,,,,,0,5,5,5,0,0,0,0,,,,,,,,,,,,,,,,,,,,,,,,,,,,,,,,,,,,,,,,,,,,,,,,,,,,,,,,,,,525.2154375,None,528.2012997,None,space,1.1976787,528.2012997,None,525.2154375,None,1.32,530.7619715,None,None,1,530.7619715,None,,P043,FENCOG,2,Post,2022_May_19_1210,N-Back (New Version 2021),2021.1.4,120.0357707
,,,,Conditions/Version_1/zeroback(2)_v1.xlsx,New rule: Press 'space' when you see the letter 'x' or 'X'.,L,None,,,,,,,,,0,5,5,5,0,1,1,1,,,,,,,,,,,,,,,,,,,,,,,,,,,,,,,,,,,,,,,,,,,,,,,,,,,,,,,,,,,,,,,,,,,,,1.5494,534.3285607,None,None,1,534.3285607,None,,P043,FENCOG,2,Post,2022_May_19_1210,N-Back (New Version 2021),2021.1.4,120.0357707
,,,,Conditions/Version_1/zeroback(2)_v1.xlsx,New rule: Press 'space' when you see the letter 'x' or 'X'.,G,None,,,,,,,,,0,5,5,5,0,2,2,2,,,,,,,,,,,,,,,,,,,,,,,,,,,,,,,,,,,,,,,,,,,,,,,,,,,,,,,,,,,,,,,,,,,,,1.9772,538.3186198,None,None,1,538.3186198,None,,P043,FENCOG,2,Post,2022_May_19_1210,N-Back (New Version 2021),2021.1.4,120.0357707
,,,,Conditions/Version_1/zeroback(2)_v1.xlsx,New rule: Press 'space' when you see the letter 'x' or 'X'.,y,None,,,,,,,,,0,5,5,5,0,3,3,3,,,,,,,,,,,,,,,,,,,,,,,,,,,,,,,,,,,,,,,,,,,,,,,,,,,,,,,,,,,,,,,,,,,,,1.7168,542.0396392,None,None,1,542.0396392,None,,P043,FENCOG,2,Post,2022_May_19_1210,N-Back (New Version 2021),2021.1.4,120.0357707
,,,,Conditions/Version_1/zeroback(2)_v1.xlsx,New rule: Press 'space' when you see the letter 'x' or 'X'.,Y,None,,,,,,,,,0,5,5,5,0,4,4,4,,,,,,,,,,,,,,,,,,,,,,,,,,,,,,,,,,,,,,,,,,,,,,,,,,,,,,,,,,,,,,,,,,,,,1.8532,545.9037232,None,None,1,545.9037232,None,,P043,FENCOG,2,Post,2022_May_19_1210,N-Back (New Version 2021),2021.1.4,120.0357707
,,,,Conditions/Version_1/zeroback(2)_v1.xlsx,New rule: Press 'space' when you see the letter 'x' or 'X'.,W,None,,,,,,,,,0,5,5,5,0,5,5,5,,,,,,,,,,,,,,,,,,,,,,,,,,,,,,,,,,,,,,,,,,,,,,,,,,,,,,,,,,,,,,,,,,,,,1.4998,549.412281,None,None,1,549.412281,None,,P043,FENCOG,2,Post,2022_May_19_1210,N-Back (New Version 2021),2021.1.4,120.0357707
,,,,Conditions/Version_1/zeroback(2)_v1.xlsx,New rule: Press 'space' when you see the letter 'x' or 'X'.,x,space,,,,,,,,,0,5,5,5,0,6,6,6,,,,,,,,,,,,,,,,,,,,,,,,,,,,,,,,,,,,,,,,,,,,,,,,,,,,,,,,,,,,,,,,,,,,,1.475,552.9031506,None,space,1,552.9031506,None,0.5201608,P043,FENCOG,2,Post,2022_May_19_1210,N-Back (New Version 2021),2021.1.4,120.0357707
,,,,Conditions/Version_1/zeroback(2)_v1.xlsx,New rule: Press 'space' when you see the letter 'x' or 'X'.,X,space,,,,,,,,,0,5,5,5,0,7,7,7,,,,,,,,,,,,,,,,,,,,,,,,,,,,,,,,,,,,,,,,,,,,,,,,,,,,,,,,,,,,,,,,,,,,,1.9028,556.8197128,None,space,1,556.8197128,None,0.387358,P043,FENCOG,2,Post,2022_May_19_1210,N-Back (New Version 2021),2021.1.4,120.0357707
,,,,Conditions/Version_1/zeroback(2)_v1.xlsx,New rule: Press 'space' when you see the letter 'x' or 'X'.,p,None,,,,,,,,,0,5,5,5,0,8,8,8,,,,,,,,,,,,,,,,,,,,,,,,,,,,,,,,,,,,,,,,,,,,,,,,,,,,,,,,,,,,,,,,,,,,,1.4688,560.2998194,None,None,1,560.2998194,None,,P043,FENCOG,2,Post,2022_May_19_1210,N-Back (New Version 2021),2021.1.4,120.0357707
,,,,Conditions/Version_1/zeroback(2)_v1.xlsx,New rule: Press 'space' when you see the letter 'x' or 'X'.,h,None,,,,,,,,,0,5,5,5,0,9,9,9,,,,,,,,,,,,,,,,,,,,,,,,,,,,,,,,,,,,,,,,,,,,,,,,,,,,,,,,,,,,,,,,,,,,,1.4068,563.7156138,None,None,1,563.7156138,None,,P043,FENCOG,2,Post,2022_May_19_1210,N-Back (New Version 2021),2021.1.4,120.0357707
,,,,Conditions/Version_1/zeroback(2)_v1.xlsx,New rule: Press 'space' when you see the letter 'x' or 'X'.,,,,,,,,,,,0,5,5,5,,,,,,,,,,,,,,,,,,,,,,,,,,,,,,,,,,,,,,,,,,,,,,,,,,,,,,,,,,,,,,,,,,,,,,,,,,,,,,,,,P043,FENCOG,2,Post,2022_May_19_1210,N-Back (New Version 2021),2021.1.4,120.0357707
,,,,Conditions/Version_1/threeback(2)_v1.xlsx,New rule: Press 'space' when you see 3-back (i.e. the same letter as the one that appeared 3 letters ago.),q,None,,,,,,,,,0,6,6,6,0,0,0,0,,,,,,,,,,,,,,,,,,,,,,,,,,,,,,,,,,,,,,,,,,,,,,,,,,,,,,,,,,,565.7604203,None,568.7489097,None,space,0.7060122,568.7489097,None,565.7604203,None,1.3944,570.8966227,None,None,1,570.8966227,None,,P043,FENCOG,2,Post,2022_May_19_1210,N-Back (New Version 2021),2021.1.4,120.0357707
,,,,Conditions/Version_1/threeback(2)_v1.xlsx,New rule: Press 'space' when you see 3-back (i.e. the same letter as the one that appeared 3 letters ago.),Y,None,,,,,,,,,0,6,6,6,0,1,1,1,,,,,,,,,,,,,,,,,,,,,,,,,,,,,,,,,,,,,,,,,,,,,,,,,,,,,,,,,,,,,,,,,,,,,1.444,574.353545,None,None,1,574.353545,None,,P043,FENCOG,2,Post,2022_May_19_1210,N-Back (New Version 2021),2021.1.4,120.0357707
,,,,Conditions/Version_1/threeback(2)_v1.xlsx,New rule: Press 'space' when you see 3-back (i.e. the same letter as the one that appeared 3 letters ago.),p,None,,,,,,,,,0,6,6,6,0,2,2,2,,,,,,,,,,,,,,,,,,,,,,,,,,,,,,,,,,,,,,,,,,,,,,,,,,,,,,,,,,,,,,,,,,,,,1.7044,578.0795129,None,None,1,578.0795129,None,,P043,FENCOG,2,Post,2022_May_19_1210,N-Back (New Version 2021),2021.1.4,120.0357707
,,,,Conditions/Version_1/threeback(2)_v1.xlsx,New rule: Press 'space' when you see 3-back (i.e. the same letter as the one that appeared 3 letters ago.),p,None,,,,,,,,,0,6,6,6,0,3,3,3,,,,,,,,,,,,,,,,,,,,,,,,,,,,,,,,,,,,,,,,,,,,,,,,,,,,,,,,,,,,,,,,,,,,,1.2084,581.297521,None,None,1,581.297521,None,,P043,FENCOG,2,Post,2022_May_19_1210,N-Back (New Version 2021),2021.1.4,120.0357707
,,,,Conditions/Version_1/threeback(2)_v1.xlsx,New rule: Press 'space' when you see 3-back (i.e. the same letter as the one that appeared 3 letters ago.),y,space,,,,,,,,,0,6,6,6,0,4,4,4,,,,,,,,,,,,,,,,,,,,,,,,,,,,,,,,,,,,,,,,,,,,,,,,,,,,,,,,,,,,,,,,,,,,,1.9524,585.2587275,None,space,1,585.2587275,None,0.4122709,P043,FENCOG,2,Post,2022_May_19_1210,N-Back (New Version 2021),2021.1.4,120.0357707
,,,,Conditions/Version_1/threeback(2)_v1.xlsx,New rule: Press 'space' when you see 3-back (i.e. the same letter as the one that appeared 3 letters ago.),u,None,,,,,,,,,0,6,6,6,0,5,5,5,,,,,,,,,,,,,,,,,,,,,,,,,,,,,,,,,,,,,,,,,,,,,,,,,,,,,,,,,,,,,,,,,,,,,1.5122,588.782839,None,None,1,588.782839,None,,P043,FENCOG,2,Post,2022_May_19_1210,N-Back (New Version 2021),2021.1.4,120.0357707
,,,,Conditions/Version_1/threeback(2)_v1.xlsx,New rule: Press 'space' when you see 3-back (i.e. the same letter as the one that appeared 3 letters ago.),P,space,,,,,,,,,0,6,6,6,0,6,6,6,,,,,,,,,,,,,,,,,,,,,,,,,,,,,,,,,,,,,,,,,,,,,,,,,,,,,,,,,,,,,,,,,,,,,1.0596,591.8456413,None,space,1,591.8456413,None,0.4014755,P043,FENCOG,2,Post,2022_May_19_1210,N-Back (New Version 2021),2021.1.4,120.0357707
,,,,Conditions/Version_1/threeback(2)_v1.xlsx,New rule: Press 'space' when you see 3-back (i.e. the same letter as the one that appeared 3 letters ago.),a,None,,,,,,,,,0,6,6,6,0,7,7,7,,,,,,,,,,,,,,,,,,,,,,,,,,,,,,,,,,,,,,,,,,,,,,,,,,,,,,,,,,,,,,,,,,,,,1.32,595.1775071,None,None,1,595.1775071,None,,P043,FENCOG,2,Post,2022_May_19_1210,N-Back (New Version 2021),2021.1.4,120.0357707
,,,,Conditions/Version_1/threeback(2)_v1.xlsx,New rule: Press 'space' when you see 3-back (i.e. the same letter as the one that appeared 3 letters ago.),U,space,,,,,,,,,0,6,6,6,0,8,8,8,,,,,,,,,,,,,,,,,,,,,,,,,,,,,,,,,,,,,,,,,,,,,,,,,,,,,,,,,,,,,,,,,,,,,1.2642,598.4627357,None,space,1,598.4627357,None,0.4400364,P043,FENCOG,2,Post,2022_May_19_1210,N-Back (New Version 2021),2021.1.4,120.0357707
,,,,Conditions/Version_1/threeback(2)_v1.xlsx,New rule: Press 'space' when you see 3-back (i.e. the same letter as the one that appeared 3 letters ago.),q,None,,,,,,,,,0,6,6,6,0,9,9,9,,,,,,,,,,,,,,,,,,,,,,,,,,,,,,,,,,,,,,,,,,,,,,,,,,,,,,,,,,,,,,,,,,,,,1.041,601.5077506,None,None,1,601.5077506,None,,P043,FENCOG,2,Post,2022_May_19_1210,N-Back (New Version 2021),2021.1.4,120.0357707
,,,,Conditions/Version_1/threeback(2)_v1.xlsx,New rule: Press 'space' when you see 3-back (i.e. the same letter as the one that appeared 3 letters ago.),,,,,,,,,,,0,6,6,6,,,,,,,,,,,,,,,,,,,,,,,,,,,,,,,,,,,,,,,,,,,,,,,,,,,,,,,,,,,,,,,,,,,,,,,,,,,,,,,,,P043,FENCOG,2,Post,2022_May_19_1210,N-Back (New Version 2021),2021.1.4,120.0357707
,,,,Conditions/Version_1/twoback(2)_v1.xlsx,New rule: Press 'space' when you see 2-back (i.e. the same letter as the one that appeared 2 letters ago.),q,None,,,,,,,,,0,7,7,7,0,0,0,0,,,,,,,,,,,,,,,,,,,,,,,,,,,,,,,,,,,,,,,,,,,,,,,,,,,,,,,,,,,603.5325853,None,606.5159892,None,space,0.8829634,606.5159892,None,603.5325853,None,1.94,609.3730153,None,None,1,609.3730153,None,,P043,FENCOG,2,Post,2022_May_19_1210,N-Back (New Version 2021),2021.1.4,120.0357707
,,,,Conditions/Version_1/twoback(2)_v1.xlsx,New rule: Press 'space' when you see 2-back (i.e. the same letter as the one that appeared 2 letters ago.),r,None,,,,,,,,,0,7,7,7,0,1,1,1,,,,,,,,,,,,,,,,,,,,,,,,,,,,,,,,,,,,,,,,,,,,,,,,,,,,,,,,,,,,,,,,,,,,,1.5308,612.9192695,None,None,1,612.9192695,None,,P043,FENCOG,2,Post,2022_May_19_1210,N-Back (New Version 2021),2021.1.4,120.0357707
,,,,Conditions/Version_1/twoback(2)_v1.xlsx,New rule: Press 'space' when you see 2-back (i.e. the same letter as the one that appeared 2 letters ago.),q,space,,,,,,,,,0,7,7,7,0,2,2,2,,,,,,,,,,,,,,,,,,,,,,,,,,,,,,,,,,,,,,,,,,,,,,,,,,,,,,,,,,,,,,,,,,,,,1.8718,616.80257,None,space,1,616.80257,None,0.5327627,P043,FENCOG,2,Post,2022_May_19_1210,N-Back (New Version 2021),2021.1.4,120.0357707
,,,,Conditions/Version_1/twoback(2)_v1.xlsx,New rule: Press 'space' when you see 2-back (i.e. the same letter as the one that appeared 2 letters ago.),P,None,,,,,,,,,0,7,7,7,0,3,3,3,,,,,,,,,,,,,,,,,,,,,,,,,,,,,,,,,,,,,,,,,,,,,,,,,,,,,,,,,,,,,,,,,,,,,1.041,619.8573665,None,None,1,619.8573665,None,,P043,FENCOG,2,Post,2022_May_19_1210,N-Back (New Version 2021),2021.1.4,120.0357707
,,,,Conditions/Version_1/twoback(2)_v1.xlsx,New rule: Press 'space' when you see 2-back (i.e. the same letter as the one that appeared 2 letters ago.),p,None,,,,,,,,,0,7,7,7,0,4,4,4,,,,,,,,,,,,,,,,,,,,,,,,,,,,,,,,,,,,,,,,,,,,,,,,,,,,,,,,,,,,,,,,,,,,,1.0286,622.8975653,None,None,1,622.8975653,None,,P043,FENCOG,2,Post,2022_May_19_1210,N-Back (New Version 2021),2021.1.4,120.0357707
,,,,Conditions/Version_1/twoback(2)_v1.xlsx,New rule: Press 'space' when you see 2-back (i.e. the same letter as the one that appeared 2 letters ago.),H,None,,,,,,,,,0,7,7,7,0,5,5,5,,,,,,,,,,,,,,,,,,,,,,,,,,,,,,,,,,,,,,,,,,,,,,,,,,,,,,,,,,,,,,,,,,,,,1.9524,626.863122,None,None,1,626.863122,None,,P043,FENCOG,2,Post,2022_May_19_1210,N-Back (New Version 2021),2021.1.4,120.0357707
,,,,Conditions/Version_1/twoback(2)_v1.xlsx,New rule: Press 'space' when you see 2-back (i.e. the same letter as the one that appeared 2 letters ago.),g,None,,,,,,,,,0,7,7,7,0,6,6,6,,,,,,,,,,,,,,,,,,,,,,,,,,,,,,,,,,,,,,,,,,,,,,,,,,,,,,,,,,,,,,,,,,,,,1.661,630.5405455,None,None,1,630.5405455,None,,P043,FENCOG,2,Post,2022_May_19_1210,N-Back (New Version 2021),2021.1.4,120.0357707
,,,,Conditions/Version_1/twoback(2)_v1.xlsx,New rule: Press 'space' when you see 2-back (i.e. the same letter as the one that appeared 2 letters ago.),j,None,,,,,,,,,0,7,7,7,0,7,7,7,,,,,,,,,,,,,,,,,,,,,,,,,,,,,,,,,,,,,,,,,,,,,,,,,,,,,,,,,,,,,,,,,,,,,1.4874,634.038045,None,None,1,634.038045,None,,P043,FENCOG,2,Post,2022_May_19_1210,N-Back (New Version 2021),2021.1.4,120.0357707
,,,,Conditions/Version_1/twoback(2)_v1.xlsx,New rule: Press 'space' when you see 2-back (i.e. the same letter as the one that appeared 2 letters ago.),g,space,,,,,,,,,0,7,7,7,0,8,8,8,,,,,,,,,,,,,,,,,,,,,,,,,,,,,,,,,,,,,,,,,,,,,,,,,,,,,,,,,,,,,,,,,,,,,1.1526,637.2051905,None,space,1,637.2051905,None,0.4901585,P043,FENCOG,2,Post,2022_May_19_1210,N-Back (New Version 2021),2021.1.4,120.0357707
,,,,Conditions/Version_1/twoback(2)_v1.xlsx,New rule: Press 'space' when you see 2-back (i.e. the same letter as the one that appeared 2 letters ago.),G,None,,,,,,,,,0,7,7,7,0,9,9,9,,,,,,,,,,,,,,,,,,,,,,,,,,,,,,,,,,,,,,,,,,,,,,,,,,,,,,,,,,,,,,,,,,,,,1.1278,640.3425205,None,None,1,640.3425205,None,,P043,FENCOG,2,Post,2022_May_19_1210,N-Back (New Version 2021),2021.1.4,120.0357707
,,,,Conditions/Version_1/twoback(2)_v1.xlsx,New rule: Press 'space' when you see 2-back (i.e. the same letter as the one that appeared 2 letters ago.),,,,,,,,,,,0,7,7,7,,,,,,,,,,,,,,,,,,,,,,,,,,,,,,,,,,,,,,,,,,,,,,,,,,,,,,,,,,,,,,,,,,,,,,,,,,,,,,,,,P043,FENCOG,2,Post,2022_May_19_1210,N-Back (New Version 2021),2021.1.4,120.0357707
,,,,Conditions/Version_1/threeback(3)_v1.xlsx,New rule: Press 'space' when you see 3-back (i.e. the same letter as the one that appeared 3 letters ago.),w,None,,,,,,,,,0,8,8,8,0,0,0,0,,,,,,,,,,,,,,,,,,,,,,,,,,,,,,,,,,,,,,,,,,,,,,,,,,,,,,,,,,,642.3854648,None,645.3674129,None,space,1.039399,645.3674129,None,642.3854648,None,1.041,647.4901033,None,None,1,647.4901033,None,,P043,FENCOG,2,Post,2022_May_19_1210,N-Back (New Version 2021),2021.1.4,120.0357707
,,,,Conditions/Version_1/threeback(3)_v1.xlsx,New rule: Press 'space' when you see 3-back (i.e. the same letter as the one that appeared 3 letters ago.),p,None,,,,,,,,,0,8,8,8,0,1,1,1,,,,,,,,,,,,,,,,,,,,,,,,,,,,,,,,,,,,,,,,,,,,,,,,,,,,,,,,,,,,,,,,,,,,,1.3138,650.8139153,None,None,1,650.8139153,None,,P043,FENCOG,2,Post,2022_May_19_1210,N-Back (New Version 2021),2021.1.4,120.0357707
,,,,Conditions/Version_1/threeback(3)_v1.xlsx,New rule: Press 'space' when you see 3-back (i.e. the same letter as the one that appeared 3 letters ago.),P,None,,,,,,,,,0,8,8,8,0,2,2,2,,,,,,,,,,,,,,,,,,,,,,,,,,,,,,,,,,,,,,,,,,,,,,,,,,,,,,,,,,,,,,,,,,,,,1.5804,654.4052875,None,None,1,654.4052875,None,,P043,FENCOG,2,Post,2022_May_19_1210,N-Back (New Version 2021),2021.1.4,120.0357707
,,,,Conditions/Version_1/threeback(3)_v1.xlsx,New rule: Press 'space' when you see 3-back (i.e. the same letter as the one that appeared 3 letters ago.),i,None,,,,,,,,,0,8,8,8,0,3,3,3,,,,,,,,,,,,,,,,,,,,,,,,,,,,,,,,,,,,,,,,,,,,,,,,,,,,,,,,,,,,,,,,,,,,,1.0596,657.4791324,None,None,1,657.4791324,None,,P043,FENCOG,2,Post,2022_May_19_1210,N-Back (New Version 2021),2021.1.4,120.0357707
,,,,Conditions/Version_1/threeback(3)_v1.xlsx,New rule: Press 'space' when you see 3-back (i.e. the same letter as the one that appeared 3 letters ago.),f,None,,,,,,,,,0,8,8,8,0,4,4,4,,,,,,,,,,,,,,,,,,,,,,,,,,,,,,,,,,,,,,,,,,,,,,,,,,,,,,,,,,,,,,,,,,,,,1.878,661.3696008,None,None,1,661.3696008,None,,P043,FENCOG,2,Post,2022_May_19_1210,N-Back (New Version 2021),2021.1.4,120.0357707
,,,,Conditions/Version_1/threeback(3)_v1.xlsx,New rule: Press 'space' when you see 3-back (i.e. the same letter as the one that appeared 3 letters ago.),o,None,,,,,,,,,0,8,8,8,0,5,5,5,,,,,,,,,,,,,,,,,,,,,,,,,,,,,,,,,,,,,,,,,,,,,,,,,,,,,,,,,,,,,,,,,,,,,1.4874,664.8640485,None,None,1,664.8640485,None,,P043,FENCOG,2,Post,2022_May_19_1210,N-Back (New Version 2021),2021.1.4,120.0357707
,,,,Conditions/Version_1/threeback(3)_v1.xlsx,New rule: Press 'space' when you see 3-back (i.e. the same letter as the one that appeared 3 letters ago.),w,None,,,,,,,,,0,8,8,8,0,6,6,6,,,,,,,,,,,,,,,,,,,,,,,,,,,,,,,,,,,,,,,,,,,,,,,,,,,,,,,,,,,,,,,,,,,,,1.94,668.8170782,None,None,1,668.8170782,None,,P043,FENCOG,2,Post,2022_May_19_1210,N-Back (New Version 2021),2021.1.4,120.0357707
,,,,Conditions/Version_1/threeback(3)_v1.xlsx,New rule: Press 'space' when you see 3-back (i.e. the same letter as the one that appeared 3 letters ago.),F,space,,,,,,,,,0,8,8,8,0,7,7,7,,,,,,,,,,,,,,,,,,,,,,,,,,,,,,,,,,,,,,,,,,,,,,,,,,,,,,,,,,,,,,,,,,,,,1.3076,672.1332193,None,space,1,672.1332193,None,0.4100503,P043,FENCOG,2,Post,2022_May_19_1210,N-Back (New Version 2021),2021.1.4,120.0357707
,,,,Conditions/Version_1/threeback(3)_v1.xlsx,New rule: Press 'space' when you see 3-back (i.e. the same letter as the one that appeared 3 letters ago.),p,None,,,,,,,,,0,8,8,8,0,8,8,8,,,,,,,,,,,,,,,,,,,,,,,,,,,,,,,,,,,,,,,,,,,,,,,,,,,,,,,,,,,,,,,,,,,,,1.0472,675.1988105,None,None,1,675.1988105,None,,P043,FENCOG,2,Post,2022_May_19_1210,N-Back (New Version 2021),2021.1.4,120.0357707
,,,,Conditions/Version_1/threeback(3)_v1.xlsx,New rule: Press 'space' when you see 3-back (i.e. the same letter as the one that appeared 3 letters ago.),W,space,,,,,,,,,0,8,8,8,0,9,9,9,,,,,,,,,,,,,,,,,,,,,,,,,,,,,,,,,,,,,,,,,,,,,,,,,,,,,,,,,,,,,,,,,,,,,1.5494,678.7645104,None,space,1,678.7645104,None,0.4987062,P043,FENCOG,2,Post,2022_May_19_1210,N-Back (New Version 2021),2021.1.4,120.0357707
,,,,Conditions/Version_1/threeback(3)_v1.xlsx,New rule: Press 'space' when you see 3-back (i.e. the same letter as the one that appeared 3 letters ago.),,,,,,,,,,,0,8,8,8,,,,,,,,,,,,,,,,,,,,,,,,,,,,,,,,,,,,,,,,,,,,,,,,,,,,,,,,,,,,,,,,,,,,,,,,,,,,,,,,,P043,FENCOG,2,Post,2022_May_19_1210,N-Back (New Version 2021),2021.1.4,120.0357707
,,,,Conditions/Version_1/zeroback(3)_v1.xlsx,New rule: Press 'space' when you see the letter 'x' or 'X'.,X,space,,,,,,,,,0,9,9,9,0,0,0,0,,,,,,,,,,,,,,,,,,,,,,,,,,,,,,,,,,,,,,,,,,,,,,,,,,,,,,,,,,,680.8029223,None,683.7881856,None,space,0.6825256,683.7881856,None,680.8029223,None,1.1154,685.6292057,None,space,1,685.6292057,None,0.4899782,P043,FENCOG,2,Post,2022_May_19_1210,N-Back (New Version 2021),2021.1.4,120.0357707
,,,,Conditions/Version_1/zeroback(3)_v1.xlsx,New rule: Press 'space' when you see the letter 'x' or 'X'.,B,None,,,,,,,,,0,9,9,9,0,1,1,1,,,,,,,,,,,,,,,,,,,,,,,,,,,,,,,,,,,,,,,,,,,,,,,,,,,,,,,,,,,,,,,,,,,,,1.754,689.3904441,None,None,1,689.3904441,None,,P043,FENCOG,2,Post,2022_May_19_1210,N-Back (New Version 2021),2021.1.4,120.0357707
,,,,Conditions/Version_1/zeroback(3)_v1.xlsx,New rule: Press 'space' when you see the letter 'x' or 'X'.,m,None,,,,,,,,,0,9,9,9,0,2,2,2,,,,,,,,,,,,,,,,,,,,,,,,,,,,,,,,,,,,,,,,,,,,,,,,,,,,,,,,,,,,,,,,,,,,,1.8098,693.2063919,None,None,1,693.2063919,None,,P043,FENCOG,2,Post,2022_May_19_1210,N-Back (New Version 2021),2021.1.4,120.0357707
,,,,Conditions/Version_1/zeroback(3)_v1.xlsx,New rule: Press 'space' when you see the letter 'x' or 'X'.,m,None,,,,,,,,,0,9,9,9,0,3,3,3,,,,,,,,,,,,,,,,,,,,,,,,,,,,,,,,,,,,,,,,,,,,,,,,,,,,,,,,,,,,,,,,,,,,,1.4998,696.7227749,None,None,1,696.7227749,None,,P043,FENCOG,2,Post,2022_May_19_1210,N-Back (New Version 2021),2021.1.4,120.0357707
,,,,Conditions/Version_1/zeroback(3)_v1.xlsx,New rule: Press 'space' when you see the letter 'x' or 'X'.,o,None,,,,,,,,,0,9,9,9,0,4,4,4,,,,,,,,,,,,,,,,,,,,,,,,,,,,,,,,,,,,,,,,,,,,,,,,,,,,,,,,,,,,,,,,,,,,,1.5742,700.3099671,None,None,1,700.3099671,None,,P043,FENCOG,2,Post,2022_May_19_1210,N-Back (New Version 2021),2021.1.4,120.0357707
,,,,Conditions/Version_1/zeroback(3)_v1.xlsx,New rule: Press 'space' when you see the letter 'x' or 'X'.,p,None,,,,,,,,,0,9,9,9,0,5,5,5,,,,,,,,,,,,,,,,,,,,,,,,,,,,,,,,,,,,,,,,,,,,,,,,,,,,,,,,,,,,,,,,,,,,,1.1898,703.5168128,None,None,1,703.5168128,None,,P043,FENCOG,2,Post,2022_May_19_1210,N-Back (New Version 2021),2021.1.4,120.0357707
,,,,Conditions/Version_1/zeroback(3)_v1.xlsx,New rule: Press 'space' when you see the letter 'x' or 'X'.,G,None,,,,,,,,,0,9,9,9,0,6,6,6,,,,,,,,,,,,,,,,,,,,,,,,,,,,,,,,,,,,,,,,,,,,,,,,,,,,,,,,,,,,,,,,,,,,,1.01,706.5407535,None,None,1,706.5407535,None,,P043,FENCOG,2,Post,2022_May_19_1210,N-Back (New Version 2021),2021.1.4,120.0357707
,,,,Conditions/Version_1/zeroback(3)_v1.xlsx,New rule: Press 'space' when you see the letter 'x' or 'X'.,X,space,,,,,,,,,0,9,9,9,0,7,7,7,,,,,,,,,,,,,,,,,,,,,,,,,,,,,,,,,,,,,,,,,,,,,,,,,,,,,,,,,,,,,,,,,,,,,1.1712,709.7241412,None,space,1,709.7241412,None,0.3070125,P043,FENCOG,2,Post,2022_May_19_1210,N-Back (New Version 2021),2021.1.4,120.0357707
,,,,Conditions/Version_1/zeroback(3)_v1.xlsx,New rule: Press 'space' when you see the letter 'x' or 'X'.,p,None,,,,,,,,,0,9,9,9,0,8,8,8,,,,,,,,,,,,,,,,,,,,,,,,,,,,,,,,,,,,,,,,,,,,,,,,,,,,,,,,,,,,,,,,,,,,,1.5432,713.2814312,None,None,1,713.2814312,None,,P043,FENCOG,2,Post,2022_May_19_1210,N-Back (New Version 2021),2021.1.4,120.0357707
,,,,Conditions/Version_1/zeroback(3)_v1.xlsx,New rule: Press 'space' when you see the letter 'x' or 'X'.,x,space,,,,,,,,,0,9,9,9,0,9,9,9,,,,,,,,,,,,,,,,,,,,,,,,,,,,,,,,,,,,,,,,,,,,,,,,,,,,,,,,,,,,,,,,,,,,,1.9276,717.219698,None,space,1,717.219698,None,0.379149,P043,FENCOG,2,Post,2022_May_19_1210,N-Back (New Version 2021),2021.1.4,120.0357707
,,,,Conditions/Version_1/zeroback(3)_v1.xlsx,New rule: Press 'space' when you see the letter 'x' or 'X'.,,,,,,,,,,,0,9,9,9,,,,,,,,,,,,,,,,,,,,,,,,,,,,,,,,,,,,,,,,,,,,,,,,,,,,,,,,,,,,,,,,,,,,,,,,,,,,,,,,,P043,FENCOG,2,Post,2022_May_19_1210,N-Back (New Version 2021),2021.1.4,120.0357707
,,,,Conditions/Version_1/twoback(3)_v1.xlsx,New rule: Press 'space' when you see 2-back (i.e. the same letter as the one that appeared 2 letters ago.),e,None,,,,,,,,,0,10,10,10,0,0,0,0,,,,,,,,,,,,,,,,,,,,,,,,,,,,,,,,,,,,,,,,,,,,,,,,,,,,,,,,,,,719.2582932,None,722.2350904,None,space,8.9315359,722.2350904,None,719.2582932,None,1.6424,732.850881,None,None,1,732.850881,None,,P043,FENCOG,2,Post,2022_May_19_1210,N-Back (New Version 2021),2021.1.4,120.0357707
,,,,Conditions/Version_1/twoback(3)_v1.xlsx,New rule: Press 'space' when you see 2-back (i.e. the same letter as the one that appeared 2 letters ago.),o,None,,,,,,,,,0,10,10,10,0,1,1,1,,,,,,,,,,,,,,,,,,,,,,,,,,,,,,,,,,,,,,,,,,,,,,,,,,,,,,,,,,,,,,,,,,,,,1.2394,736.1052586,None,None,1,736.1052586,None,,P043,FENCOG,2,Post,2022_May_19_1210,N-Back (New Version 2021),2021.1.4,120.0357707
,,,,Conditions/Version_1/twoback(3)_v1.xlsx,New rule: Press 'space' when you see 2-back (i.e. the same letter as the one that appeared 2 letters ago.),P,None,,,,,,,,,0,10,10,10,0,2,2,2,,,,,,,,,,,,,,,,,,,,,,,,,,,,,,,,,,,,,,,,,,,,,,,,,,,,,,,,,,,,,,,,,,,,,1.0906,739.2018283,None,None,1,739.2018283,None,,P043,FENCOG,2,Post,2022_May_19_1210,N-Back (New Version 2021),2021.1.4,120.0357707
,,,,Conditions/Version_1/twoback(3)_v1.xlsx,New rule: Press 'space' when you see 2-back (i.e. the same letter as the one that appeared 2 letters ago.),z,None,,,,,,,,,0,10,10,10,0,3,3,3,,,,,,,,,,,,,,,,,,,,,,,,,,,,,,,,,,,,,,,,,,,,,,,,,,,,,,,,,,,,,,,,,,,,,1.8718,743.0913915,None,None,1,743.0913915,None,,P043,FENCOG,2,Post,2022_May_19_1210,N-Back (New Version 2021),2021.1.4,120.0357707
,,,,Conditions/Version_1/twoback(3)_v1.xlsx,New rule: Press 'space' when you see 2-back (i.e. the same letter as the one that appeared 2 letters ago.),X,None,,,,,,,,,0,10,10,10,0,4,4,4,,,,,,,,,,,,,,,,,,,,,,,,,,,,,,,,,,,,,,,,,,,,,,,,,,,,,,,,,,,,,,,,,,,,,1.1712,746.2712103,None,None,1,746.2712103,None,,P043,FENCOG,2,Post,2022_May_19_1210,N-Back (New Version 2021),2021.1.4,120.0357707
,,,,Conditions/Version_1/twoback(3)_v1.xlsx,New rule: Press 'space' when you see 2-back (i.e. the same letter as the one that appeared 2 letters ago.),z,space,,,,,,,,,0,10,10,10,0,5,5,5,,,,,,,,,,,,,,,,,,,,,,,,,,,,,,,,,,,,,,,,,,,,,,,,,,,,,,,,,,,,,,,,,,,,,1.7354,750.0203989,None,None,0,750.0203989,None,,P043,FENCOG,2,Post,2022_May_19_1210,N-Back (New Version 2021),2021.1.4,120.0357707
,,,,Conditions/Version_1/twoback(3)_v1.xlsx,New rule: Press 'space' when you see 2-back (i.e. the same letter as the one that appeared 2 letters ago.),x,space,,,,,,,,,0,10,10,10,0,6,6,6,,,,,,,,,,,,,,,,,,,,,,,,,,,,,,,,,,,,,,,,,,,,,,,,,,,,,,,,,,,,,,,,,,,,,1.8966,753.9260609,None,space,1,753.9260609,None,0.6648963,P043,FENCOG,2,Post,2022_May_19_1210,N-Back (New Version 2021),2021.1.4,120.0357707
,,,,Conditions/Version_1/twoback(3)_v1.xlsx,New rule: Press 'space' when you see 2-back (i.e. the same letter as the one that appeared 2 letters ago.),c,None,,,,,,,,,0,10,10,10,0,7,7,7,,,,,,,,,,,,,,,,,,,,,,,,,,,,,,,,,,,,,,,,,,,,,,,,,,,,,,,,,,,,,,,,,,,,,1.4688,757.4084356,None,None,1,757.4084356,None,,P043,FENCOG,2,Post,2022_May_19_1210,N-Back (New Version 2021),2021.1.4,120.0357707
,,,,Conditions/Version_1/twoback(3)_v1.xlsx,New rule: Press 'space' when you see 2-back (i.e. the same letter as the one that appeared 2 letters ago.),i,None,,,,,,,,,0,10,10,10,0,8,8,8,,,,,,,,,,,,,,,,,,,,,,,,,,,,,,,,,,,,,,,,,,,,,,,,,,,,,,,,,,,,,,,,,,,,,1.2828,760.6988713,None,None,1,760.6988713,None,,P043,FENCOG,2,Post,2022_May_19_1210,N-Back (New Version 2021),2021.1.4,120.0357707
,,,,Conditions/Version_1/twoback(3)_v1.xlsx,New rule: Press 'space' when you see 2-back (i.e. the same letter as the one that appeared 2 letters ago.),C,space,,,,,,,,,0,10,10,10,0,9,9,9,,,,,,,,,,,,,,,,,,,,,,,,,,,,,,,,,,,,,,,,,,,,,,,,,,,,,,,,,,,,,,,,,,,,,1.2704,763.9838361,None,space,1,763.9838361,None,0.3432879,P043,FENCOG,2,Post,2022_May_19_1210,N-Back (New Version 2021),2021.1.4,120.0357707
,,,,Conditions/Version_1/twoback(3)_v1.xlsx,New rule: Press 'space' when you see 2-back (i.e. the same letter as the one that appeared 2 letters ago.),,,,,,,,,,,0,10,10,10,,,,,,,,,,,,,,,,,,,,,,,,,,,,,,,,,,,,,,,,,,,,,,,,,,,,,,,,,,,,,,,,,,,,,,,,,,,,,,,,,P043,FENCOG,2,Post,2022_May_19_1210,N-Back (New Version 2021),2021.1.4,120.0357707
,,,,Conditions/Version_1/oneback(3)_v1.xlsx,New rule: Press 'space' when you see 1-back (i.e. the same letter as the one that appeared 1 letter ago.),o,None,,,,,,,,,0,11,11,11,0,0,0,0,,,,,,,,,,,,,,,,,,,,,,,,,,,,,,,,,,,,,,,,,,,,,,,,,,,,,,,,,,,766.0239559,None,769.0134371,None,space,1.8012452,769.0134371,None,766.0239559,None,1.2952,772.1557813,None,None,1,772.1557813,None,,P043,FENCOG,2,Post,2022_May_19_1210,N-Back (New Version 2021),2021.1.4,120.0357707
,,,,Conditions/Version_1/oneback(3)_v1.xlsx,New rule: Press 'space' when you see 1-back (i.e. the same letter as the one that appeared 1 letter ago.),O,space,,,,,,,,,0,11,11,11,0,1,1,1,,,,,,,,,,,,,,,,,,,,,,,,,,,,,,,,,,,,,,,,,,,,,,,,,,,,,,,,,,,,,,,,,,,,,1.2518,775.4109612,None,space,1,775.4109612,None,0.4839051,P043,FENCOG,2,Post,2022_May_19_1210,N-Back (New Version 2021),2021.1.4,120.0357707
,,,,Conditions/Version_1/oneback(3)_v1.xlsx,New rule: Press 'space' when you see 1-back (i.e. the same letter as the one that appeared 1 letter ago.),h,None,,,,,,,,,0,11,11,11,0,2,2,2,,,,,,,,,,,,,,,,,,,,,,,,,,,,,,,,,,,,,,,,,,,,,,,,,,,,,,,,,,,,,,,,,,,,,1.2208,778.6412704,None,None,1,778.6412704,None,,P043,FENCOG,2,Post,2022_May_19_1210,N-Back (New Version 2021),2021.1.4,120.0357707
,,,,Conditions/Version_1/oneback(3)_v1.xlsx,New rule: Press 'space' when you see 1-back (i.e. the same letter as the one that appeared 1 letter ago.),g,None,,,,,,,,,0,11,11,11,0,3,3,3,,,,,,,,,,,,,,,,,,,,,,,,,,,,,,,,,,,,,,,,,,,,,,,,,,,,,,,,,,,,,,,,,,,,,1.9896,782.6509226,None,None,1,782.6509226,None,,P043,FENCOG,2,Post,2022_May_19_1210,N-Back (New Version 2021),2021.1.4,120.0357707
,,,,Conditions/Version_1/oneback(3)_v1.xlsx,New rule: Press 'space' when you see 1-back (i.e. the same letter as the one that appeared 1 letter ago.),n,None,,,,,,,,,0,11,11,11,0,4,4,4,,,,,,,,,,,,,,,,,,,,,,,,,,,,,,,,,,,,,,,,,,,,,,,,,,,,,,,,,,,,,,,,,,,,,1.3262,785.9852977,None,None,1,785.9852977,None,,P043,FENCOG,2,Post,2022_May_19_1210,N-Back (New Version 2021),2021.1.4,120.0357707
,,,,Conditions/Version_1/oneback(3)_v1.xlsx,New rule: Press 'space' when you see 1-back (i.e. the same letter as the one that appeared 1 letter ago.),z,None,,,,,,,,,0,11,11,11,0,5,5,5,,,,,,,,,,,,,,,,,,,,,,,,,,,,,,,,,,,,,,,,,,,,,,,,,,,,,,,,,,,,,,,,,,,,,1.4006,789.3925241,None,None,1,789.3925241,None,,P043,FENCOG,2,Post,2022_May_19_1210,N-Back (New Version 2021),2021.1.4,120.0357707
,,,,Conditions/Version_1/oneback(3)_v1.xlsx,New rule: Press 'space' when you see 1-back (i.e. the same letter as the one that appeared 1 letter ago.),X,None,,,,,,,,,0,11,11,11,0,6,6,6,,,,,,,,,,,,,,,,,,,,,,,,,,,,,,,,,,,,,,,,,,,,,,,,,,,,,,,,,,,,,,,,,,,,,1.9958,793.3987433,None,None,1,793.3987433,None,,P043,FENCOG,2,Post,2022_May_19_1210,N-Back (New Version 2021),2021.1.4,120.0357707
,,,,Conditions/Version_1/oneback(3)_v1.xlsx,New rule: Press 'space' when you see 1-back (i.e. the same letter as the one that appeared 1 letter ago.),r,None,,,,,,,,,0,11,11,11,0,7,7,7,,,,,,,,,,,,,,,,,,,,,,,,,,,,,,,,,,,,,,,,,,,,,,,,,,,,,,,,,,,,,,,,,,,,,1.6982,797.1059771,None,None,1,797.1059771,None,,P043,FENCOG,2,Post,2022_May_19_1210,N-Back (New Version 2021),2021.1.4,120.0357707
,,,,Conditions/Version_1/oneback(3)_v1.xlsx,New rule: Press 'space' when you see 1-back (i.e. the same letter as the one that appeared 1 letter ago.),r,space,,,,,,,,,0,11,11,11,0,8,8,8,,,,,,,,,,,,,,,,,,,,,,,,,,,,,,,,,,,,,,,,,,,,,,,,,,,,,,,,,,,,,,,,,,,,,1.5432,800.6497904,None,space,1,800.6497904,None,0.5494254,P043,FENCOG,2,Post,2022_May_19_1210,N-Back (New Version 2021),2021.1.4,120.0357707
,,,,Conditions/Version_1/oneback(3)_v1.xlsx,New rule: Press 'space' when you see 1-back (i.e. the same letter as the one that appeared 1 letter ago.),P,None,,,,,,,,,0,11,11,11,0,9,9,9,,,,,,,,,,,,,,,,,,,,,,,,,,,,,,,,,,,,,,,,,,,,,,,,,,,,,,,,,,,,,,,,,,,,,1.1278,803.7958048,None,None,1,803.7958048,None,,P043,FENCOG,2,Post,2022_May_19_1210,N-Back (New Version 2021),2021.1.4,120.0357707
,,,,Conditions/Version_1/oneback(3)_v1.xlsx,New rule: Press 'space' when you see 1-back (i.e. the same letter as the one that appeared 1 letter ago.),,,,,,,,,,,0,11,11,11,,,,,,,,,,,,,,,,,,,,,,,,,,,,,,,,,,,,,,,,,,,,,,,,,,,,,,,,,,,,,,,,,,,,,,,,,,,,,,,,,P043,FENCOG,2,Post,2022_May_19_1210,N-Back (New Version 2021),2021.1.4,120.0357707
,,,,Conditions/Version_1/twoback(4)_v1.xlsx,New rule: Press 'space' when you see 2-back (i.e. the same letter as the one that appeared 2 letters ago.),r,None,,,,,,,,,0,12,12,12,0,0,0,0,,,,,,,,,,,,,,,,,,,,,,,,,,,,,,,,,,,,,,,,,,,,,,,,,,,,,,,,,,,805.8290754,None,808.8101306,None,space,13.3565183,808.8101306,None,805.8290754,None,1.2084,823.4653979,None,None,1,823.4653979,None,,P043,FENCOG,2,Post,2022_May_19_1210,N-Back (New Version 2021),2021.1.4,120.0357707
,,,,Conditions/Version_1/twoback(4)_v1.xlsx,New rule: Press 'space' when you see 2-back (i.e. the same letter as the one that appeared 2 letters ago.),T,None,,,,,,,,,0,12,12,12,0,1,1,1,,,,,,,,,,,,,,,,,,,,,,,,,,,,,,,,,,,,,,,,,,,,,,,,,,,,,,,,,,,,,,,,,,,,,1.3634,826.8479785,None,None,1,826.8479785,None,,P043,FENCOG,2,Post,2022_May_19_1210,N-Back (New Version 2021),2021.1.4,120.0357707
,,,,Conditions/Version_1/twoback(4)_v1.xlsx,New rule: Press 'space' when you see 2-back (i.e. the same letter as the one that appeared 2 letters ago.),o,None,,,,,,,,,0,12,12,12,0,2,2,2,,,,,,,,,,,,,,,,,,,,,,,,,,,,,,,,,,,,,,,,,,,,,,,,,,,,,,,,,,,,,,,,,,,,,1.7478,830.6129511,None,None,1,830.6129511,None,,P043,FENCOG,2,Post,2022_May_19_1210,N-Back (New Version 2021),2021.1.4,120.0357707
,,,,Conditions/Version_1/twoback(4)_v1.xlsx,New rule: Press 'space' when you see 2-back (i.e. the same letter as the one that appeared 2 letters ago.),p,None,,,,,,,,,0,12,12,12,0,3,3,3,,,,,,,,,,,,,,,,,,,,,,,,,,,,,,,,,,,,,,,,,,,,,,,,,,,,,,,,,,,,,,,,,,,,,1.4936,834.1140695,None,None,1,834.1140695,None,,P043,FENCOG,2,Post,2022_May_19_1210,N-Back (New Version 2021),2021.1.4,120.0357707
,,,,Conditions/Version_1/twoback(4)_v1.xlsx,New rule: Press 'space' when you see 2-back (i.e. the same letter as the one that appeared 2 letters ago.),p,None,,,,,,,,,0,12,12,12,0,4,4,4,,,,,,,,,,,,,,,,,,,,,,,,,,,,,,,,,,,,,,,,,,,,,,,,,,,,,,,,,,,,,,,,,,,,,1.3386,837.4643206,None,None,1,837.4643206,None,,P043,FENCOG,2,Post,2022_May_19_1210,N-Back (New Version 2021),2021.1.4,120.0357707
,,,,Conditions/Version_1/twoback(4)_v1.xlsx,New rule: Press 'space' when you see 2-back (i.e. the same letter as the one that appeared 2 letters ago.),y,None,,,,,,,,,0,12,12,12,0,5,5,5,,,,,,,,,,,,,,,,,,,,,,,,,,,,,,,,,,,,,,,,,,,,,,,,,,,,,,,,,,,,,,,,,,,,,1.6176,841.1017286,None,None,1,841.1017286,None,,P043,FENCOG,2,Post,2022_May_19_1210,N-Back (New Version 2021),2021.1.4,120.0357707
,,,,Conditions/Version_1/twoback(4)_v1.xlsx,New rule: Press 'space' when you see 2-back (i.e. the same letter as the one that appeared 2 letters ago.),P,space,,,,,,,,,0,12,12,12,0,6,6,6,,,,,,,,,,,,,,,,,,,,,,,,,,,,,,,,,,,,,,,,,,,,,,,,,,,,,,,,,,,,,,,,,,,,,1.878,844.9835539,None,space,1,844.9835539,None,0.3913424,P043,FENCOG,2,Post,2022_May_19_1210,N-Back (New Version 2021),2021.1.4,120.0357707
,,,,Conditions/Version_1/twoback(4)_v1.xlsx,New rule: Press 'space' when you see 2-back (i.e. the same letter as the one that appeared 2 letters ago.),y,None,,,,,,,,,0,12,12,12,0,7,7,7,,,,,,,,,,,,,,,,,,,,,,,,,,,,,,,,,,,,,,,,,,,,,,,,,,,,,,,,,,,,,,,,,,,,,1.5928,848.5911268,None,space,0,848.5911268,None,0.3998466,P043,FENCOG,2,Post,2022_May_19_1210,N-Back (New Version 2021),2021.1.4,120.0357707
,,,,Conditions/Version_1/twoback(4)_v1.xlsx,New rule: Press 'space' when you see 2-back (i.e. the same letter as the one that appeared 2 letters ago.),y,space,,,,,,,,,0,12,12,12,0,8,8,8,,,,,,,,,,,,,,,,,,,,,,,,,,,,,,,,,,,,,,,,,,,,,,,,,,,,,,,,,,,,,,,,,,,,,1.2642,851.8604565,None,None,0,851.8604565,None,,P043,FENCOG,2,Post,2022_May_19_1210,N-Back (New Version 2021),2021.1.4,120.0357707
,,,,Conditions/Version_1/twoback(4)_v1.xlsx,New rule: Press 'space' when you see 2-back (i.e. the same letter as the one that appeared 2 letters ago.),,,,,,,,,,,0,12,12,12,,,,,,,,,,,,,,,,,,,,,,,,,,,,,,,,,,,,,,,,,,,,,,,,,,,,,,,,,,,,,,,,,,,,,,,,,,,,,,,,,P043,FENCOG,2,Post,2022_May_19_1210,N-Back (New Version 2021),2021.1.4,120.0357707
,,,,Conditions/Version_1/zeroback(4)_v1.xlsx,New rule: Press 'space' when you see the letter 'x' or 'X'.,o,None,,,,,,,,,0,13,13,13,0,0,0,0,,,,,,,,,,,,,,,,,,,,,,,,,,,,,,,,,,,,,,,,,,,,,,,,,,,,,,,,,,,853.8872785,None,856.8699393,None,space,0.5446927,856.8699393,None,853.8872785,None,1.4378,858.8945568,None,None,1,858.8945568,None,,P043,FENCOG,2,Post,2022_May_19_1210,N-Back (New Version 2021),2021.1.4,120.0357707
,,,,Conditions/Version_1/zeroback(4)_v1.xlsx,New rule: Press 'space' when you see the letter 'x' or 'X'.,X,space,,,,,,,,,0,13,13,13,0,1,1,1,,,,,,,,,,,,,,,,,,,,,,,,,,,,,,,,,,,,,,,,,,,,,,,,,,,,,,,,,,,,,,,,,,,,,1.1402,862.0442679,None,space,1,862.0442679,None,0.4747795,P043,FENCOG,2,Post,2022_May_19_1210,N-Back (New Version 2021),2021.1.4,120.0357707
,,,,Conditions/Version_1/zeroback(4)_v1.xlsx,New rule: Press 'space' when you see the letter 'x' or 'X'.,p,None,,,,,,,,,0,13,13,13,0,2,2,2,,,,,,,,,,,,,,,,,,,,,,,,,,,,,,,,,,,,,,,,,,,,,,,,,,,,,,,,,,,,,,,,,,,,,1.9958,866.0509429,None,None,1,866.0509429,None,,P043,FENCOG,2,Post,2022_May_19_1210,N-Back (New Version 2021),2021.1.4,120.0357707
,,,,Conditions/Version_1/zeroback(4)_v1.xlsx,New rule: Press 'space' when you see the letter 'x' or 'X'.,m,None,,,,,,,,,0,13,13,13,0,3,3,3,,,,,,,,,,,,,,,,,,,,,,,,,,,,,,,,,,,,,,,,,,,,,,,,,,,,,,,,,,,,,,,,,,,,,1.3944,869.4614524,None,None,1,869.4614524,None,,P043,FENCOG,2,Post,2022_May_19_1210,N-Back (New Version 2021),2021.1.4,120.0357707
,,,,Conditions/Version_1/zeroback(4)_v1.xlsx,New rule: Press 'space' when you see the letter 'x' or 'X'.,n,None,,,,,,,,,0,13,13,13,0,4,4,4,,,,,,,,,,,,,,,,,,,,,,,,,,,,,,,,,,,,,,,,,,,,,,,,,,,,,,,,,,,,,,,,,,,,,1.878,873.3595853,None,None,1,873.3595853,None,,P043,FENCOG,2,Post,2022_May_19_1210,N-Back (New Version 2021),2021.1.4,120.0357707
,,,,Conditions/Version_1/zeroback(4)_v1.xlsx,New rule: Press 'space' when you see the letter 'x' or 'X'.,m,None,,,,,,,,,0,13,13,13,0,5,5,5,,,,,,,,,,,,,,,,,,,,,,,,,,,,,,,,,,,,,,,,,,,,,,,,,,,,,,,,,,,,,,,,,,,,,1.258,876.6247929,None,None,1,876.6247929,None,,P043,FENCOG,2,Post,2022_May_19_1210,N-Back (New Version 2021),2021.1.4,120.0357707
,,,,Conditions/Version_1/zeroback(4)_v1.xlsx,New rule: Press 'space' when you see the letter 'x' or 'X'.,C,None,,,,,,,,,0,13,13,13,0,6,6,6,,,,,,,,,,,,,,,,,,,,,,,,,,,,,,,,,,,,,,,,,,,,,,,,,,,,,,,,,,,,,,,,,,,,,1.8408,880.482085,None,None,1,880.482085,None,,P043,FENCOG,2,Post,2022_May_19_1210,N-Back (New Version 2021),2021.1.4,120.0357707
,,,,Conditions/Version_1/zeroback(4)_v1.xlsx,New rule: Press 'space' when you see the letter 'x' or 'X'.,m,None,,,,,,,,,0,13,13,13,0,7,7,7,,,,,,,,,,,,,,,,,,,,,,,,,,,,,,,,,,,,,,,,,,,,,,,,,,,,,,,,,,,,,,,,,,,,,1.5308,884.031552,None,None,1,884.031552,None,,P043,FENCOG,2,Post,2022_May_19_1210,N-Back (New Version 2021),2021.1.4,120.0357707
,,,,Conditions/Version_1/zeroback(4)_v1.xlsx,New rule: Press 'space' when you see the letter 'x' or 'X'.,p,None,,,,,,,,,0,13,13,13,0,8,8,8,,,,,,,,,,,,,,,,,,,,,,,,,,,,,,,,,,,,,,,,,,,,,,,,,,,,,,,,,,,,,,,,,,,,,1.9028,887.9443191,None,None,1,887.9443191,None,,P043,FENCOG,2,Post,2022_May_19_1210,N-Back (New Version 2021),2021.1.4,120.0357707
,,,,Conditions/Version_1/zeroback(4)_v1.xlsx,New rule: Press 'space' when you see the letter 'x' or 'X'.,X,space,,,,,,,,,0,13,13,13,0,9,9,9,,,,,,,,,,,,,,,,,,,,,,,,,,,,,,,,,,,,,,,,,,,,,,,,,,,,,,,,,,,,,,,,,,,,,1.475,891.4270354,None,space,1,891.4270354,None,0.4198458,P043,FENCOG,2,Post,2022_May_19_1210,N-Back (New Version 2021),2021.1.4,120.0357707
,,,,Conditions/Version_1/zeroback(4)_v1.xlsx,New rule: Press 'space' when you see the letter 'x' or 'X'.,,,,,,,,,,,0,13,13,13,,,,,,,,,,,,,,,,,,,,,,,,,,,,,,,,,,,,,,,,,,,,,,,,,,,,,,,,,,,,,,,,,,,,,,,,,,,,,,,,,P043,FENCOG,2,Post,2022_May_19_1210,N-Back (New Version 2021),2021.1.4,120.0357707
,,,,Conditions/Version_1/oneback(4)_v1.xlsx,New rule: Press 'space' when you see 1-back (i.e. the same letter as the one that appeared 1 letter ago.),w,None,,,,,,,,,0,14,14,14,0,0,0,0,,,,,,,,,,,,,,,,,,,,,,,,,,,,,,,,,,,,,,,,,,,,,,,,,,,,,,,,,,,893.4691891,None,896.4518045,None,space,0.3548136,896.4518045,None,893.4691891,None,1.3634,898.2100468,None,None,1,898.2100468,None,,P043,FENCOG,2,Post,2022_May_19_1210,N-Back (New Version 2021),2021.1.4,120.0357707
,,,,Conditions/Version_1/oneback(4)_v1.xlsx,New rule: Press 'space' when you see 1-back (i.e. the same letter as the one that appeared 1 letter ago.),q,None,,,,,,,,,0,14,14,14,0,1,1,1,,,,,,,,,,,,,,,,,,,,,,,,,,,,,,,,,,,,,,,,,,,,,,,,,,,,,,,,,,,,,,,,,,,,,1.1774,901.4019327,None,None,1,901.4019327,None,,P043,FENCOG,2,Post,2022_May_19_1210,N-Back (New Version 2021),2021.1.4,120.0357707
,,,,Conditions/Version_1/oneback(4)_v1.xlsx,New rule: Press 'space' when you see 1-back (i.e. the same letter as the one that appeared 1 letter ago.),i,None,,,,,,,,,0,14,14,14,0,2,2,2,,,,,,,,,,,,,,,,,,,,,,,,,,,,,,,,,,,,,,,,,,,,,,,,,,,,,,,,,,,,,,,,,,,,,1.8222,905.2314215,None,None,1,905.2314215,None,,P043,FENCOG,2,Post,2022_May_19_1210,N-Back (New Version 2021),2021.1.4,120.0357707
,,,,Conditions/Version_1/oneback(4)_v1.xlsx,New rule: Press 'space' when you see 1-back (i.e. the same letter as the one that appeared 1 letter ago.),t,None,,,,,,,,,0,14,14,14,0,3,3,3,,,,,,,,,,,,,,,,,,,,,,,,,,,,,,,,,,,,,,,,,,,,,,,,,,,,,,,,,,,,,,,,,,,,,1.6176,908.8557897,None,None,1,908.8557897,None,,P043,FENCOG,2,Post,2022_May_19_1210,N-Back (New Version 2021),2021.1.4,120.0357707
,,,,Conditions/Version_1/oneback(4)_v1.xlsx,New rule: Press 'space' when you see 1-back (i.e. the same letter as the one that appeared 1 letter ago.),v,None,,,,,,,,,0,14,14,14,0,4,4,4,,,,,,,,,,,,,,,,,,,,,,,,,,,,,,,,,,,,,,,,,,,,,,,,,,,,,,,,,,,,,,,,,,,,,1.4502,912.3228301,None,None,1,912.3228301,None,,P043,FENCOG,2,Post,2022_May_19_1210,N-Back (New Version 2021),2021.1.4,120.0357707
,,,,Conditions/Version_1/oneback(4)_v1.xlsx,New rule: Press 'space' when you see 1-back (i.e. the same letter as the one that appeared 1 letter ago.),V,space,,,,,,,,,0,14,14,14,0,5,5,5,,,,,,,,,,,,,,,,,,,,,,,,,,,,,,,,,,,,,,,,,,,,,,,,,,,,,,,,,,,,,,,,,,,,,1.01,915.3482541,None,space,1,915.3482541,None,0.6026111,P043,FENCOG,2,Post,2022_May_19_1210,N-Back (New Version 2021),2021.1.4,120.0357707
,,,,Conditions/Version_1/oneback(4)_v1.xlsx,New rule: Press 'space' when you see 1-back (i.e. the same letter as the one that appeared 1 letter ago.),v,space,,,,,,,,,0,14,14,14,0,6,6,6,,,,,,,,,,,,,,,,,,,,,,,,,,,,,,,,,,,,,,,,,,,,,,,,,,,,,,,,,,,,,,,,,,,,,1.9586,919.3212569,None,space,1,919.3212569,None,0.4615499,P043,FENCOG,2,Post,2022_May_19_1210,N-Back (New Version 2021),2021.1.4,120.0357707
,,,,Conditions/Version_1/oneback(4)_v1.xlsx,New rule: Press 'space' when you see 1-back (i.e. the same letter as the one that appeared 1 letter ago.),p,None,,,,,,,,,0,14,14,14,0,7,7,7,,,,,,,,,,,,,,,,,,,,,,,,,,,,,,,,,,,,,,,,,,,,,,,,,,,,,,,,,,,,,,,,,,,,,1.4192,922.7539335,None,None,1,922.7539335,None,,P043,FENCOG,2,Post,2022_May_19_1210,N-Back (New Version 2021),2021.1.4,120.0357707
,,,,Conditions/Version_1/oneback(4)_v1.xlsx,New rule: Press 'space' when you see 1-back (i.e. the same letter as the one that appeared 1 letter ago.),w,None,,,,,,,,,0,14,14,14,0,8,8,8,,,,,,,,,,,,,,,,,,,,,,,,,,,,,,,,,,,,,,,,,,,,,,,,,,,,,,,,,,,,,,,,,,,,,1.7106,926.4673152,None,None,1,926.4673152,None,,P043,FENCOG,2,Post,2022_May_19_1210,N-Back (New Version 2021),2021.1.4,120.0357707
,,,,Conditions/Version_1/oneback(4)_v1.xlsx,New rule: Press 'space' when you see 1-back (i.e. the same letter as the one that appeared 1 letter ago.),W,space,,,,,,,,,0,14,14,14,0,9,9,9,,,,,,,,,,,,,,,,,,,,,,,,,,,,,,,,,,,,,,,,,,,,,,,,,,,,,,,,,,,,,,,,,,,,,1.94,930.4173731,None,space,1,930.4173731,None,0.3898783,P043,FENCOG,2,Post,2022_May_19_1210,N-Back (New Version 2021),2021.1.4,120.0357707
,,,,Conditions/Version_1/oneback(4)_v1.xlsx,New rule: Press 'space' when you see 1-back (i.e. the same letter as the one that appeared 1 letter ago.),,,,,,,,,,,0,14,14,14,,,,,,,,,,,,,,,,,,,,,,,,,,,,,,,,,,,,,,,,,,,,,,,,,,,,,,,,,,,,,,,,,,,,,,,,,,,,,,,,,P043,FENCOG,2,Post,2022_May_19_1210,N-Back (New Version 2021),2021.1.4,120.0357707
,,,,Conditions/Version_1/threeback(4)_v1.xlsx,New rule: Press 'space' when you see 3-back (i.e. the same letter as the one that appeared 3 letters ago.),A,None,,,,,,,,,0,15,15,15,0,0,0,0,,,,,,,,,,,,,,,,,,,,,,,,,,,,,,,,,,,,,,,,,,,,,,,,,,,,,,,,,,,932.4635736,None,935.4479364,None,space,0.3507337,935.4479364,None,932.4635736,None,1.289,937.136448,None,None,1,937.136448,None,,P043,FENCOG,2,Post,2022_May_19_1210,N-Back (New Version 2021),2021.1.4,120.0357707
,,,,Conditions/Version_1/threeback(4)_v1.xlsx,New rule: Press 'space' when you see 3-back (i.e. the same letter as the one that appeared 3 letters ago.),n,None,,,,,,,,,0,15,15,15,0,1,1,1,,,,,,,,,,,,,,,,,,,,,,,,,,,,,,,,,,,,,,,,,,,,,,,,,,,,,,,,,,,,,,,,,,,,,1.5246,940.6658047,None,None,1,940.6658047,None,,P043,FENCOG,2,Post,2022_May_19_1210,N-Back (New Version 2021),2021.1.4,120.0357707
,,,,Conditions/Version_1/threeback(4)_v1.xlsx,New rule: Press 'space' when you see 3-back (i.e. the same letter as the one that appeared 3 letters ago.),g,None,,,,,,,,,0,15,15,15,0,2,2,2,,,,,,,,,,,,,,,,,,,,,,,,,,,,,,,,,,,,,,,,,,,,,,,,,,,,,,,,,,,,,,,,,,,,,1.6176,944.2820219,None,None,1,944.2820219,None,,P043,FENCOG,2,Post,2022_May_19_1210,N-Back (New Version 2021),2021.1.4,120.0357707
,,,,Conditions/Version_1/threeback(4)_v1.xlsx,New rule: Press 'space' when you see 3-back (i.e. the same letter as the one that appeared 3 letters ago.),A,space,,,,,,,,,0,15,15,15,0,3,3,3,,,,,,,,,,,,,,,,,,,,,,,,,,,,,,,,,,,,,,,,,,,,,,,,,,,,,,,,,,,,,,,,,,,,,1.0162,947.3121657,None,space,1,947.3121657,None,0.4071971,P043,FENCOG,2,Post,2022_May_19_1210,N-Back (New Version 2021),2021.1.4,120.0357707
,,,,Conditions/Version_1/threeback(4)_v1.xlsx,New rule: Press 'space' when you see 3-back (i.e. the same letter as the one that appeared 3 letters ago.),p,None,,,,,,,,,0,15,15,15,0,4,4,4,,,,,,,,,,,,,,,,,,,,,,,,,,,,,,,,,,,,,,,,,,,,,,,,,,,,,,,,,,,,,,,,,,,,,1.1712,950.4936699,None,None,1,950.4936699,None,,P043,FENCOG,2,Post,2022_May_19_1210,N-Back (New Version 2021),2021.1.4,120.0357707
,,,,Conditions/Version_1/threeback(4)_v1.xlsx,New rule: Press 'space' when you see 3-back (i.e. the same letter as the one that appeared 3 letters ago.),O,None,,,,,,,,,0,15,15,15,0,5,5,5,,,,,,,,,,,,,,,,,,,,,,,,,,,,,,,,,,,,,,,,,,,,,,,,,,,,,,,,,,,,,,,,,,,,,1.7168,954.2261184,None,None,1,954.2261184,None,,P043,FENCOG,2,Post,2022_May_19_1210,N-Back (New Version 2021),2021.1.4,120.0357707
,,,,Conditions/Version_1/threeback(4)_v1.xlsx,New rule: Press 'space' when you see 3-back (i.e. the same letter as the one that appeared 3 letters ago.),a,space,,,,,,,,,0,15,15,15,0,6,6,6,,,,,,,,,,,,,,,,,,,,,,,,,,,,,,,,,,,,,,,,,,,,,,,,,,,,,,,,,,,,,,,,,,,,,1.9276,958.1604074,None,space,1,958.1604074,None,1.1102938,P043,FENCOG,2,Post,2022_May_19_1210,N-Back (New Version 2021),2021.1.4,120.0357707
,,,,Conditions/Version_1/threeback(4)_v1.xlsx,New rule: Press 'space' when you see 3-back (i.e. the same letter as the one that appeared 3 letters ago.),p,space,,,,,,,,,0,15,15,15,0,7,7,7,,,,,,,,,,,,,,,,,,,,,,,,,,,,,,,,,,,,,,,,,,,,,,,,,,,,,,,,,,,,,,,,,,,,,1.909,962.0823123,None,space,1,962.0823123,None,0.9245356,P043,FENCOG,2,Post,2022_May_19_1210,N-Back (New Version 2021),2021.1.4,120.0357707
,,,,Conditions/Version_1/threeback(4)_v1.xlsx,New rule: Press 'space' when you see 3-back (i.e. the same letter as the one that appeared 3 letters ago.),x,None,,,,,,,,,0,15,15,15,0,8,8,8,,,,,,,,,,,,,,,,,,,,,,,,,,,,,,,,,,,,,,,,,,,,,,,,,,,,,,,,,,,,,,,,,,,,,1.4254,965.5134705,None,None,1,965.5134705,None,,P043,FENCOG,2,Post,2022_May_19_1210,N-Back (New Version 2021),2021.1.4,120.0357707
,,,,Conditions/Version_1/threeback(4)_v1.xlsx,New rule: Press 'space' when you see 3-back (i.e. the same letter as the one that appeared 3 letters ago.),X,None,,,,,,,,,0,15,15,15,0,9,9,9,,,,,,,,,,,,,,,,,,,,,,,,,,,,,,,,,,,,,,,,,,,,,,,,,,,,,,,,,,,,,,,,,,,,,1.9586,969.4789075,None,None,1,969.4789075,None,,P043,FENCOG,2,Post,2022_May_19_1210,N-Back (New Version 2021),2021.1.4,120.0357707
,,,,Conditions/Version_1/threeback(4)_v1.xlsx,New rule: Press 'space' when you see 3-back (i.e. the same letter as the one that appeared 3 letters ago.),,,,,,,,,,,0,15,15,15,,,,,,,,,,,,,,,,,,,,,,,,,,,,,,,,,,,,,,,,,,,,,,,,,,,,,,,,,,,,,,,,,,,,,,,,,,,,,,,,,P043,FENCOG,2,Post,2022_May_19_1210,N-Back (New Version 2021),2021.1.4,120.0357707
