CondFileP,InstructionsP,LettersDisplayedP,CorrectnessP,CondFile,Instructions,LettersDisplayed,Correctness,practicetrials.thisRepN,practicetrials.thisTrialN,practicetrials.thisN,practicetrials.thisIndex,InnerLoopPractice.thisRepN,InnerLoopPractice.thisTrialN,InnerLoopPractice.thisN,InnerLoopPractice.thisIndex,trials.thisRepN,trials.thisTrialN,trials.thisN,trials.thisIndex,InnerLoop.thisRepN,InnerLoop.thisTrialN,InnerLoop.thisN,InnerLoop.thisIndex,TaskVersionText.started,TaskVersionText.stopped,InstrKey1.keys,InstrKey1.rt,InstrKey1.started,InstrKey1.stopped,text.started,text.stopped,key_resp_4.keys,key_resp_4.rt,key_resp_4.started,key_resp_4.stopped,text_2.started,text_2.stopped,key_resp_3.keys,key_resp_3.rt,key_resp_3.started,key_resp_3.stopped,text_3.started,text_3.stopped,key_resp_2.keys,key_resp_2.rt,key_resp_2.started,key_resp_2.stopped,PractIn1.started,PractIn1.stopped,PractIn2.started,PractIn2.stopped,PractInstructionPass.keys,PractInstructionPass.rt,PractInstructionPass.started,PractInstructionPass.stopped,PractBlock1.started,PractBlock1.stopped,ISIjitterPractice,ISI_Pract_Fixation.started,ISI_Pract_Fixation.stopped,N_backP.started,N_backP.stopped,KeyPractice.keys,KeyPractice.corr,KeyPractice.rt,KeyPractice.started,KeyPractice.stopped,text_4.started,text_4.stopped,TransitionText.started,TransitionText.stopped,key_resp_6.keys,key_resp_6.rt,key_resp_6.started,key_resp_6.stopped,text_5.started,text_5.stopped,key_resp_5.keys,key_resp_5.rt,key_resp_5.started,key_resp_5.stopped,MainInt1.started,MainInt1.stopped,MainInt2.started,MainInt2.stopped,InstructionPass.keys,InstructionPass.rt,InstructionPass.started,InstructionPass.stopped,Blocks1.started,Blocks1.stopped,ISIjitter,N_backD.started,N_backD.stopped,key_resp.keys,key_resp.corr,key_resp.rt,key_resp.started,key_resp.stopped,participant,Study Name,Task Version (required to run),PRE/POST,date,expName,psychopyVersion,frameRate
,,,,,,,,,,,,,,,,,,,,,,,,45.1451665,None,space,49.4142138,45.6386976,None,,,,,,,,,,,,,,,,,,,,,,,,,,,,,,,,,,,,,,,,,,,,,,,,,,,,,,,,,,,,,,,,,,,,,,,P044,fencog,2,Post,2022_May_25_1206,N-Back (New Version 2021),2021.1.4,119.6637449
,,,,,,,,,,,,,,,,,,,,,,,,,,,,,,95.0868471,None,space,3.4626761,95.5824441,None,,,,,,,,,,,,,,,,,,,,,,,,,,,,,,,,,,,,,,,,,,,,,,,,,,,,,,,,,,,,,,,,,P044,fencog,2,Post,2022_May_25_1206,N-Back (New Version 2021),2021.1.4,119.6637449
,,,,,,,,,,,,,,,,,,,,,,,,,,,,,,,,,,,,99.0982931,None,space,1.406615,99.5903719,None,,,,,,,,,,,,,,,,,,,,,,,,,,,,,,,,,,,,,,,,,,,,,,,,,,,,,,,,,,,P044,fencog,2,Post,2022_May_25_1206,N-Back (New Version 2021),2021.1.4,119.6637449
,,,,,,,,,,,,,,,,,,,,,,,,,,,,,,,,,,,,,,,,,,101.023058,None,space,2.2424318,101.5145591,None,,,,,,,,,,,,,,,,,,,,,,,,,,,,,,,,,,,,,,,,,,,,,,,,,,,,,P044,fencog,2,Post,2022_May_25_1206,N-Back (New Version 2021),2021.1.4,119.6637449
Conditions/Version_2Pr/zeroback(1)_v2.xlsx,Rule: Press 'space' when you see the letter 'x' or 'X'.,x,space,,,,,0,0,0,0,0,0,0,0,,,,,,,,,,,,,,,,,,,,,,,,,,,,,,,,,105.1532855,None,108.1304334,None,space,1.6745977,108.1304334,None,105.1532855,None,1.315,109.8411813,None,111.1647779,None,space,1,0.5682018,111.1647779,None,111.7488395,None,,,,,,,,,,,,,,,,,,,,,,,,,,,,,,,P044,fencog,2,Post,2022_May_25_1206,N-Back (New Version 2021),2021.1.4,119.6637449
Conditions/Version_2Pr/zeroback(1)_v2.xlsx,Rule: Press 'space' when you see the letter 'x' or 'X'.,R,None,,,,,0,0,0,0,0,1,1,1,,,,,,,,,,,,,,,,,,,,,,,,,,,,,,,,,,,,,,,,,,,1.34,113.2519959,None,114.6028305,None,None,1,,114.6028305,None,116.6010203,None,,,,,,,,,,,,,,,,,,,,,,,,,,,,,,,P044,fencog,2,Post,2022_May_25_1206,N-Back (New Version 2021),2021.1.4,119.6637449
Conditions/Version_2Pr/zeroback(1)_v2.xlsx,Rule: Press 'space' when you see the letter 'x' or 'X'.,p,None,,,,,0,0,0,0,0,2,2,2,,,,,,,,,,,,,,,,,,,,,,,,,,,,,,,,,,,,,,,,,,,1.165,118.1005367,None,119.2693545,None,None,1,,119.2693545,None,121.2745641,None,,,,,,,,,,,,,,,,,,,,,,,,,,,,,,,P044,fencog,2,Post,2022_May_25_1206,N-Back (New Version 2021),2021.1.4,119.6637449
Conditions/Version_2Pr/zeroback(1)_v2.xlsx,Rule: Press 'space' when you see the letter 'x' or 'X'.,O,None,,,,,0,0,0,0,0,3,3,3,,,,,,,,,,,,,,,,,,,,,,,,,,,,,,,,,,,,,,,,,,,1.69,122.7740908,None,124.4668392,None,None,1,,124.4668392,None,126.4730258,None,,,,,,,,,,,,,,,,,,,,,,,,,,,,,,,P044,fencog,2,Post,2022_May_25_1206,N-Back (New Version 2021),2021.1.4,119.6637449
Conditions/Version_2Pr/zeroback(1)_v2.xlsx,Rule: Press 'space' when you see the letter 'x' or 'X'.,i,None,,,,,0,0,0,0,0,4,4,4,,,,,,,,,,,,,,,,,,,,,,,,,,,,,,,,,,,,,,,,,,,1.215,127.9724563,None,129.1915609,None,None,1,,129.1915609,None,131.1966707,None,,,,,,,,,,,,,,,,,,,,,,,,,,,,,,,P044,fencog,2,Post,2022_May_25_1206,N-Back (New Version 2021),2021.1.4,119.6637449
Conditions/Version_2Pr/zeroback(1)_v2.xlsx,Rule: Press 'space' when you see the letter 'x' or 'X'.,U,None,,,,,0,0,0,0,0,5,5,5,,,,,,,,,,,,,,,,,,,,,,,,,,,,,,,,,,,,,,,,,,,1.065,132.6962041,None,133.7654166,None,None,1,,133.7654166,None,135.7703588,None,,,,,,,,,,,,,,,,,,,,,,,,,,,,,,,P044,fencog,2,Post,2022_May_25_1206,N-Back (New Version 2021),2021.1.4,119.6637449
Conditions/Version_2Pr/zeroback(1)_v2.xlsx,Rule: Press 'space' when you see the letter 'x' or 'X'.,N,None,,,,,0,0,0,0,0,6,6,6,,,,,,,,,,,,,,,,,,,,,,,,,,,,,,,,,,,,,,,,,,,1.24,137.2698703,None,138.5131604,None,None,1,,138.5131604,None,140.5187184,None,,,,,,,,,,,,,,,,,,,,,,,,,,,,,,,P044,fencog,2,Post,2022_May_25_1206,N-Back (New Version 2021),2021.1.4,119.6637449
Conditions/Version_2Pr/zeroback(1)_v2.xlsx,Rule: Press 'space' when you see the letter 'x' or 'X'.,m,None,,,,,0,0,0,0,0,7,7,7,,,,,,,,,,,,,,,,,,,,,,,,,,,,,,,,,,,,,,,,,,,1.715,142.0184332,None,143.7373209,None,None,1,,143.7373209,None,145.7459931,None,,,,,,,,,,,,,,,,,,,,,,,,,,,,,,,P044,fencog,2,Post,2022_May_25_1206,N-Back (New Version 2021),2021.1.4,119.6637449
Conditions/Version_2Pr/zeroback(1)_v2.xlsx,Rule: Press 'space' when you see the letter 'x' or 'X'.,x,space,,,,,0,0,0,0,0,8,8,8,,,,,,,,,,,,,,,,,,,,,,,,,,,,,,,,,,,,,,,,,,,1.89,147.2419116,None,149.1338636,None,space,1,0.6231428,149.1338636,None,149.7677503,None,,,,,,,,,,,,,,,,,,,,,,,,,,,,,,,P044,fencog,2,Post,2022_May_25_1206,N-Back (New Version 2021),2021.1.4,119.6637449
Conditions/Version_2Pr/zeroback(1)_v2.xlsx,Rule: Press 'space' when you see the letter 'x' or 'X'.,X,space,,,,,0,0,0,0,0,9,9,9,,,,,,,,,,,,,,,,,,,,,,,,,,,,,,,,,,,,,,,,,,,1.44,151.2740394,None,152.7262705,None,space,1,0.4308333,152.7262705,None,153.1668288,None,,,,,,,,,,,,,,,,,,,,,,,,,,,,,,,P044,fencog,2,Post,2022_May_25_1206,N-Back (New Version 2021),2021.1.4,119.6637449
Conditions/Version_2Pr/zeroback(1)_v2.xlsx,Rule: Press 'space' when you see the letter 'x' or 'X'.,,,,,,,0,0,0,0,,,,,,,,,,,,,,,,,,,,,,,,,,,,,,,,,,,,,,,,,,,,,,,,,,,,,,,,,,,,,,,,,,,,,,,,,,,,,,,,,,,,,,,,,P044,fencog,2,Post,2022_May_25_1206,N-Back (New Version 2021),2021.1.4,119.6637449
Conditions/Version_2Pr/oneback(1)_v2.xlsx,New rule: Press 'space' when you see 1-back (i.e. the same letter as the one that appeared 1 letter ago.),r,None,,,,,0,1,1,1,0,0,0,0,,,,,,,,,,,,,,,,,,,,,,,,,,,,,,,,,154.6957014,None,157.6825226,None,space,1.0021686,157.6825226,None,154.6957014,None,1.74,158.7183973,None,160.4649712,None,space,0,0.5081605,160.4649712,None,160.9934763,None,,,,,,,,,,,,,,,,,,,,,,,,,,,,,,,P044,fencog,2,Post,2022_May_25_1206,N-Back (New Version 2021),2021.1.4,119.6637449
Conditions/Version_2Pr/oneback(1)_v2.xlsx,New rule: Press 'space' when you see 1-back (i.e. the same letter as the one that appeared 1 letter ago.),t,None,,,,,0,1,1,1,0,1,1,1,,,,,,,,,,,,,,,,,,,,,,,,,,,,,,,,,,,,,,,,,,,1.89,162.4956986,None,164.3875774,None,None,1,,164.3875774,None,166.3954672,None,,,,,,,,,,,,,,,,,,,,,,,,,,,,,,,P044,fencog,2,Post,2022_May_25_1206,N-Back (New Version 2021),2021.1.4,119.6637449
Conditions/Version_2Pr/oneback(1)_v2.xlsx,New rule: Press 'space' when you see 1-back (i.e. the same letter as the one that appeared 1 letter ago.),Y,None,,,,,0,1,1,1,0,2,2,2,,,,,,,,,,,,,,,,,,,,,,,,,,,,,,,,,,,,,,,,,,,1.34,167.8941383,None,169.2362672,None,None,1,,169.2362672,None,171.2431878,None,,,,,,,,,,,,,,,,,,,,,,,,,,,,,,,P044,fencog,2,Post,2022_May_25_1206,N-Back (New Version 2021),2021.1.4,119.6637449
Conditions/Version_2Pr/oneback(1)_v2.xlsx,New rule: Press 'space' when you see 1-back (i.e. the same letter as the one that appeared 1 letter ago.),y,space,,,,,0,1,1,1,0,3,3,3,,,,,,,,,,,,,,,,,,,,,,,,,,,,,,,,,,,,,,,,,,,1.815,172.7426889,None,174.561194,None,space,1,0.4516034,174.561194,None,175.0264762,None,,,,,,,,,,,,,,,,,,,,,,,,,,,,,,,P044,fencog,2,Post,2022_May_25_1206,N-Back (New Version 2021),2021.1.4,119.6637449
Conditions/Version_2Pr/oneback(1)_v2.xlsx,New rule: Press 'space' when you see 1-back (i.e. the same letter as the one that appeared 1 letter ago.),p,None,,,,,0,1,1,1,0,4,4,4,,,,,,,,,,,,,,,,,,,,,,,,,,,,,,,,,,,,,,,,,,,1.69,176.5332405,None,178.2242509,None,None,1,,178.2242509,None,180.2236013,None,,,,,,,,,,,,,,,,,,,,,,,,,,,,,,,P044,fencog,2,Post,2022_May_25_1206,N-Back (New Version 2021),2021.1.4,119.6637449
Conditions/Version_2Pr/oneback(1)_v2.xlsx,New rule: Press 'space' when you see 1-back (i.e. the same letter as the one that appeared 1 letter ago.),P,space,,,,,0,1,1,1,0,5,5,5,,,,,,,,,,,,,,,,,,,,,,,,,,,,,,,,,,,,,,,,,,,1.315,181.7249004,None,183.0417281,None,space,1,0.5471566,183.0417281,None,183.5991743,None,,,,,,,,,,,,,,,,,,,,,,,,,,,,,,,P044,fencog,2,Post,2022_May_25_1206,N-Back (New Version 2021),2021.1.4,119.6637449
Conditions/Version_2Pr/oneback(1)_v2.xlsx,New rule: Press 'space' when you see 1-back (i.e. the same letter as the one that appeared 1 letter ago.),e,None,,,,,0,1,1,1,0,6,6,6,,,,,,,,,,,,,,,,,,,,,,,,,,,,,,,,,,,,,,,,,,,1.59,185.1056586,None,186.6986505,None,None,1,,186.6986505,None,188.7047171,None,,,,,,,,,,,,,,,,,,,,,,,,,,,,,,,P044,fencog,2,Post,2022_May_25_1206,N-Back (New Version 2021),2021.1.4,119.6637449
Conditions/Version_2Pr/oneback(1)_v2.xlsx,New rule: Press 'space' when you see 1-back (i.e. the same letter as the one that appeared 1 letter ago.),r,None,,,,,0,1,1,1,0,7,7,7,,,,,,,,,,,,,,,,,,,,,,,,,,,,,,,,,,,,,,,,,,,1.715,190.2048302,None,191.9236945,None,None,1,,191.9236945,None,193.928156,None,,,,,,,,,,,,,,,,,,,,,,,,,,,,,,,P044,fencog,2,Post,2022_May_25_1206,N-Back (New Version 2021),2021.1.4,119.6637449
Conditions/Version_2Pr/oneback(1)_v2.xlsx,New rule: Press 'space' when you see 1-back (i.e. the same letter as the one that appeared 1 letter ago.),R,space,,,,,0,1,1,1,0,8,8,8,,,,,,,,,,,,,,,,,,,,,,,,,,,,,,,,,,,,,,,,,,,1.865,195.4275591,None,197.2948449,None,space,1,0.3500786,197.2948449,None,197.6548493,None,,,,,,,,,,,,,,,,,,,,,,,,,,,,,,,P044,fencog,2,Post,2022_May_25_1206,N-Back (New Version 2021),2021.1.4,119.6637449
Conditions/Version_2Pr/oneback(1)_v2.xlsx,New rule: Press 'space' when you see 1-back (i.e. the same letter as the one that appeared 1 letter ago.),p,None,,,,,0,1,1,1,0,9,9,9,,,,,,,,,,,,,,,,,,,,,,,,,,,,,,,,,,,,,,,,,,,1.165,199.1597784,None,200.3260045,None,None,1,,200.3260045,None,202.3306007,None,,,,,,,,,,,,,,,,,,,,,,,,,,,,,,,P044,fencog,2,Post,2022_May_25_1206,N-Back (New Version 2021),2021.1.4,119.6637449
Conditions/Version_2Pr/oneback(1)_v2.xlsx,New rule: Press 'space' when you see 1-back (i.e. the same letter as the one that appeared 1 letter ago.),,,,,,,0,1,1,1,,,,,,,,,,,,,,,,,,,,,,,,,,,,,,,,,,,,,,,,,,,,,,,,,,,,,,,,,,,,,,,,,,,,,,,,,,,,,,,,,,,,,,,,,P044,fencog,2,Post,2022_May_25_1206,N-Back (New Version 2021),2021.1.4,119.6637449
Conditions/Version_2Pr/twoback(1)_v2.xlsx,New rule: Press 'space' when you see 2-back (i.e. the same letter as the one that appeared 2 letters ago.),r,None,,,,,0,2,2,2,0,0,0,0,,,,,,,,,,,,,,,,,,,,,,,,,,,,,,,,,203.8564637,None,206.8428713,None,space,3.0819968,206.8428713,None,203.8564637,None,1.84,209.9565953,None,211.799527,None,None,1,,211.799527,None,213.8055242,None,,,,,,,,,,,,,,,,,,,,,,,,,,,,,,,P044,fencog,2,Post,2022_May_25_1206,N-Back (New Version 2021),2021.1.4,119.6637449
Conditions/Version_2Pr/twoback(1)_v2.xlsx,New rule: Press 'space' when you see 2-back (i.e. the same letter as the one that appeared 2 letters ago.),P,None,,,,,0,2,2,2,0,1,1,1,,,,,,,,,,,,,,,,,,,,,,,,,,,,,,,,,,,,,,,,,,,1.19,215.3047515,None,216.4961029,None,None,1,,216.4961029,None,218.4956272,None,,,,,,,,,,,,,,,,,,,,,,,,,,,,,,,P044,fencog,2,Post,2022_May_25_1206,N-Back (New Version 2021),2021.1.4,119.6637449
Conditions/Version_2Pr/twoback(1)_v2.xlsx,New rule: Press 'space' when you see 2-back (i.e. the same letter as the one that appeared 2 letters ago.),o,None,,,,,0,2,2,2,0,2,2,2,,,,,,,,,,,,,,,,,,,,,,,,,,,,,,,,,,,,,,,,,,,1.24,219.9961709,None,221.2470821,None,None,1,,221.2470821,None,223.2442587,None,,,,,,,,,,,,,,,,,,,,,,,,,,,,,,,P044,fencog,2,Post,2022_May_25_1206,N-Back (New Version 2021),2021.1.4,119.6637449
Conditions/Version_2Pr/twoback(1)_v2.xlsx,New rule: Press 'space' when you see 2-back (i.e. the same letter as the one that appeared 2 letters ago.),p,space,,,,,0,2,2,2,0,3,3,3,,,,,,,,,,,,,,,,,,,,,,,,,,,,,,,,,,,,,,,,,,,1.54,224.7439825,None,226.2861235,None,space,1,0.4226732,226.2861235,None,226.7200502,None,,,,,,,,,,,,,,,,,,,,,,,,,,,,,,,P044,fencog,2,Post,2022_May_25_1206,N-Back (New Version 2021),2021.1.4,119.6637449
Conditions/Version_2Pr/twoback(1)_v2.xlsx,New rule: Press 'space' when you see 2-back (i.e. the same letter as the one that appeared 2 letters ago.),Y,None,,,,,0,2,2,2,0,4,4,4,,,,,,,,,,,,,,,,,,,,,,,,,,,,,,,,,,,,,,,,,,,1.465,228.2298752,None,229.701898,None,None,1,,229.701898,None,231.7085763,None,,,,,,,,,,,,,,,,,,,,,,,,,,,,,,,P044,fencog,2,Post,2022_May_25_1206,N-Back (New Version 2021),2021.1.4,119.6637449
Conditions/Version_2Pr/twoback(1)_v2.xlsx,New rule: Press 'space' when you see 2-back (i.e. the same letter as the one that appeared 2 letters ago.),q,None,,,,,0,2,2,2,0,5,5,5,,,,,,,,,,,,,,,,,,,,,,,,,,,,,,,,,,,,,,,,,,,1.615,233.2079292,None,234.8258101,None,None,1,,234.8258101,None,236.8321557,None,,,,,,,,,,,,,,,,,,,,,,,,,,,,,,,P044,fencog,2,Post,2022_May_25_1206,N-Back (New Version 2021),2021.1.4,119.6637449
Conditions/Version_2Pr/twoback(1)_v2.xlsx,New rule: Press 'space' when you see 2-back (i.e. the same letter as the one that appeared 2 letters ago.),m,None,,,,,0,2,2,2,0,6,6,6,,,,,,,,,,,,,,,,,,,,,,,,,,,,,,,,,,,,,,,,,,,1.765,238.3316929,None,240.0981803,None,None,1,,240.0981803,None,242.0972204,None,,,,,,,,,,,,,,,,,,,,,,,,,,,,,,,P044,fencog,2,Post,2022_May_25_1206,N-Back (New Version 2021),2021.1.4,119.6637449
Conditions/Version_2Pr/twoback(1)_v2.xlsx,New rule: Press 'space' when you see 2-back (i.e. the same letter as the one that appeared 2 letters ago.),Q,space,,,,,0,2,2,2,0,7,7,7,,,,,,,,,,,,,,,,,,,,,,,,,,,,,,,,,,,,,,,,,,,1.815,243.5967257,None,245.4143139,None,None,0,,245.4143139,None,247.4257022,None,,,,,,,,,,,,,,,,,,,,,,,,,,,,,,,P044,fencog,2,Post,2022_May_25_1206,N-Back (New Version 2021),2021.1.4,119.6637449
Conditions/Version_2Pr/twoback(1)_v2.xlsx,New rule: Press 'space' when you see 2-back (i.e. the same letter as the one that appeared 2 letters ago.),L,None,,,,,0,2,2,2,0,8,8,8,,,,,,,,,,,,,,,,,,,,,,,,,,,,,,,,,,,,,,,,,,,1.89,248.9202065,None,250.8148063,None,None,1,,250.8148063,None,252.8188898,None,,,,,,,,,,,,,,,,,,,,,,,,,,,,,,,P044,fencog,2,Post,2022_May_25_1206,N-Back (New Version 2021),2021.1.4,119.6637449
Conditions/Version_2Pr/twoback(1)_v2.xlsx,New rule: Press 'space' when you see 2-back (i.e. the same letter as the one that appeared 2 letters ago.),q,space,,,,,0,2,2,2,0,9,9,9,,,,,,,,,,,,,,,,,,,,,,,,,,,,,,,,,,,,,,,,,,,1.64,254.318618,None,255.9644341,None,space,1,0.8881856,255.9644341,None,256.8597623,None,,,,,,,,,,,,,,,,,,,,,,,,,,,,,,,P044,fencog,2,Post,2022_May_25_1206,N-Back (New Version 2021),2021.1.4,119.6637449
Conditions/Version_2Pr/twoback(1)_v2.xlsx,New rule: Press 'space' when you see 2-back (i.e. the same letter as the one that appeared 2 letters ago.),,,,,,,0,2,2,2,,,,,,,,,,,,,,,,,,,,,,,,,,,,,,,,,,,,,,,,,,,,,,,,,,,,,,,,,,,,,,,,,,,,,,,,,,,,,,,,,,,,,,,,,P044,fencog,2,Post,2022_May_25_1206,N-Back (New Version 2021),2021.1.4,119.6637449
Conditions/Version_2Pr/threeback(1)_v2.xlsx,New rule: Press 'space' when you see 3-back (i.e. the same letter as the one that appeared 3 letters ago.),u,None,,,,,0,3,3,3,0,0,0,0,,,,,,,,,,,,,,,,,,,,,,,,,,,,,,,,,258.386257,None,261.3684949,None,space,0.7243549,261.3684949,None,258.386257,None,1.49,262.1207717,None,263.6172704,None,None,1,,263.6172704,None,265.6236676,None,,,,,,,,,,,,,,,,,,,,,,,,,,,,,,,P044,fencog,2,Post,2022_May_25_1206,N-Back (New Version 2021),2021.1.4,119.6637449
Conditions/Version_2Pr/threeback(1)_v2.xlsx,New rule: Press 'space' when you see 3-back (i.e. the same letter as the one that appeared 3 letters ago.),U,None,,,,,0,3,3,3,0,1,1,1,,,,,,,,,,,,,,,,,,,,,,,,,,,,,,,,,,,,,,,,,,,1.515,267.123162,None,268.6409296,None,None,1,,268.6409296,None,270.647125,None,,,,,,,,,,,,,,,,,,,,,,,,,,,,,,,P044,fencog,2,Post,2022_May_25_1206,N-Back (New Version 2021),2021.1.4,119.6637449
Conditions/Version_2Pr/threeback(1)_v2.xlsx,New rule: Press 'space' when you see 3-back (i.e. the same letter as the one that appeared 3 letters ago.),p,None,,,,,0,3,3,3,0,2,2,2,,,,,,,,,,,,,,,,,,,,,,,,,,,,,,,,,,,,,,,,,,,1.94,272.1466305,None,274.0885727,None,None,1,,274.0885727,None,276.0870295,None,,,,,,,,,,,,,,,,,,,,,,,,,,,,,,,P044,fencog,2,Post,2022_May_25_1206,N-Back (New Version 2021),2021.1.4,119.6637449
Conditions/Version_2Pr/threeback(1)_v2.xlsx,New rule: Press 'space' when you see 3-back (i.e. the same letter as the one that appeared 3 letters ago.),U,space,,,,,0,3,3,3,0,3,3,3,,,,,,,,,,,,,,,,,,,,,,,,,,,,,,,,,,,,,,,,,,,1.915,277.5865248,None,279.5038245,None,space,1,0.413047,279.5038245,None,279.9292324,None,,,,,,,,,,,,,,,,,,,,,,,,,,,,,,,P044,fencog,2,Post,2022_May_25_1206,N-Back (New Version 2021),2021.1.4,119.6637449
Conditions/Version_2Pr/threeback(1)_v2.xlsx,New rule: Press 'space' when you see 3-back (i.e. the same letter as the one that appeared 3 letters ago.),e,None,,,,,0,3,3,3,0,4,4,4,,,,,,,,,,,,,,,,,,,,,,,,,,,,,,,,,,,,,,,,,,,1.69,281.4355856,None,283.1270423,None,None,1,,283.1270423,None,285.126244,None,,,,,,,,,,,,,,,,,,,,,,,,,,,,,,,P044,fencog,2,Post,2022_May_25_1206,N-Back (New Version 2021),2021.1.4,119.6637449
Conditions/Version_2Pr/threeback(1)_v2.xlsx,New rule: Press 'space' when you see 3-back (i.e. the same letter as the one that appeared 3 letters ago.),R,None,,,,,0,3,3,3,0,5,5,5,,,,,,,,,,,,,,,,,,,,,,,,,,,,,,,,,,,,,,,,,,,1.365,286.6256932,None,287.992851,None,None,1,,287.992851,None,289.9996914,None,,,,,,,,,,,,,,,,,,,,,,,,,,,,,,,P044,fencog,2,Post,2022_May_25_1206,N-Back (New Version 2021),2021.1.4,119.6637449
Conditions/Version_2Pr/threeback(1)_v2.xlsx,New rule: Press 'space' when you see 3-back (i.e. the same letter as the one that appeared 3 letters ago.),p,None,,,,,0,3,3,3,0,6,6,6,,,,,,,,,,,,,,,,,,,,,,,,,,,,,,,,,,,,,,,,,,,1.24,291.5000679,None,292.7422037,None,space,0,0.7104902,292.7422037,None,293.469487,None,,,,,,,,,,,,,,,,,,,,,,,,,,,,,,,P044,fencog,2,Post,2022_May_25_1206,N-Back (New Version 2021),2021.1.4,119.6637449
Conditions/Version_2Pr/threeback(1)_v2.xlsx,New rule: Press 'space' when you see 3-back (i.e. the same letter as the one that appeared 3 letters ago.),E,space,,,,,0,3,3,3,0,7,7,7,,,,,,,,,,,,,,,,,,,,,,,,,,,,,,,,,,,,,,,,,,,1.565,294.973238,None,296.5412195,None,None,0,,296.5412195,None,298.5487696,None,,,,,,,,,,,,,,,,,,,,,,,,,,,,,,,P044,fencog,2,Post,2022_May_25_1206,N-Back (New Version 2021),2021.1.4,119.6637449
Conditions/Version_2Pr/threeback(1)_v2.xlsx,New rule: Press 'space' when you see 3-back (i.e. the same letter as the one that appeared 3 letters ago.),k,None,,,,,0,3,3,3,0,8,8,8,,,,,,,,,,,,,,,,,,,,,,,,,,,,,,,,,,,,,,,,,,,1.74,300.0467535,None,301.7896475,None,None,1,,301.7896475,None,303.7954682,None,,,,,,,,,,,,,,,,,,,,,,,,,,,,,,,P044,fencog,2,Post,2022_May_25_1206,N-Back (New Version 2021),2021.1.4,119.6637449
Conditions/Version_2Pr/threeback(1)_v2.xlsx,New rule: Press 'space' when you see 3-back (i.e. the same letter as the one that appeared 3 letters ago.),m,None,,,,,0,3,3,3,0,9,9,9,,,,,,,,,,,,,,,,,,,,,,,,,,,,,,,,,,,,,,,,,,,1.09,305.2951136,None,306.3883138,None,space,0,1.120306,306.3883138,None,307.5345475,None,,,,,,,,,,,,,,,,,,,,,,,,,,,,,,,P044,fencog,2,Post,2022_May_25_1206,N-Back (New Version 2021),2021.1.4,119.6637449
Conditions/Version_2Pr/threeback(1)_v2.xlsx,New rule: Press 'space' when you see 3-back (i.e. the same letter as the one that appeared 3 letters ago.),,,,,,,0,3,3,3,,,,,,,,,,,,,,,,,,,,,,,,,,,,,,,,,,,,,,,,,,,,,,,,,,,,,,,,,,,,,,,,,,,,,,,,,,,,,,,,,,,,,,,,,P044,fencog,2,Post,2022_May_25_1206,N-Back (New Version 2021),2021.1.4,119.6637449
,,,,,,,,,,,,,,,,,,,,,,,,,,,,,,,,,,,,,,,,,,,,,,,,,,,,,,,,,,,,,,,,,,,,,,309.0471492,None,space,23.7245968,309.5359909,None,,,,,,,,,,,,,,,,,,,,,,,,,P044,fencog,2,Post,2022_May_25_1206,N-Back (New Version 2021),2021.1.4,119.6637449
,,,,,,,,,,,,,,,,,,,,,,,,,,,,,,,,,,,,,,,,,,,,,,,,,,,,,,,,,,,,,,,,,,,,,,,,,,,,333.3013768,None,space,8.1294228,333.7953111,None,,,,,,,,,,,,,,,,,,,P044,fencog,2,Post,2022_May_25_1206,N-Back (New Version 2021),2021.1.4,119.6637449
,,,,Conditions/Version_1/zeroback(1)_v1.xlsx,Rule: Press 'space' when you see the letter 'x' or 'X'.,b,None,,,,,,,,,0,0,0,0,0,0,0,0,,,,,,,,,,,,,,,,,,,,,,,,,,,,,,,,,,,,,,,,,,,,,,,,,,,,,,,,,,,342.044143,None,345.0262511,None,space,1.2185642,345.0262511,None,342.044143,None,1.2456,347.5255038,None,space,0,0.9439547,347.5255038,None,P044,fencog,2,Post,2022_May_25_1206,N-Back (New Version 2021),2021.1.4,119.6637449
,,,,Conditions/Version_1/zeroback(1)_v1.xlsx,Rule: Press 'space' when you see the letter 'x' or 'X'.,T,None,,,,,,,,,0,0,0,0,0,1,1,1,,,,,,,,,,,,,,,,,,,,,,,,,,,,,,,,,,,,,,,,,,,,,,,,,,,,,,,,,,,,,,,,,,,,,1.8346,351.3748553,None,None,1,,351.3748553,None,P044,fencog,2,Post,2022_May_25_1206,N-Back (New Version 2021),2021.1.4,119.6637449
,,,,Conditions/Version_1/zeroback(1)_v1.xlsx,Rule: Press 'space' when you see the letter 'x' or 'X'.,L,None,,,,,,,,,0,0,0,0,0,2,2,2,,,,,,,,,,,,,,,,,,,,,,,,,,,,,,,,,,,,,,,,,,,,,,,,,,,,,,,,,,,,,,,,,,,,,1.7912,355.1734565,None,None,1,,355.1734565,None,P044,fencog,2,Post,2022_May_25_1206,N-Back (New Version 2021),2021.1.4,119.6637449
,,,,Conditions/Version_1/zeroback(1)_v1.xlsx,Rule: Press 'space' when you see the letter 'x' or 'X'.,x,space,,,,,,,,,0,0,0,0,0,3,3,3,,,,,,,,,,,,,,,,,,,,,,,,,,,,,,,,,,,,,,,,,,,,,,,,,,,,,,,,,,,,,,,,,,,,,1.8904,359.0708157,None,space,1,0.3897392,359.0708157,None,P044,fencog,2,Post,2022_May_25_1206,N-Back (New Version 2021),2021.1.4,119.6637449
,,,,Conditions/Version_1/zeroback(1)_v1.xlsx,Rule: Press 'space' when you see the letter 'x' or 'X'.,o,None,,,,,,,,,0,0,0,0,0,4,4,4,,,,,,,,,,,,,,,,,,,,,,,,,,,,,,,,,,,,,,,,,,,,,,,,,,,,,,,,,,,,,,,,,,,,,1.7044,362.7780655,None,None,1,,362.7780655,None,P044,fencog,2,Post,2022_May_25_1206,N-Back (New Version 2021),2021.1.4,119.6637449
,,,,Conditions/Version_1/zeroback(1)_v1.xlsx,Rule: Press 'space' when you see the letter 'x' or 'X'.,P,None,,,,,,,,,0,0,0,0,0,5,5,5,,,,,,,,,,,,,,,,,,,,,,,,,,,,,,,,,,,,,,,,,,,,,,,,,,,,,,,,,,,,,,,,,,,,,1.599,366.3770406,None,None,1,,366.3770406,None,P044,fencog,2,Post,2022_May_25_1206,N-Back (New Version 2021),2021.1.4,119.6637449
,,,,Conditions/Version_1/zeroback(1)_v1.xlsx,Rule: Press 'space' when you see the letter 'x' or 'X'.,X,space,,,,,,,,,0,0,0,0,0,6,6,6,,,,,,,,,,,,,,,,,,,,,,,,,,,,,,,,,,,,,,,,,,,,,,,,,,,,,,,,,,,,,,,,,,,,,1.6424,370.0259941,None,space,1,0.4187372,370.0259941,None,P044,fencog,2,Post,2022_May_25_1206,N-Back (New Version 2021),2021.1.4,119.6637449
,,,,Conditions/Version_1/zeroback(1)_v1.xlsx,Rule: Press 'space' when you see the letter 'x' or 'X'.,n,None,,,,,,,,,0,0,0,0,0,7,7,7,,,,,,,,,,,,,,,,,,,,,,,,,,,,,,,,,,,,,,,,,,,,,,,,,,,,,,,,,,,,,,,,,,,,,1.7974,373.8269017,None,None,1,,373.8269017,None,P044,fencog,2,Post,2022_May_25_1206,N-Back (New Version 2021),2021.1.4,119.6637449
,,,,Conditions/Version_1/zeroback(1)_v1.xlsx,Rule: Press 'space' when you see the letter 'x' or 'X'.,M,None,,,,,,,,,0,0,0,0,0,8,8,8,,,,,,,,,,,,,,,,,,,,,,,,,,,,,,,,,,,,,,,,,,,,,,,,,,,,,,,,,,,,,,,,,,,,,1.8842,377.7238365,None,None,1,,377.7238365,None,P044,fencog,2,Post,2022_May_25_1206,N-Back (New Version 2021),2021.1.4,119.6637449
,,,,Conditions/Version_1/zeroback(1)_v1.xlsx,Rule: Press 'space' when you see the letter 'x' or 'X'.,a,None,,,,,,,,,0,0,0,0,0,9,9,9,,,,,,,,,,,,,,,,,,,,,,,,,,,,,,,,,,,,,,,,,,,,,,,,,,,,,,,,,,,,,,,,,,,,,1.0348,380.7663234,None,None,1,,380.7663234,None,P044,fencog,2,Post,2022_May_25_1206,N-Back (New Version 2021),2021.1.4,119.6637449
,,,,Conditions/Version_1/zeroback(1)_v1.xlsx,Rule: Press 'space' when you see the letter 'x' or 'X'.,,,,,,,,,,,0,0,0,0,,,,,,,,,,,,,,,,,,,,,,,,,,,,,,,,,,,,,,,,,,,,,,,,,,,,,,,,,,,,,,,,,,,,,,,,,,,,,,,,,P044,fencog,2,Post,2022_May_25_1206,N-Back (New Version 2021),2021.1.4,119.6637449
,,,,Conditions/Version_1/oneback(1)_v1.xlsx,New rule: Press 'space' when you see 1-back (i.e. the same letter as the one that appeared 1 letter ago.),b,None,,,,,,,,,0,1,1,1,0,0,0,0,,,,,,,,,,,,,,,,,,,,,,,,,,,,,,,,,,,,,,,,,,,,,,,,,,,,,,,,,,,382.792667,None,385.7806338,None,space,0.8722768,385.7806338,None,382.792667,None,1.1836,387.871787,None,None,1,,387.871787,None,P044,fencog,2,Post,2022_May_25_1206,N-Back (New Version 2021),2021.1.4,119.6637449
,,,,Conditions/Version_1/oneback(1)_v1.xlsx,New rule: Press 'space' when you see 1-back (i.e. the same letter as the one that appeared 1 letter ago.),p,None,,,,,,,,,0,1,1,1,0,1,1,1,,,,,,,,,,,,,,,,,,,,,,,,,,,,,,,,,,,,,,,,,,,,,,,,,,,,,,,,,,,,,,,,,,,,,1.6238,391.5101081,None,None,1,,391.5101081,None,P044,fencog,2,Post,2022_May_25_1206,N-Back (New Version 2021),2021.1.4,119.6637449
,,,,Conditions/Version_1/oneback(1)_v1.xlsx,New rule: Press 'space' when you see 1-back (i.e. the same letter as the one that appeared 1 letter ago.),M,None,,,,,,,,,0,1,1,1,0,2,2,2,,,,,,,,,,,,,,,,,,,,,,,,,,,,,,,,,,,,,,,,,,,,,,,,,,,,,,,,,,,,,,,,,,,,,1.289,394.8019243,None,None,1,,394.8019243,None,P044,fencog,2,Post,2022_May_25_1206,N-Back (New Version 2021),2021.1.4,119.6637449
,,,,Conditions/Version_1/oneback(1)_v1.xlsx,New rule: Press 'space' when you see 1-back (i.e. the same letter as the one that appeared 1 letter ago.),M,space,,,,,,,,,0,1,1,1,0,3,3,3,,,,,,,,,,,,,,,,,,,,,,,,,,,,,,,,,,,,,,,,,,,,,,,,,,,,,,,,,,,,,,,,,,,,,1.4502,398.2595523,None,space,1,0.5052486,398.2595523,None,P044,fencog,2,Post,2022_May_25_1206,N-Back (New Version 2021),2021.1.4,119.6637449
,,,,Conditions/Version_1/oneback(1)_v1.xlsx,New rule: Press 'space' when you see 1-back (i.e. the same letter as the one that appeared 1 letter ago.),n,None,,,,,,,,,0,1,1,1,0,4,4,4,,,,,,,,,,,,,,,,,,,,,,,,,,,,,,,,,,,,,,,,,,,,,,,,,,,,,,,,,,,,,,,,,,,,,1.6548,401.9164314,None,None,1,,401.9164314,None,P044,fencog,2,Post,2022_May_25_1206,N-Back (New Version 2021),2021.1.4,119.6637449
,,,,Conditions/Version_1/oneback(1)_v1.xlsx,New rule: Press 'space' when you see 1-back (i.e. the same letter as the one that appeared 1 letter ago.),g,None,,,,,,,,,0,1,1,1,0,5,5,5,,,,,,,,,,,,,,,,,,,,,,,,,,,,,,,,,,,,,,,,,,,,,,,,,,,,,,,,,,,,,,,,,,,,,1.3324,405.2505117,None,None,1,,405.2505117,None,P044,fencog,2,Post,2022_May_25_1206,N-Back (New Version 2021),2021.1.4,119.6637449
,,,,Conditions/Version_1/oneback(1)_v1.xlsx,New rule: Press 'space' when you see 1-back (i.e. the same letter as the one that appeared 1 letter ago.),P,None,,,,,,,,,0,1,1,1,0,6,6,6,,,,,,,,,,,,,,,,,,,,,,,,,,,,,,,,,,,,,,,,,,,,,,,,,,,,,,,,,,,,,,,,,,,,,1.4626,408.7240331,None,None,1,,408.7240331,None,P044,fencog,2,Post,2022_May_25_1206,N-Back (New Version 2021),2021.1.4,119.6637449
,,,,Conditions/Version_1/oneback(1)_v1.xlsx,New rule: Press 'space' when you see 1-back (i.e. the same letter as the one that appeared 1 letter ago.),o,None,,,,,,,,,0,1,1,1,0,7,7,7,,,,,,,,,,,,,,,,,,,,,,,,,,,,,,,,,,,,,,,,,,,,,,,,,,,,,,,,,,,,,,,,,,,,,1.2084,411.9410917,None,None,1,,411.9410917,None,P044,fencog,2,Post,2022_May_25_1206,N-Back (New Version 2021),2021.1.4,119.6637449
,,,,Conditions/Version_1/oneback(1)_v1.xlsx,New rule: Press 'space' when you see 1-back (i.e. the same letter as the one that appeared 1 letter ago.),f,None,,,,,,,,,0,1,1,1,0,8,8,8,,,,,,,,,,,,,,,,,,,,,,,,,,,,,,,,,,,,,,,,,,,,,,,,,,,,,,,,,,,,,,,,,,,,,1.847,415.7971936,None,None,1,,415.7971936,None,P044,fencog,2,Post,2022_May_25_1206,N-Back (New Version 2021),2021.1.4,119.6637449
,,,,Conditions/Version_1/oneback(1)_v1.xlsx,New rule: Press 'space' when you see 1-back (i.e. the same letter as the one that appeared 1 letter ago.),F,space,,,,,,,,,0,1,1,1,0,9,9,9,,,,,,,,,,,,,,,,,,,,,,,,,,,,,,,,,,,,,,,,,,,,,,,,,,,,,,,,,,,,,,,,,,,,,1.5804,419.3891133,None,space,1,0.5836566,419.3891133,None,P044,fencog,2,Post,2022_May_25_1206,N-Back (New Version 2021),2021.1.4,119.6637449
,,,,Conditions/Version_1/oneback(1)_v1.xlsx,New rule: Press 'space' when you see 1-back (i.e. the same letter as the one that appeared 1 letter ago.),,,,,,,,,,,0,1,1,1,,,,,,,,,,,,,,,,,,,,,,,,,,,,,,,,,,,,,,,,,,,,,,,,,,,,,,,,,,,,,,,,,,,,,,,,,,,,,,,,,P044,fencog,2,Post,2022_May_25_1206,N-Back (New Version 2021),2021.1.4,119.6637449
,,,,Conditions/Version_1/twoback(1)_v1.xlsx,New rule: Press 'space' when you see 2-back (i.e. the same letter as the one that appeared 2 letters ago.),b,None,,,,,,,,,0,2,2,2,0,0,0,0,,,,,,,,,,,,,,,,,,,,,,,,,,,,,,,,,,,,,,,,,,,,,,,,,,,,,,,,,,,421.4238895,None,424.3954226,None,space,0.4413903,424.3954226,None,421.4238895,None,1.4936,426.3600922,None,None,1,,426.3600922,None,P044,fencog,2,Post,2022_May_25_1206,N-Back (New Version 2021),2021.1.4,119.6637449
,,,,Conditions/Version_1/twoback(1)_v1.xlsx,New rule: Press 'space' when you see 2-back (i.e. the same letter as the one that appeared 2 letters ago.),h,None,,,,,,,,,0,2,2,2,0,1,1,1,,,,,,,,,,,,,,,,,,,,,,,,,,,,,,,,,,,,,,,,,,,,,,,,,,,,,,,,,,,,,,,,,,,,,1.63,430.0028142,None,None,1,,430.0028142,None,P044,fencog,2,Post,2022_May_25_1206,N-Back (New Version 2021),2021.1.4,119.6637449
,,,,Conditions/Version_1/twoback(1)_v1.xlsx,New rule: Press 'space' when you see 2-back (i.e. the same letter as the one that appeared 2 letters ago.),j,None,,,,,,,,,0,2,2,2,0,2,2,2,,,,,,,,,,,,,,,,,,,,,,,,,,,,,,,,,,,,,,,,,,,,,,,,,,,,,,,,,,,,,,,,,,,,,1.7292,433.741844,None,None,1,,433.741844,None,P044,fencog,2,Post,2022_May_25_1206,N-Back (New Version 2021),2021.1.4,119.6637449
,,,,Conditions/Version_1/twoback(1)_v1.xlsx,New rule: Press 'space' when you see 2-back (i.e. the same letter as the one that appeared 2 letters ago.),H,space,,,,,,,,,0,2,2,2,0,3,3,3,,,,,,,,,,,,,,,,,,,,,,,,,,,,,,,,,,,,,,,,,,,,,,,,,,,,,,,,,,,,,,,,,,,,,1.599,437.3502398,None,space,1,0.3345014,437.3502398,None,P044,fencog,2,Post,2022_May_25_1206,N-Back (New Version 2021),2021.1.4,119.6637449
,,,,Conditions/Version_1/twoback(1)_v1.xlsx,New rule: Press 'space' when you see 2-back (i.e. the same letter as the one that appeared 2 letters ago.),p,None,,,,,,,,,0,2,2,2,0,4,4,4,,,,,,,,,,,,,,,,,,,,,,,,,,,,,,,,,,,,,,,,,,,,,,,,,,,,,,,,,,,,,,,,,,,,,1.3944,440.754946,None,None,1,,440.754946,None,P044,fencog,2,Post,2022_May_25_1206,N-Back (New Version 2021),2021.1.4,119.6637449
,,,,Conditions/Version_1/twoback(1)_v1.xlsx,New rule: Press 'space' when you see 2-back (i.e. the same letter as the one that appeared 2 letters ago.),p,None,,,,,,,,,0,2,2,2,0,5,5,5,,,,,,,,,,,,,,,,,,,,,,,,,,,,,,,,,,,,,,,,,,,,,,,,,,,,,,,,,,,,,,,,,,,,,1.4564,444.2208723,None,None,1,,444.2208723,None,P044,fencog,2,Post,2022_May_25_1206,N-Back (New Version 2021),2021.1.4,119.6637449
,,,,Conditions/Version_1/twoback(1)_v1.xlsx,New rule: Press 'space' when you see 2-back (i.e. the same letter as the one that appeared 2 letters ago.),w,None,,,,,,,,,0,2,2,2,0,6,6,6,,,,,,,,,,,,,,,,,,,,,,,,,,,,,,,,,,,,,,,,,,,,,,,,,,,,,,,,,,,,,,,,,,,,,1.6362,447.8639448,None,None,1,,447.8639448,None,P044,fencog,2,Post,2022_May_25_1206,N-Back (New Version 2021),2021.1.4,119.6637449
,,,,Conditions/Version_1/twoback(1)_v1.xlsx,New rule: Press 'space' when you see 2-back (i.e. the same letter as the one that appeared 2 letters ago.),R,None,,,,,,,,,0,2,2,2,0,7,7,7,,,,,,,,,,,,,,,,,,,,,,,,,,,,,,,,,,,,,,,,,,,,,,,,,,,,,,,,,,,,,,,,,,,,,1.847,451.7184428,None,None,1,,451.7184428,None,P044,fencog,2,Post,2022_May_25_1206,N-Back (New Version 2021),2021.1.4,119.6637449
,,,,Conditions/Version_1/twoback(1)_v1.xlsx,New rule: Press 'space' when you see 2-back (i.e. the same letter as the one that appeared 2 letters ago.),a,None,,,,,,,,,0,2,2,2,0,8,8,8,,,,,,,,,,,,,,,,,,,,,,,,,,,,,,,,,,,,,,,,,,,,,,,,,,,,,,,,,,,,,,,,,,,,,1.444,455.1686018,None,None,1,,455.1686018,None,P044,fencog,2,Post,2022_May_25_1206,N-Back (New Version 2021),2021.1.4,119.6637449
,,,,Conditions/Version_1/twoback(1)_v1.xlsx,New rule: Press 'space' when you see 2-back (i.e. the same letter as the one that appeared 2 letters ago.),r,space,,,,,,,,,0,2,2,2,0,9,9,9,,,,,,,,,,,,,,,,,,,,,,,,,,,,,,,,,,,,,,,,,,,,,,,,,,,,,,,,,,,,,,,,,,,,,1.8098,458.9910819,None,space,1,0.5179622,458.9910819,None,P044,fencog,2,Post,2022_May_25_1206,N-Back (New Version 2021),2021.1.4,119.6637449
,,,,Conditions/Version_1/twoback(1)_v1.xlsx,New rule: Press 'space' when you see 2-back (i.e. the same letter as the one that appeared 2 letters ago.),,,,,,,,,,,0,2,2,2,,,,,,,,,,,,,,,,,,,,,,,,,,,,,,,,,,,,,,,,,,,,,,,,,,,,,,,,,,,,,,,,,,,,,,,,,,,,,,,,,P044,fencog,2,Post,2022_May_25_1206,N-Back (New Version 2021),2021.1.4,119.6637449
,,,,Conditions/Version_1/threeback(1)_v1.xlsx,New rule: Press 'space' when you see 3-back (i.e. the same letter as the one that appeared 3 letters ago.),r,None,,,,,,,,,0,3,3,3,0,0,0,0,,,,,,,,,,,,,,,,,,,,,,,,,,,,,,,,,,,,,,,,,,,,,,,,,,,,,,,,,,,461.0125355,None,464.0004924,None,space,1.2841448,464.0004924,None,461.0125355,None,1.4006,466.714229,None,None,1,,466.714229,None,P044,fencog,2,Post,2022_May_25_1206,N-Back (New Version 2021),2021.1.4,119.6637449
,,,,Conditions/Version_1/threeback(1)_v1.xlsx,New rule: Press 'space' when you see 3-back (i.e. the same letter as the one that appeared 3 letters ago.),o,None,,,,,,,,,0,3,3,3,0,1,1,1,,,,,,,,,,,,,,,,,,,,,,,,,,,,,,,,,,,,,,,,,,,,,,,,,,,,,,,,,,,,,,,,,,,,,1.5184,470.2380692,None,None,1,,470.2380692,None,P044,fencog,2,Post,2022_May_25_1206,N-Back (New Version 2021),2021.1.4,119.6637449
,,,,Conditions/Version_1/threeback(1)_v1.xlsx,New rule: Press 'space' when you see 3-back (i.e. the same letter as the one that appeared 3 letters ago.),P,None,,,,,,,,,0,3,3,3,0,2,2,2,,,,,,,,,,,,,,,,,,,,,,,,,,,,,,,,,,,,,,,,,,,,,,,,,,,,,,,,,,,,,,,,,,,,,1.661,473.9033699,None,None,1,,473.9033699,None,P044,fencog,2,Post,2022_May_25_1206,N-Back (New Version 2021),2021.1.4,119.6637449
,,,,Conditions/Version_1/threeback(1)_v1.xlsx,New rule: Press 'space' when you see 3-back (i.e. the same letter as the one that appeared 3 letters ago.),R,space,,,,,,,,,0,3,3,3,0,3,3,3,,,,,,,,,,,,,,,,,,,,,,,,,,,,,,,,,,,,,,,,,,,,,,,,,,,,,,,,,,,,,,,,,,,,,1.0472,476.9526102,None,space,1,0.460065,476.9526102,None,P044,fencog,2,Post,2022_May_25_1206,N-Back (New Version 2021),2021.1.4,119.6637449
,,,,Conditions/Version_1/threeback(1)_v1.xlsx,New rule: Press 'space' when you see 3-back (i.e. the same letter as the one that appeared 3 letters ago.),p,None,,,,,,,,,0,3,3,3,0,4,4,4,,,,,,,,,,,,,,,,,,,,,,,,,,,,,,,,,,,,,,,,,,,,,,,,,,,,,,,,,,,,,,,,,,,,,1.9834,480.9357732,None,None,1,,480.9357732,None,P044,fencog,2,Post,2022_May_25_1206,N-Back (New Version 2021),2021.1.4,119.6637449
,,,,Conditions/Version_1/threeback(1)_v1.xlsx,New rule: Press 'space' when you see 3-back (i.e. the same letter as the one that appeared 3 letters ago.),E,None,,,,,,,,,0,3,3,3,0,5,5,5,,,,,,,,,,,,,,,,,,,,,,,,,,,,,,,,,,,,,,,,,,,,,,,,,,,,,,,,,,,,,,,,,,,,,1.0658,484.0092355,None,None,1,,484.0092355,None,P044,fencog,2,Post,2022_May_25_1206,N-Back (New Version 2021),2021.1.4,119.6637449
,,,,Conditions/Version_1/threeback(1)_v1.xlsx,New rule: Press 'space' when you see 3-back (i.e. the same letter as the one that appeared 3 letters ago.),e,None,,,,,,,,,0,3,3,3,0,6,6,6,,,,,,,,,,,,,,,,,,,,,,,,,,,,,,,,,,,,,,,,,,,,,,,,,,,,,,,,,,,,,,,,,,,,,1.6672,487.6828043,None,space,0,1.0978152,487.6828043,None,P044,fencog,2,Post,2022_May_25_1206,N-Back (New Version 2021),2021.1.4,119.6637449
,,,,Conditions/Version_1/threeback(1)_v1.xlsx,New rule: Press 'space' when you see 3-back (i.e. the same letter as the one that appeared 3 letters ago.),m,None,,,,,,,,,0,3,3,3,0,7,7,7,,,,,,,,,,,,,,,,,,,,,,,,,,,,,,,,,,,,,,,,,,,,,,,,,,,,,,,,,,,,,,,,,,,,,1.878,491.5656663,None,None,1,,491.5656663,None,P044,fencog,2,Post,2022_May_25_1206,N-Back (New Version 2021),2021.1.4,119.6637449
,,,,Conditions/Version_1/threeback(1)_v1.xlsx,New rule: Press 'space' when you see 3-back (i.e. the same letter as the one that appeared 3 letters ago.),n,None,,,,,,,,,0,3,3,3,0,8,8,8,,,,,,,,,,,,,,,,,,,,,,,,,,,,,,,,,,,,,,,,,,,,,,,,,,,,,,,,,,,,,,,,,,,,,1.4378,495.0056067,None,None,1,,495.0056067,None,P044,fencog,2,Post,2022_May_25_1206,N-Back (New Version 2021),2021.1.4,119.6637449
,,,,Conditions/Version_1/threeback(1)_v1.xlsx,New rule: Press 'space' when you see 3-back (i.e. the same letter as the one that appeared 3 letters ago.),e,space,,,,,,,,,0,3,3,3,0,9,9,9,,,,,,,,,,,,,,,,,,,,,,,,,,,,,,,,,,,,,,,,,,,,,,,,,,,,,,,,,,,,,,,,,,,,,1.5618,498.5713548,None,space,1,0.4332478,498.5713548,None,P044,fencog,2,Post,2022_May_25_1206,N-Back (New Version 2021),2021.1.4,119.6637449
,,,,Conditions/Version_1/threeback(1)_v1.xlsx,New rule: Press 'space' when you see 3-back (i.e. the same letter as the one that appeared 3 letters ago.),,,,,,,,,,,0,3,3,3,,,,,,,,,,,,,,,,,,,,,,,,,,,,,,,,,,,,,,,,,,,,,,,,,,,,,,,,,,,,,,,,,,,,,,,,,,,,,,,,,P044,fencog,2,Post,2022_May_25_1206,N-Back (New Version 2021),2021.1.4,119.6637449
,,,,Conditions/Version_1/oneback(2)_v1.xlsx,New rule: Press 'space' when you see 1-back (i.e. the same letter as the one that appeared 1 letter ago.),q,None,,,,,,,,,0,4,4,4,0,0,0,0,,,,,,,,,,,,,,,,,,,,,,,,,,,,,,,,,,,,,,,,,,,,,,,,,,,,,,,,,,,500.5951005,None,503.5724047,None,space,0.6719782,503.5724047,None,500.5951005,None,1.9896,506.2771228,None,None,1,,506.2771228,None,P044,fencog,2,Post,2022_May_25_1206,N-Back (New Version 2021),2021.1.4,119.6637449
,,,,Conditions/Version_1/oneback(2)_v1.xlsx,New rule: Press 'space' when you see 1-back (i.e. the same letter as the one that appeared 1 letter ago.),Q,space,,,,,,,,,0,4,4,4,0,1,1,1,,,,,,,,,,,,,,,,,,,,,,,,,,,,,,,,,,,,,,,,,,,,,,,,,,,,,,,,,,,,,,,,,,,,,1.506,509.7845555,None,space,1,0.4445474,509.7845555,None,P044,fencog,2,Post,2022_May_25_1206,N-Back (New Version 2021),2021.1.4,119.6637449
,,,,Conditions/Version_1/oneback(2)_v1.xlsx,New rule: Press 'space' when you see 1-back (i.e. the same letter as the one that appeared 1 letter ago.),P,None,,,,,,,,,0,4,4,4,0,2,2,2,,,,,,,,,,,,,,,,,,,,,,,,,,,,,,,,,,,,,,,,,,,,,,,,,,,,,,,,,,,,,,,,,,,,,1.816,513.5999733,None,None,1,,513.5999733,None,P044,fencog,2,Post,2022_May_25_1206,N-Back (New Version 2021),2021.1.4,119.6637449
,,,,Conditions/Version_1/oneback(2)_v1.xlsx,New rule: Press 'space' when you see 1-back (i.e. the same letter as the one that appeared 1 letter ago.),o,None,,,,,,,,,0,4,4,4,0,3,3,3,,,,,,,,,,,,,,,,,,,,,,,,,,,,,,,,,,,,,,,,,,,,,,,,,,,,,,,,,,,,,,,,,,,,,1.1774,516.7860719,None,None,1,,516.7860719,None,P044,fencog,2,Post,2022_May_25_1206,N-Back (New Version 2021),2021.1.4,119.6637449
,,,,Conditions/Version_1/oneback(2)_v1.xlsx,New rule: Press 'space' when you see 1-back (i.e. the same letter as the one that appeared 1 letter ago.),m,None,,,,,,,,,0,4,4,4,0,4,4,4,,,,,,,,,,,,,,,,,,,,,,,,,,,,,,,,,,,,,,,,,,,,,,,,,,,,,,,,,,,,,,,,,,,,,1.2332,520.0231328,None,None,1,,520.0231328,None,P044,fencog,2,Post,2022_May_25_1206,N-Back (New Version 2021),2021.1.4,119.6637449
,,,,Conditions/Version_1/oneback(2)_v1.xlsx,New rule: Press 'space' when you see 1-back (i.e. the same letter as the one that appeared 1 letter ago.),Z,None,,,,,,,,,0,4,4,4,0,5,5,5,,,,,,,,,,,,,,,,,,,,,,,,,,,,,,,,,,,,,,,,,,,,,,,,,,,,,,,,,,,,,,,,,,,,,1.9276,523.9568029,None,None,1,,523.9568029,None,P044,fencog,2,Post,2022_May_25_1206,N-Back (New Version 2021),2021.1.4,119.6637449
,,,,Conditions/Version_1/oneback(2)_v1.xlsx,New rule: Press 'space' when you see 1-back (i.e. the same letter as the one that appeared 1 letter ago.),c,None,,,,,,,,,0,4,4,4,0,6,6,6,,,,,,,,,,,,,,,,,,,,,,,,,,,,,,,,,,,,,,,,,,,,,,,,,,,,,,,,,,,,,,,,,,,,,1.351,527.3214819,None,None,1,,527.3214819,None,P044,fencog,2,Post,2022_May_25_1206,N-Back (New Version 2021),2021.1.4,119.6637449
,,,,Conditions/Version_1/oneback(2)_v1.xlsx,New rule: Press 'space' when you see 1-back (i.e. the same letter as the one that appeared 1 letter ago.),c,space,,,,,,,,,0,4,4,4,0,7,7,7,,,,,,,,,,,,,,,,,,,,,,,,,,,,,,,,,,,,,,,,,,,,,,,,,,,,,,,,,,,,,,,,,,,,,1.878,531.2113599,None,space,1,0.4731317,531.2113599,None,P044,fencog,2,Post,2022_May_25_1206,N-Back (New Version 2021),2021.1.4,119.6637449
,,,,Conditions/Version_1/oneback(2)_v1.xlsx,New rule: Press 'space' when you see 1-back (i.e. the same letter as the one that appeared 1 letter ago.),P,None,,,,,,,,,0,4,4,4,0,8,8,8,,,,,,,,,,,,,,,,,,,,,,,,,,,,,,,,,,,,,,,,,,,,,,,,,,,,,,,,,,,,,,,,,,,,,1.0658,534.2786681,None,None,1,,534.2786681,None,P044,fencog,2,Post,2022_May_25_1206,N-Back (New Version 2021),2021.1.4,119.6637449
,,,,Conditions/Version_1/oneback(2)_v1.xlsx,New rule: Press 'space' when you see 1-back (i.e. the same letter as the one that appeared 1 letter ago.),p,space,,,,,,,,,0,4,4,4,0,9,9,9,,,,,,,,,,,,,,,,,,,,,,,,,,,,,,,,,,,,,,,,,,,,,,,,,,,,,,,,,,,,,,,,,,,,,1.9028,538.1938295,None,None,0,,538.1938295,None,P044,fencog,2,Post,2022_May_25_1206,N-Back (New Version 2021),2021.1.4,119.6637449
,,,,Conditions/Version_1/oneback(2)_v1.xlsx,New rule: Press 'space' when you see 1-back (i.e. the same letter as the one that appeared 1 letter ago.),,,,,,,,,,,0,4,4,4,,,,,,,,,,,,,,,,,,,,,,,,,,,,,,,,,,,,,,,,,,,,,,,,,,,,,,,,,,,,,,,,,,,,,,,,,,,,,,,,,P044,fencog,2,Post,2022_May_25_1206,N-Back (New Version 2021),2021.1.4,119.6637449
,,,,Conditions/Version_1/zeroback(2)_v1.xlsx,New rule: Press 'space' when you see the letter 'x' or 'X'.,p,None,,,,,,,,,0,5,5,5,0,0,0,0,,,,,,,,,,,,,,,,,,,,,,,,,,,,,,,,,,,,,,,,,,,,,,,,,,,,,,,,,,,540.2192121,None,543.2019421,None,space,0.4425768,543.2019421,None,540.2192121,None,1.1402,544.8158946,None,None,1,,544.8158946,None,P044,fencog,2,Post,2022_May_25_1206,N-Back (New Version 2021),2021.1.4,119.6637449
,,,,Conditions/Version_1/zeroback(2)_v1.xlsx,New rule: Press 'space' when you see the letter 'x' or 'X'.,L,None,,,,,,,,,0,5,5,5,0,1,1,1,,,,,,,,,,,,,,,,,,,,,,,,,,,,,,,,,,,,,,,,,,,,,,,,,,,,,,,,,,,,,,,,,,,,,1.1526,547.9818695,None,None,1,,547.9818695,None,P044,fencog,2,Post,2022_May_25_1206,N-Back (New Version 2021),2021.1.4,119.6637449
,,,,Conditions/Version_1/zeroback(2)_v1.xlsx,New rule: Press 'space' when you see the letter 'x' or 'X'.,G,None,,,,,,,,,0,5,5,5,0,2,2,2,,,,,,,,,,,,,,,,,,,,,,,,,,,,,,,,,,,,,,,,,,,,,,,,,,,,,,,,,,,,,,,,,,,,,1.5494,551.5336441,None,None,1,,551.5336441,None,P044,fencog,2,Post,2022_May_25_1206,N-Back (New Version 2021),2021.1.4,119.6637449
,,,,Conditions/Version_1/zeroback(2)_v1.xlsx,New rule: Press 'space' when you see the letter 'x' or 'X'.,y,None,,,,,,,,,0,5,5,5,0,3,3,3,,,,,,,,,,,,,,,,,,,,,,,,,,,,,,,,,,,,,,,,,,,,,,,,,,,,,,,,,,,,,,,,,,,,,1.8036,555.3462943,None,None,1,,555.3462943,None,P044,fencog,2,Post,2022_May_25_1206,N-Back (New Version 2021),2021.1.4,119.6637449
,,,,Conditions/Version_1/zeroback(2)_v1.xlsx,New rule: Press 'space' when you see the letter 'x' or 'X'.,Y,None,,,,,,,,,0,5,5,5,0,4,4,4,,,,,,,,,,,,,,,,,,,,,,,,,,,,,,,,,,,,,,,,,,,,,,,,,,,,,,,,,,,,,,,,,,,,,1.785,559.1373799,None,None,1,,559.1373799,None,P044,fencog,2,Post,2022_May_25_1206,N-Back (New Version 2021),2021.1.4,119.6637449
,,,,Conditions/Version_1/zeroback(2)_v1.xlsx,New rule: Press 'space' when you see the letter 'x' or 'X'.,W,None,,,,,,,,,0,5,5,5,0,5,5,5,,,,,,,,,,,,,,,,,,,,,,,,,,,,,,,,,,,,,,,,,,,,,,,,,,,,,,,,,,,,,,,,,,,,,1.0658,562.2122229,None,None,1,,562.2122229,None,P044,fencog,2,Post,2022_May_25_1206,N-Back (New Version 2021),2021.1.4,119.6637449
,,,,Conditions/Version_1/zeroback(2)_v1.xlsx,New rule: Press 'space' when you see the letter 'x' or 'X'.,x,space,,,,,,,,,0,5,5,5,0,6,6,6,,,,,,,,,,,,,,,,,,,,,,,,,,,,,,,,,,,,,,,,,,,,,,,,,,,,,,,,,,,,,,,,,,,,,1.7726,565.9950455,None,space,1,0.7058016,565.9950455,None,P044,fencog,2,Post,2022_May_25_1206,N-Back (New Version 2021),2021.1.4,119.6637449
,,,,Conditions/Version_1/zeroback(2)_v1.xlsx,New rule: Press 'space' when you see the letter 'x' or 'X'.,X,space,,,,,,,,,0,5,5,5,0,7,7,7,,,,,,,,,,,,,,,,,,,,,,,,,,,,,,,,,,,,,,,,,,,,,,,,,,,,,,,,,,,,,,,,,,,,,1.9958,570.000112,None,space,1,0.644139,570.000112,None,P044,fencog,2,Post,2022_May_25_1206,N-Back (New Version 2021),2021.1.4,119.6637449
,,,,Conditions/Version_1/zeroback(2)_v1.xlsx,New rule: Press 'space' when you see the letter 'x' or 'X'.,p,None,,,,,,,,,0,5,5,5,0,8,8,8,,,,,,,,,,,,,,,,,,,,,,,,,,,,,,,,,,,,,,,,,,,,,,,,,,,,,,,,,,,,,,,,,,,,,1.4502,573.4531715,None,None,1,,573.4531715,None,P044,fencog,2,Post,2022_May_25_1206,N-Back (New Version 2021),2021.1.4,119.6637449
,,,,Conditions/Version_1/zeroback(2)_v1.xlsx,New rule: Press 'space' when you see the letter 'x' or 'X'.,h,None,,,,,,,,,0,5,5,5,0,9,9,9,,,,,,,,,,,,,,,,,,,,,,,,,,,,,,,,,,,,,,,,,,,,,,,,,,,,,,,,,,,,,,,,,,,,,1.63,577.0922181,None,None,1,,577.0922181,None,P044,fencog,2,Post,2022_May_25_1206,N-Back (New Version 2021),2021.1.4,119.6637449
,,,,Conditions/Version_1/zeroback(2)_v1.xlsx,New rule: Press 'space' when you see the letter 'x' or 'X'.,,,,,,,,,,,0,5,5,5,,,,,,,,,,,,,,,,,,,,,,,,,,,,,,,,,,,,,,,,,,,,,,,,,,,,,,,,,,,,,,,,,,,,,,,,,,,,,,,,,P044,fencog,2,Post,2022_May_25_1206,N-Back (New Version 2021),2021.1.4,119.6637449
,,,,Conditions/Version_1/threeback(2)_v1.xlsx,New rule: Press 'space' when you see 3-back (i.e. the same letter as the one that appeared 3 letters ago.),q,None,,,,,,,,,0,6,6,6,0,0,0,0,,,,,,,,,,,,,,,,,,,,,,,,,,,,,,,,,,,,,,,,,,,,,,,,,,,,,,,,,,,579.1302798,None,582.1072101,None,space,0.7291835,582.1072101,None,579.1302798,None,1.1464,584.0211496,None,None,1,,584.0211496,None,P044,fencog,2,Post,2022_May_25_1206,N-Back (New Version 2021),2021.1.4,119.6637449
,,,,Conditions/Version_1/threeback(2)_v1.xlsx,New rule: Press 'space' when you see 3-back (i.e. the same letter as the one that appeared 3 letters ago.),Y,None,,,,,,,,,0,6,6,6,0,1,1,1,,,,,,,,,,,,,,,,,,,,,,,,,,,,,,,,,,,,,,,,,,,,,,,,,,,,,,,,,,,,,,,,,,,,,1.2332,587.2618274,None,None,1,,587.2618274,None,P044,fencog,2,Post,2022_May_25_1206,N-Back (New Version 2021),2021.1.4,119.6637449
,,,,Conditions/Version_1/threeback(2)_v1.xlsx,New rule: Press 'space' when you see 3-back (i.e. the same letter as the one that appeared 3 letters ago.),p,None,,,,,,,,,0,6,6,6,0,2,2,2,,,,,,,,,,,,,,,,,,,,,,,,,,,,,,,,,,,,,,,,,,,,,,,,,,,,,,,,,,,,,,,,,,,,,1.785,591.0542024,None,None,1,,591.0542024,None,P044,fencog,2,Post,2022_May_25_1206,N-Back (New Version 2021),2021.1.4,119.6637449
,,,,Conditions/Version_1/threeback(2)_v1.xlsx,New rule: Press 'space' when you see 3-back (i.e. the same letter as the one that appeared 3 letters ago.),p,None,,,,,,,,,0,6,6,6,0,3,3,3,,,,,,,,,,,,,,,,,,,,,,,,,,,,,,,,,,,,,,,,,,,,,,,,,,,,,,,,,,,,,,,,,,,,,1.9276,594.9929697,None,None,1,,594.9929697,None,P044,fencog,2,Post,2022_May_25_1206,N-Back (New Version 2021),2021.1.4,119.6637449
,,,,Conditions/Version_1/threeback(2)_v1.xlsx,New rule: Press 'space' when you see 3-back (i.e. the same letter as the one that appeared 3 letters ago.),y,space,,,,,,,,,0,6,6,6,0,4,4,4,,,,,,,,,,,,,,,,,,,,,,,,,,,,,,,,,,,,,,,,,,,,,,,,,,,,,,,,,,,,,,,,,,,,,1.6052,598.6082735,None,space,1,0.5083006,598.6082735,None,P044,fencog,2,Post,2022_May_25_1206,N-Back (New Version 2021),2021.1.4,119.6637449
,,,,Conditions/Version_1/threeback(2)_v1.xlsx,New rule: Press 'space' when you see 3-back (i.e. the same letter as the one that appeared 3 letters ago.),u,None,,,,,,,,,0,6,6,6,0,5,5,5,,,,,,,,,,,,,,,,,,,,,,,,,,,,,,,,,,,,,,,,,,,,,,,,,,,,,,,,,,,,,,,,,,,,,1.4254,602.0471698,None,None,1,,602.0471698,None,P044,fencog,2,Post,2022_May_25_1206,N-Back (New Version 2021),2021.1.4,119.6637449
,,,,Conditions/Version_1/threeback(2)_v1.xlsx,New rule: Press 'space' when you see 3-back (i.e. the same letter as the one that appeared 3 letters ago.),P,space,,,,,,,,,0,6,6,6,0,6,6,6,,,,,,,,,,,,,,,,,,,,,,,,,,,,,,,,,,,,,,,,,,,,,,,,,,,,,,,,,,,,,,,,,,,,,1.3758,605.4313479,None,space,1,0.461598,605.4313479,None,P044,fencog,2,Post,2022_May_25_1206,N-Back (New Version 2021),2021.1.4,119.6637449
,,,,Conditions/Version_1/threeback(2)_v1.xlsx,New rule: Press 'space' when you see 3-back (i.e. the same letter as the one that appeared 3 letters ago.),a,None,,,,,,,,,0,6,6,6,0,7,7,7,,,,,,,,,,,,,,,,,,,,,,,,,,,,,,,,,,,,,,,,,,,,,,,,,,,,,,,,,,,,,,,,,,,,,1.227,608.6648122,None,None,1,,608.6648122,None,P044,fencog,2,Post,2022_May_25_1206,N-Back (New Version 2021),2021.1.4,119.6637449
,,,,Conditions/Version_1/threeback(2)_v1.xlsx,New rule: Press 'space' when you see 3-back (i.e. the same letter as the one that appeared 3 letters ago.),U,space,,,,,,,,,0,6,6,6,0,8,8,8,,,,,,,,,,,,,,,,,,,,,,,,,,,,,,,,,,,,,,,,,,,,,,,,,,,,,,,,,,,,,,,,,,,,,1.7912,612.4646818,None,space,1,0.3558178,612.4646818,None,P044,fencog,2,Post,2022_May_25_1206,N-Back (New Version 2021),2021.1.4,119.6637449
,,,,Conditions/Version_1/threeback(2)_v1.xlsx,New rule: Press 'space' when you see 3-back (i.e. the same letter as the one that appeared 3 letters ago.),q,None,,,,,,,,,0,6,6,6,0,9,9,9,,,,,,,,,,,,,,,,,,,,,,,,,,,,,,,,,,,,,,,,,,,,,,,,,,,,,,,,,,,,,,,,,,,,,1.0658,615.540196,None,None,1,,615.540196,None,P044,fencog,2,Post,2022_May_25_1206,N-Back (New Version 2021),2021.1.4,119.6637449
,,,,Conditions/Version_1/threeback(2)_v1.xlsx,New rule: Press 'space' when you see 3-back (i.e. the same letter as the one that appeared 3 letters ago.),,,,,,,,,,,0,6,6,6,,,,,,,,,,,,,,,,,,,,,,,,,,,,,,,,,,,,,,,,,,,,,,,,,,,,,,,,,,,,,,,,,,,,,,,,,,,,,,,,,P044,fencog,2,Post,2022_May_25_1206,N-Back (New Version 2021),2021.1.4,119.6637449
,,,,Conditions/Version_1/twoback(2)_v1.xlsx,New rule: Press 'space' when you see 2-back (i.e. the same letter as the one that appeared 2 letters ago.),q,None,,,,,,,,,0,7,7,7,0,0,0,0,,,,,,,,,,,,,,,,,,,,,,,,,,,,,,,,,,,,,,,,,,,,,,,,,,,,,,,,,,,617.5664654,None,620.5542239,None,space,0.6740054,620.5542239,None,617.5664654,None,1.4874,622.7426658,None,None,1,,622.7426658,None,P044,fencog,2,Post,2022_May_25_1206,N-Back (New Version 2021),2021.1.4,119.6637449
,,,,Conditions/Version_1/twoback(2)_v1.xlsx,New rule: Press 'space' when you see 2-back (i.e. the same letter as the one that appeared 2 letters ago.),r,None,,,,,,,,,0,7,7,7,0,1,1,1,,,,,,,,,,,,,,,,,,,,,,,,,,,,,,,,,,,,,,,,,,,,,,,,,,,,,,,,,,,,,,,,,,,,,1.258,626.0003854,None,None,1,,626.0003854,None,P044,fencog,2,Post,2022_May_25_1206,N-Back (New Version 2021),2021.1.4,119.6637449
,,,,Conditions/Version_1/twoback(2)_v1.xlsx,New rule: Press 'space' when you see 2-back (i.e. the same letter as the one that appeared 2 letters ago.),q,space,,,,,,,,,0,7,7,7,0,2,2,2,,,,,,,,,,,,,,,,,,,,,,,,,,,,,,,,,,,,,,,,,,,,,,,,,,,,,,,,,,,,,,,,,,,,,1.4564,629.4586993,None,space,1,0.873991,629.4586993,None,P044,fencog,2,Post,2022_May_25_1206,N-Back (New Version 2021),2021.1.4,119.6637449
,,,,Conditions/Version_1/twoback(2)_v1.xlsx,New rule: Press 'space' when you see 2-back (i.e. the same letter as the one that appeared 2 letters ago.),P,None,,,,,,,,,0,7,7,7,0,3,3,3,,,,,,,,,,,,,,,,,,,,,,,,,,,,,,,,,,,,,,,,,,,,,,,,,,,,,,,,,,,,,,,,,,,,,1.7912,633.2578777,None,None,1,,633.2578777,None,P044,fencog,2,Post,2022_May_25_1206,N-Back (New Version 2021),2021.1.4,119.6637449
,,,,Conditions/Version_1/twoback(2)_v1.xlsx,New rule: Press 'space' when you see 2-back (i.e. the same letter as the one that appeared 2 letters ago.),p,None,,,,,,,,,0,7,7,7,0,4,4,4,,,,,,,,,,,,,,,,,,,,,,,,,,,,,,,,,,,,,,,,,,,,,,,,,,,,,,,,,,,,,,,,,,,,,1.3696,636.6387579,None,None,1,,636.6387579,None,P044,fencog,2,Post,2022_May_25_1206,N-Back (New Version 2021),2021.1.4,119.6637449
,,,,Conditions/Version_1/twoback(2)_v1.xlsx,New rule: Press 'space' when you see 2-back (i.e. the same letter as the one that appeared 2 letters ago.),H,None,,,,,,,,,0,7,7,7,0,5,5,5,,,,,,,,,,,,,,,,,,,,,,,,,,,,,,,,,,,,,,,,,,,,,,,,,,,,,,,,,,,,,,,,,,,,,1.9524,640.5957418,None,None,1,,640.5957418,None,P044,fencog,2,Post,2022_May_25_1206,N-Back (New Version 2021),2021.1.4,119.6637449
,,,,Conditions/Version_1/twoback(2)_v1.xlsx,New rule: Press 'space' when you see 2-back (i.e. the same letter as the one that appeared 2 letters ago.),g,None,,,,,,,,,0,7,7,7,0,6,6,6,,,,,,,,,,,,,,,,,,,,,,,,,,,,,,,,,,,,,,,,,,,,,,,,,,,,,,,,,,,,,,,,,,,,,1.8594,644.4614785,None,None,1,,644.4614785,None,P044,fencog,2,Post,2022_May_25_1206,N-Back (New Version 2021),2021.1.4,119.6637449
,,,,Conditions/Version_1/twoback(2)_v1.xlsx,New rule: Press 'space' when you see 2-back (i.e. the same letter as the one that appeared 2 letters ago.),j,None,,,,,,,,,0,7,7,7,0,7,7,7,,,,,,,,,,,,,,,,,,,,,,,,,,,,,,,,,,,,,,,,,,,,,,,,,,,,,,,,,,,,,,,,,,,,,1.7106,648.1784095,None,None,1,,648.1784095,None,P044,fencog,2,Post,2022_May_25_1206,N-Back (New Version 2021),2021.1.4,119.6637449
,,,,Conditions/Version_1/twoback(2)_v1.xlsx,New rule: Press 'space' when you see 2-back (i.e. the same letter as the one that appeared 2 letters ago.),g,space,,,,,,,,,0,7,7,7,0,8,8,8,,,,,,,,,,,,,,,,,,,,,,,,,,,,,,,,,,,,,,,,,,,,,,,,,,,,,,,,,,,,,,,,,,,,,1.0472,651.2352814,None,space,1,0.8013876,651.2352814,None,P044,fencog,2,Post,2022_May_25_1206,N-Back (New Version 2021),2021.1.4,119.6637449
,,,,Conditions/Version_1/twoback(2)_v1.xlsx,New rule: Press 'space' when you see 2-back (i.e. the same letter as the one that appeared 2 letters ago.),G,None,,,,,,,,,0,7,7,7,0,9,9,9,,,,,,,,,,,,,,,,,,,,,,,,,,,,,,,,,,,,,,,,,,,,,,,,,,,,,,,,,,,,,,,,,,,,,1.6486,654.8963769,None,None,1,,654.8963769,None,P044,fencog,2,Post,2022_May_25_1206,N-Back (New Version 2021),2021.1.4,119.6637449
,,,,Conditions/Version_1/twoback(2)_v1.xlsx,New rule: Press 'space' when you see 2-back (i.e. the same letter as the one that appeared 2 letters ago.),,,,,,,,,,,0,7,7,7,,,,,,,,,,,,,,,,,,,,,,,,,,,,,,,,,,,,,,,,,,,,,,,,,,,,,,,,,,,,,,,,,,,,,,,,,,,,,,,,,P044,fencog,2,Post,2022_May_25_1206,N-Back (New Version 2021),2021.1.4,119.6637449
,,,,Conditions/Version_1/threeback(3)_v1.xlsx,New rule: Press 'space' when you see 3-back (i.e. the same letter as the one that appeared 3 letters ago.),w,None,,,,,,,,,0,8,8,8,0,0,0,0,,,,,,,,,,,,,,,,,,,,,,,,,,,,,,,,,,,,,,,,,,,,,,,,,,,,,,,,,,,656.923204,None,659.9093746,None,space,0.6234114,659.9093746,None,656.923204,None,1.2022,661.7646736,None,None,1,,661.7646736,None,P044,fencog,2,Post,2022_May_25_1206,N-Back (New Version 2021),2021.1.4,119.6637449
,,,,Conditions/Version_1/threeback(3)_v1.xlsx,New rule: Press 'space' when you see 3-back (i.e. the same letter as the one that appeared 3 letters ago.),p,None,,,,,,,,,0,8,8,8,0,1,1,1,,,,,,,,,,,,,,,,,,,,,,,,,,,,,,,,,,,,,,,,,,,,,,,,,,,,,,,,,,,,,,,,,,,,,1.3758,665.1479313,None,None,1,,665.1479313,None,P044,fencog,2,Post,2022_May_25_1206,N-Back (New Version 2021),2021.1.4,119.6637449
,,,,Conditions/Version_1/threeback(3)_v1.xlsx,New rule: Press 'space' when you see 3-back (i.e. the same letter as the one that appeared 3 letters ago.),P,None,,,,,,,,,0,8,8,8,0,2,2,2,,,,,,,,,,,,,,,,,,,,,,,,,,,,,,,,,,,,,,,,,,,,,,,,,,,,,,,,,,,,,,,,,,,,,1.9214,669.0805057,None,None,1,,669.0805057,None,P044,fencog,2,Post,2022_May_25_1206,N-Back (New Version 2021),2021.1.4,119.6637449
,,,,Conditions/Version_1/threeback(3)_v1.xlsx,New rule: Press 'space' when you see 3-back (i.e. the same letter as the one that appeared 3 letters ago.),i,None,,,,,,,,,0,8,8,8,0,3,3,3,,,,,,,,,,,,,,,,,,,,,,,,,,,,,,,,,,,,,,,,,,,,,,,,,,,,,,,,,,,,,,,,,,,,,1.8346,672.9283234,None,None,1,,672.9283234,None,P044,fencog,2,Post,2022_May_25_1206,N-Back (New Version 2021),2021.1.4,119.6637449
,,,,Conditions/Version_1/threeback(3)_v1.xlsx,New rule: Press 'space' when you see 3-back (i.e. the same letter as the one that appeared 3 letters ago.),f,None,,,,,,,,,0,8,8,8,0,4,4,4,,,,,,,,,,,,,,,,,,,,,,,,,,,,,,,,,,,,,,,,,,,,,,,,,,,,,,,,,,,,,,,,,,,,,1.8098,676.7437849,None,None,1,,676.7437849,None,P044,fencog,2,Post,2022_May_25_1206,N-Back (New Version 2021),2021.1.4,119.6637449
,,,,Conditions/Version_1/threeback(3)_v1.xlsx,New rule: Press 'space' when you see 3-back (i.e. the same letter as the one that appeared 3 letters ago.),o,None,,,,,,,,,0,8,8,8,0,5,5,5,,,,,,,,,,,,,,,,,,,,,,,,,,,,,,,,,,,,,,,,,,,,,,,,,,,,,,,,,,,,,,,,,,,,,1.9338,680.6843047,None,None,1,,680.6843047,None,P044,fencog,2,Post,2022_May_25_1206,N-Back (New Version 2021),2021.1.4,119.6637449
,,,,Conditions/Version_1/threeback(3)_v1.xlsx,New rule: Press 'space' when you see 3-back (i.e. the same letter as the one that appeared 3 letters ago.),w,None,,,,,,,,,0,8,8,8,0,6,6,6,,,,,,,,,,,,,,,,,,,,,,,,,,,,,,,,,,,,,,,,,,,,,,,,,,,,,,,,,,,,,,,,,,,,,1.2146,683.8999457,None,None,1,,683.8999457,None,P044,fencog,2,Post,2022_May_25_1206,N-Back (New Version 2021),2021.1.4,119.6637449
,,,,Conditions/Version_1/threeback(3)_v1.xlsx,New rule: Press 'space' when you see 3-back (i.e. the same letter as the one that appeared 3 letters ago.),F,space,,,,,,,,,0,8,8,8,0,7,7,7,,,,,,,,,,,,,,,,,,,,,,,,,,,,,,,,,,,,,,,,,,,,,,,,,,,,,,,,,,,,,,,,,,,,,1.909,687.8152874,None,space,1,0.3893408,687.8152874,None,P044,fencog,2,Post,2022_May_25_1206,N-Back (New Version 2021),2021.1.4,119.6637449
,,,,Conditions/Version_1/threeback(3)_v1.xlsx,New rule: Press 'space' when you see 3-back (i.e. the same letter as the one that appeared 3 letters ago.),p,None,,,,,,,,,0,8,8,8,0,8,8,8,,,,,,,,,,,,,,,,,,,,,,,,,,,,,,,,,,,,,,,,,,,,,,,,,,,,,,,,,,,,,,,,,,,,,1.2766,691.0988602,None,None,1,,691.0988602,None,P044,fencog,2,Post,2022_May_25_1206,N-Back (New Version 2021),2021.1.4,119.6637449
,,,,Conditions/Version_1/threeback(3)_v1.xlsx,New rule: Press 'space' when you see 3-back (i.e. the same letter as the one that appeared 3 letters ago.),W,space,,,,,,,,,0,8,8,8,0,9,9,9,,,,,,,,,,,,,,,,,,,,,,,,,,,,,,,,,,,,,,,,,,,,,,,,,,,,,,,,,,,,,,,,,,,,,1.3634,694.47316,None,space,1,0.5713591,694.47316,None,P044,fencog,2,Post,2022_May_25_1206,N-Back (New Version 2021),2021.1.4,119.6637449
,,,,Conditions/Version_1/threeback(3)_v1.xlsx,New rule: Press 'space' when you see 3-back (i.e. the same letter as the one that appeared 3 letters ago.),,,,,,,,,,,0,8,8,8,,,,,,,,,,,,,,,,,,,,,,,,,,,,,,,,,,,,,,,,,,,,,,,,,,,,,,,,,,,,,,,,,,,,,,,,,,,,,,,,,P044,fencog,2,Post,2022_May_25_1206,N-Back (New Version 2021),2021.1.4,119.6637449
,,,,Conditions/Version_1/zeroback(3)_v1.xlsx,New rule: Press 'space' when you see the letter 'x' or 'X'.,X,space,,,,,,,,,0,9,9,9,0,0,0,0,,,,,,,,,,,,,,,,,,,,,,,,,,,,,,,,,,,,,,,,,,,,,,,,,,,,,,,,,,,696.5011793,None,699.4890872,None,space,0.55542,699.4890872,None,696.5011793,None,1.3324,701.419758,None,space,1,0.5538396,701.419758,None,P044,fencog,2,Post,2022_May_25_1206,N-Back (New Version 2021),2021.1.4,119.6637449
,,,,Conditions/Version_1/zeroback(3)_v1.xlsx,New rule: Press 'space' when you see the letter 'x' or 'X'.,B,None,,,,,,,,,0,9,9,9,0,1,1,1,,,,,,,,,,,,,,,,,,,,,,,,,,,,,,,,,,,,,,,,,,,,,,,,,,,,,,,,,,,,,,,,,,,,,1.5246,704.9466139,None,None,1,,704.9466139,None,P044,fencog,2,Post,2022_May_25_1206,N-Back (New Version 2021),2021.1.4,119.6637449
,,,,Conditions/Version_1/zeroback(3)_v1.xlsx,New rule: Press 'space' when you see the letter 'x' or 'X'.,m,None,,,,,,,,,0,9,9,9,0,2,2,2,,,,,,,,,,,,,,,,,,,,,,,,,,,,,,,,,,,,,,,,,,,,,,,,,,,,,,,,,,,,,,,,,,,,,1.0906,708.0426967,None,None,1,,708.0426967,None,P044,fencog,2,Post,2022_May_25_1206,N-Back (New Version 2021),2021.1.4,119.6637449
,,,,Conditions/Version_1/zeroback(3)_v1.xlsx,New rule: Press 'space' when you see the letter 'x' or 'X'.,m,None,,,,,,,,,0,9,9,9,0,3,3,3,,,,,,,,,,,,,,,,,,,,,,,,,,,,,,,,,,,,,,,,,,,,,,,,,,,,,,,,,,,,,,,,,,,,,1.0968,711.1422006,None,None,1,,711.1422006,None,P044,fencog,2,Post,2022_May_25_1206,N-Back (New Version 2021),2021.1.4,119.6637449
,,,,Conditions/Version_1/zeroback(3)_v1.xlsx,New rule: Press 'space' when you see the letter 'x' or 'X'.,o,None,,,,,,,,,0,9,9,9,0,4,4,4,,,,,,,,,,,,,,,,,,,,,,,,,,,,,,,,,,,,,,,,,,,,,,,,,,,,,,,,,,,,,,,,,,,,,1.4688,714.6158733,None,None,1,,714.6158733,None,P044,fencog,2,Post,2022_May_25_1206,N-Back (New Version 2021),2021.1.4,119.6637449
,,,,Conditions/Version_1/zeroback(3)_v1.xlsx,New rule: Press 'space' when you see the letter 'x' or 'X'.,p,None,,,,,,,,,0,9,9,9,0,5,5,5,,,,,,,,,,,,,,,,,,,,,,,,,,,,,,,,,,,,,,,,,,,,,,,,,,,,,,,,,,,,,,,,,,,,,1.1836,717.7982272,None,None,1,,717.7982272,None,P044,fencog,2,Post,2022_May_25_1206,N-Back (New Version 2021),2021.1.4,119.6637449
,,,,Conditions/Version_1/zeroback(3)_v1.xlsx,New rule: Press 'space' when you see the letter 'x' or 'X'.,G,None,,,,,,,,,0,9,9,9,0,6,6,6,,,,,,,,,,,,,,,,,,,,,,,,,,,,,,,,,,,,,,,,,,,,,,,,,,,,,,,,,,,,,,,,,,,,,1.8594,721.6681902,None,None,1,,721.6681902,None,P044,fencog,2,Post,2022_May_25_1206,N-Back (New Version 2021),2021.1.4,119.6637449
,,,,Conditions/Version_1/zeroback(3)_v1.xlsx,New rule: Press 'space' when you see the letter 'x' or 'X'.,X,space,,,,,,,,,0,9,9,9,0,7,7,7,,,,,,,,,,,,,,,,,,,,,,,,,,,,,,,,,,,,,,,,,,,,,,,,,,,,,,,,,,,,,,,,,,,,,1.7974,725.4721412,None,space,1,1.6764194,725.4721412,None,P044,fencog,2,Post,2022_May_25_1206,N-Back (New Version 2021),2021.1.4,119.6637449
,,,,Conditions/Version_1/zeroback(3)_v1.xlsx,New rule: Press 'space' when you see the letter 'x' or 'X'.,p,None,,,,,,,,,0,9,9,9,0,8,8,8,,,,,,,,,,,,,,,,,,,,,,,,,,,,,,,,,,,,,,,,,,,,,,,,,,,,,,,,,,,,,,,,,,,,,1.6548,729.1373864,None,None,1,,729.1373864,None,P044,fencog,2,Post,2022_May_25_1206,N-Back (New Version 2021),2021.1.4,119.6637449
,,,,Conditions/Version_1/zeroback(3)_v1.xlsx,New rule: Press 'space' when you see the letter 'x' or 'X'.,x,space,,,,,,,,,0,9,9,9,0,9,9,9,,,,,,,,,,,,,,,,,,,,,,,,,,,,,,,,,,,,,,,,,,,,,,,,,,,,,,,,,,,,,,,,,,,,,1.8408,732.9863757,None,space,1,0.5859635,732.9863757,None,P044,fencog,2,Post,2022_May_25_1206,N-Back (New Version 2021),2021.1.4,119.6637449
,,,,Conditions/Version_1/zeroback(3)_v1.xlsx,New rule: Press 'space' when you see the letter 'x' or 'X'.,,,,,,,,,,,0,9,9,9,,,,,,,,,,,,,,,,,,,,,,,,,,,,,,,,,,,,,,,,,,,,,,,,,,,,,,,,,,,,,,,,,,,,,,,,,,,,,,,,,P044,fencog,2,Post,2022_May_25_1206,N-Back (New Version 2021),2021.1.4,119.6637449
,,,,Conditions/Version_1/twoback(3)_v1.xlsx,New rule: Press 'space' when you see 2-back (i.e. the same letter as the one that appeared 2 letters ago.),e,None,,,,,,,,,0,10,10,10,0,0,0,0,,,,,,,,,,,,,,,,,,,,,,,,,,,,,,,,,,,,,,,,,,,,,,,,,,,,,,,,,,,735.0273517,None,738.0120914,None,space,2.2003723,738.0120914,None,735.0273517,None,1.444,741.694087,None,None,1,,741.694087,None,P044,fencog,2,Post,2022_May_25_1206,N-Back (New Version 2021),2021.1.4,119.6637449
,,,,Conditions/Version_1/twoback(3)_v1.xlsx,New rule: Press 'space' when you see 2-back (i.e. the same letter as the one that appeared 2 letters ago.),o,None,,,,,,,,,0,10,10,10,0,1,1,1,,,,,,,,,,,,,,,,,,,,,,,,,,,,,,,,,,,,,,,,,,,,,,,,,,,,,,,,,,,,,,,,,,,,,1.32,745.0235316,None,None,1,,745.0235316,None,P044,fencog,2,Post,2022_May_25_1206,N-Back (New Version 2021),2021.1.4,119.6637449
,,,,Conditions/Version_1/twoback(3)_v1.xlsx,New rule: Press 'space' when you see 2-back (i.e. the same letter as the one that appeared 2 letters ago.),P,None,,,,,,,,,0,10,10,10,0,2,2,2,,,,,,,,,,,,,,,,,,,,,,,,,,,,,,,,,,,,,,,,,,,,,,,,,,,,,,,,,,,,,,,,,,,,,1.8904,748.9166804,None,None,1,,748.9166804,None,P044,fencog,2,Post,2022_May_25_1206,N-Back (New Version 2021),2021.1.4,119.6637449
,,,,Conditions/Version_1/twoback(3)_v1.xlsx,New rule: Press 'space' when you see 2-back (i.e. the same letter as the one that appeared 2 letters ago.),z,None,,,,,,,,,0,10,10,10,0,3,3,3,,,,,,,,,,,,,,,,,,,,,,,,,,,,,,,,,,,,,,,,,,,,,,,,,,,,,,,,,,,,,,,,,,,,,1.0534,751.9814318,None,None,1,,751.9814318,None,P044,fencog,2,Post,2022_May_25_1206,N-Back (New Version 2021),2021.1.4,119.6637449
,,,,Conditions/Version_1/twoback(3)_v1.xlsx,New rule: Press 'space' when you see 2-back (i.e. the same letter as the one that appeared 2 letters ago.),X,None,,,,,,,,,0,10,10,10,0,4,4,4,,,,,,,,,,,,,,,,,,,,,,,,,,,,,,,,,,,,,,,,,,,,,,,,,,,,,,,,,,,,,,,,,,,,,1.8222,755.8119108,None,None,1,,755.8119108,None,P044,fencog,2,Post,2022_May_25_1206,N-Back (New Version 2021),2021.1.4,119.6637449
,,,,Conditions/Version_1/twoback(3)_v1.xlsx,New rule: Press 'space' when you see 2-back (i.e. the same letter as the one that appeared 2 letters ago.),z,space,,,,,,,,,0,10,10,10,0,5,5,5,,,,,,,,,,,,,,,,,,,,,,,,,,,,,,,,,,,,,,,,,,,,,,,,,,,,,,,,,,,,,,,,,,,,,1.9462,759.7633411,None,space,1,1.0652363,759.7633411,None,P044,fencog,2,Post,2022_May_25_1206,N-Back (New Version 2021),2021.1.4,119.6637449
,,,,Conditions/Version_1/twoback(3)_v1.xlsx,New rule: Press 'space' when you see 2-back (i.e. the same letter as the one that appeared 2 letters ago.),x,space,,,,,,,,,0,10,10,10,0,6,6,6,,,,,,,,,,,,,,,,,,,,,,,,,,,,,,,,,,,,,,,,,,,,,,,,,,,,,,,,,,,,,,,,,,,,,1.4998,763.2681701,None,space,1,1.4322086,763.2681701,None,P044,fencog,2,Post,2022_May_25_1206,N-Back (New Version 2021),2021.1.4,119.6637449
,,,,Conditions/Version_1/twoback(3)_v1.xlsx,New rule: Press 'space' when you see 2-back (i.e. the same letter as the one that appeared 2 letters ago.),c,None,,,,,,,,,0,10,10,10,0,7,7,7,,,,,,,,,,,,,,,,,,,,,,,,,,,,,,,,,,,,,,,,,,,,,,,,,,,,,,,,,,,,,,,,,,,,,1.2952,766.5681181,None,None,1,,766.5681181,None,P044,fencog,2,Post,2022_May_25_1206,N-Back (New Version 2021),2021.1.4,119.6637449
,,,,Conditions/Version_1/twoback(3)_v1.xlsx,New rule: Press 'space' when you see 2-back (i.e. the same letter as the one that appeared 2 letters ago.),i,None,,,,,,,,,0,10,10,10,0,8,8,8,,,,,,,,,,,,,,,,,,,,,,,,,,,,,,,,,,,,,,,,,,,,,,,,,,,,,,,,,,,,,,,,,,,,,1.4254,769.9993473,None,None,1,,769.9993473,None,P044,fencog,2,Post,2022_May_25_1206,N-Back (New Version 2021),2021.1.4,119.6637449
,,,,Conditions/Version_1/twoback(3)_v1.xlsx,New rule: Press 'space' when you see 2-back (i.e. the same letter as the one that appeared 2 letters ago.),C,space,,,,,,,,,0,10,10,10,0,9,9,9,,,,,,,,,,,,,,,,,,,,,,,,,,,,,,,,,,,,,,,,,,,,,,,,,,,,,,,,,,,,,,,,,,,,,1.9586,773.9598122,None,space,1,0.3885951,773.9598122,None,P044,fencog,2,Post,2022_May_25_1206,N-Back (New Version 2021),2021.1.4,119.6637449
,,,,Conditions/Version_1/twoback(3)_v1.xlsx,New rule: Press 'space' when you see 2-back (i.e. the same letter as the one that appeared 2 letters ago.),,,,,,,,,,,0,10,10,10,,,,,,,,,,,,,,,,,,,,,,,,,,,,,,,,,,,,,,,,,,,,,,,,,,,,,,,,,,,,,,,,,,,,,,,,,,,,,,,,,P044,fencog,2,Post,2022_May_25_1206,N-Back (New Version 2021),2021.1.4,119.6637449
,,,,Conditions/Version_1/oneback(3)_v1.xlsx,New rule: Press 'space' when you see 1-back (i.e. the same letter as the one that appeared 1 letter ago.),o,None,,,,,,,,,0,11,11,11,0,0,0,0,,,,,,,,,,,,,,,,,,,,,,,,,,,,,,,,,,,,,,,,,,,,,,,,,,,,,,,,,,,775.9845438,None,778.9741689,None,space,0.8303449,778.9741689,None,775.9845438,None,1.5122,781.3881613,None,None,1,,781.3881613,None,P044,fencog,2,Post,2022_May_25_1206,N-Back (New Version 2021),2021.1.4,119.6637449
,,,,Conditions/Version_1/oneback(3)_v1.xlsx,New rule: Press 'space' when you see 1-back (i.e. the same letter as the one that appeared 1 letter ago.),O,space,,,,,,,,,0,11,11,11,0,1,1,1,,,,,,,,,,,,,,,,,,,,,,,,,,,,,,,,,,,,,,,,,,,,,,,,,,,,,,,,,,,,,,,,,,,,,1.2084,784.6033746,None,space,1,0.7531547,784.6033746,None,P044,fencog,2,Post,2022_May_25_1206,N-Back (New Version 2021),2021.1.4,119.6637449
,,,,Conditions/Version_1/oneback(3)_v1.xlsx,New rule: Press 'space' when you see 1-back (i.e. the same letter as the one that appeared 1 letter ago.),h,None,,,,,,,,,0,11,11,11,0,2,2,2,,,,,,,,,,,,,,,,,,,,,,,,,,,,,,,,,,,,,,,,,,,,,,,,,,,,,,,,,,,,,,,,,,,,,1.5432,788.1544319,None,None,1,,788.1544319,None,P044,fencog,2,Post,2022_May_25_1206,N-Back (New Version 2021),2021.1.4,119.6637449
,,,,Conditions/Version_1/oneback(3)_v1.xlsx,New rule: Press 'space' when you see 1-back (i.e. the same letter as the one that appeared 1 letter ago.),g,None,,,,,,,,,0,11,11,11,0,3,3,3,,,,,,,,,,,,,,,,,,,,,,,,,,,,,,,,,,,,,,,,,,,,,,,,,,,,,,,,,,,,,,,,,,,,,1.2394,791.4021259,None,None,1,,791.4021259,None,P044,fencog,2,Post,2022_May_25_1206,N-Back (New Version 2021),2021.1.4,119.6637449
,,,,Conditions/Version_1/oneback(3)_v1.xlsx,New rule: Press 'space' when you see 1-back (i.e. the same letter as the one that appeared 1 letter ago.),n,None,,,,,,,,,0,11,11,11,0,4,4,4,,,,,,,,,,,,,,,,,,,,,,,,,,,,,,,,,,,,,,,,,,,,,,,,,,,,,,,,,,,,,,,,,,,,,1.785,795.2029277,None,None,1,,795.2029277,None,P044,fencog,2,Post,2022_May_25_1206,N-Back (New Version 2021),2021.1.4,119.6637449
,,,,Conditions/Version_1/oneback(3)_v1.xlsx,New rule: Press 'space' when you see 1-back (i.e. the same letter as the one that appeared 1 letter ago.),z,None,,,,,,,,,0,11,11,11,0,5,5,5,,,,,,,,,,,,,,,,,,,,,,,,,,,,,,,,,,,,,,,,,,,,,,,,,,,,,,,,,,,,,,,,,,,,,1.7106,798.9252241,None,None,1,,798.9252241,None,P044,fencog,2,Post,2022_May_25_1206,N-Back (New Version 2021),2021.1.4,119.6637449
,,,,Conditions/Version_1/oneback(3)_v1.xlsx,New rule: Press 'space' when you see 1-back (i.e. the same letter as the one that appeared 1 letter ago.),X,None,,,,,,,,,0,11,11,11,0,6,6,6,,,,,,,,,,,,,,,,,,,,,,,,,,,,,,,,,,,,,,,,,,,,,,,,,,,,,,,,,,,,,,,,,,,,,1.7416,802.6732935,None,None,1,,802.6732935,None,P044,fencog,2,Post,2022_May_25_1206,N-Back (New Version 2021),2021.1.4,119.6637449
,,,,Conditions/Version_1/oneback(3)_v1.xlsx,New rule: Press 'space' when you see 1-back (i.e. the same letter as the one that appeared 1 letter ago.),r,None,,,,,,,,,0,11,11,11,0,7,7,7,,,,,,,,,,,,,,,,,,,,,,,,,,,,,,,,,,,,,,,,,,,,,,,,,,,,,,,,,,,,,,,,,,,,,1.9152,806.5886229,None,None,1,,806.5886229,None,P044,fencog,2,Post,2022_May_25_1206,N-Back (New Version 2021),2021.1.4,119.6637449
,,,,Conditions/Version_1/oneback(3)_v1.xlsx,New rule: Press 'space' when you see 1-back (i.e. the same letter as the one that appeared 1 letter ago.),r,space,,,,,,,,,0,11,11,11,0,8,8,8,,,,,,,,,,,,,,,,,,,,,,,,,,,,,,,,,,,,,,,,,,,,,,,,,,,,,,,,,,,,,,,,,,,,,1.1402,809.7292915,None,space,1,0.635067,809.7292915,None,P044,fencog,2,Post,2022_May_25_1206,N-Back (New Version 2021),2021.1.4,119.6637449
,,,,Conditions/Version_1/oneback(3)_v1.xlsx,New rule: Press 'space' when you see 1-back (i.e. the same letter as the one that appeared 1 letter ago.),P,None,,,,,,,,,0,11,11,11,0,9,9,9,,,,,,,,,,,,,,,,,,,,,,,,,,,,,,,,,,,,,,,,,,,,,,,,,,,,,,,,,,,,,,,,,,,,,1.2704,813.0033118,None,None,1,,813.0033118,None,P044,fencog,2,Post,2022_May_25_1206,N-Back (New Version 2021),2021.1.4,119.6637449
,,,,Conditions/Version_1/oneback(3)_v1.xlsx,New rule: Press 'space' when you see 1-back (i.e. the same letter as the one that appeared 1 letter ago.),,,,,,,,,,,0,11,11,11,,,,,,,,,,,,,,,,,,,,,,,,,,,,,,,,,,,,,,,,,,,,,,,,,,,,,,,,,,,,,,,,,,,,,,,,,,,,,,,,,P044,fencog,2,Post,2022_May_25_1206,N-Back (New Version 2021),2021.1.4,119.6637449
,,,,Conditions/Version_1/twoback(4)_v1.xlsx,New rule: Press 'space' when you see 2-back (i.e. the same letter as the one that appeared 2 letters ago.),r,None,,,,,,,,,0,12,12,12,0,0,0,0,,,,,,,,,,,,,,,,,,,,,,,,,,,,,,,,,,,,,,,,,,,,,,,,,,,,,,,,,,,815.0243868,None,818.0125783,None,space,0.6156087,818.0125783,None,815.0243868,None,1.0534,819.7218266,None,None,1,,819.7218266,None,P044,fencog,2,Post,2022_May_25_1206,N-Back (New Version 2021),2021.1.4,119.6637449
,,,,Conditions/Version_1/twoback(4)_v1.xlsx,New rule: Press 'space' when you see 2-back (i.e. the same letter as the one that appeared 2 letters ago.),T,None,,,,,,,,,0,12,12,12,0,1,1,1,,,,,,,,,,,,,,,,,,,,,,,,,,,,,,,,,,,,,,,,,,,,,,,,,,,,,,,,,,,,,,,,,,,,,1.7478,823.4752113,None,None,1,,823.4752113,None,P044,fencog,2,Post,2022_May_25_1206,N-Back (New Version 2021),2021.1.4,119.6637449
,,,,Conditions/Version_1/twoback(4)_v1.xlsx,New rule: Press 'space' when you see 2-back (i.e. the same letter as the one that appeared 2 letters ago.),o,None,,,,,,,,,0,12,12,12,0,2,2,2,,,,,,,,,,,,,,,,,,,,,,,,,,,,,,,,,,,,,,,,,,,,,,,,,,,,,,,,,,,,,,,,,,,,,1.9648,827.4429587,None,None,1,,827.4429587,None,P044,fencog,2,Post,2022_May_25_1206,N-Back (New Version 2021),2021.1.4,119.6637449
,,,,Conditions/Version_1/twoback(4)_v1.xlsx,New rule: Press 'space' when you see 2-back (i.e. the same letter as the one that appeared 2 letters ago.),p,None,,,,,,,,,0,12,12,12,0,3,3,3,,,,,,,,,,,,,,,,,,,,,,,,,,,,,,,,,,,,,,,,,,,,,,,,,,,,,,,,,,,,,,,,,,,,,1.2332,830.6826482,None,None,1,,830.6826482,None,P044,fencog,2,Post,2022_May_25_1206,N-Back (New Version 2021),2021.1.4,119.6637449
,,,,Conditions/Version_1/twoback(4)_v1.xlsx,New rule: Press 'space' when you see 2-back (i.e. the same letter as the one that appeared 2 letters ago.),p,None,,,,,,,,,0,12,12,12,0,4,4,4,,,,,,,,,,,,,,,,,,,,,,,,,,,,,,,,,,,,,,,,,,,,,,,,,,,,,,,,,,,,,,,,,,,,,1.94,834.6304698,None,None,1,,834.6304698,None,P044,fencog,2,Post,2022_May_25_1206,N-Back (New Version 2021),2021.1.4,119.6637449
,,,,Conditions/Version_1/twoback(4)_v1.xlsx,New rule: Press 'space' when you see 2-back (i.e. the same letter as the one that appeared 2 letters ago.),y,None,,,,,,,,,0,12,12,12,0,5,5,5,,,,,,,,,,,,,,,,,,,,,,,,,,,,,,,,,,,,,,,,,,,,,,,,,,,,,,,,,,,,,,,,,,,,,1.6362,838.2708776,None,None,1,,838.2708776,None,P044,fencog,2,Post,2022_May_25_1206,N-Back (New Version 2021),2021.1.4,119.6637449
,,,,Conditions/Version_1/twoback(4)_v1.xlsx,New rule: Press 'space' when you see 2-back (i.e. the same letter as the one that appeared 2 letters ago.),P,space,,,,,,,,,0,12,12,12,0,6,6,6,,,,,,,,,,,,,,,,,,,,,,,,,,,,,,,,,,,,,,,,,,,,,,,,,,,,,,,,,,,,,,,,,,,,,1.9586,842.2291445,None,space,1,0.4231899,842.2291445,None,P044,fencog,2,Post,2022_May_25_1206,N-Back (New Version 2021),2021.1.4,119.6637449
,,,,Conditions/Version_1/twoback(4)_v1.xlsx,New rule: Press 'space' when you see 2-back (i.e. the same letter as the one that appeared 2 letters ago.),y,None,,,,,,,,,0,12,12,12,0,7,7,7,,,,,,,,,,,,,,,,,,,,,,,,,,,,,,,,,,,,,,,,,,,,,,,,,,,,,,,,,,,,,,,,,,,,,1.3386,845.5789973,None,space,0,0.4174098,845.5789973,None,P044,fencog,2,Post,2022_May_25_1206,N-Back (New Version 2021),2021.1.4,119.6637449
,,,,Conditions/Version_1/twoback(4)_v1.xlsx,New rule: Press 'space' when you see 2-back (i.e. the same letter as the one that appeared 2 letters ago.),y,space,,,,,,,,,0,12,12,12,0,8,8,8,,,,,,,,,,,,,,,,,,,,,,,,,,,,,,,,,,,,,,,,,,,,,,,,,,,,,,,,,,,,,,,,,,,,,1.4316,849.0178881,None,None,0,,849.0178881,None,P044,fencog,2,Post,2022_May_25_1206,N-Back (New Version 2021),2021.1.4,119.6637449
,,,,Conditions/Version_1/twoback(4)_v1.xlsx,New rule: Press 'space' when you see 2-back (i.e. the same letter as the one that appeared 2 letters ago.),,,,,,,,,,,0,12,12,12,,,,,,,,,,,,,,,,,,,,,,,,,,,,,,,,,,,,,,,,,,,,,,,,,,,,,,,,,,,,,,,,,,,,,,,,,,,,,,,,,P044,fencog,2,Post,2022_May_25_1206,N-Back (New Version 2021),2021.1.4,119.6637449
,,,,Conditions/Version_1/zeroback(4)_v1.xlsx,New rule: Press 'space' when you see the letter 'x' or 'X'.,o,None,,,,,,,,,0,13,13,13,0,0,0,0,,,,,,,,,,,,,,,,,,,,,,,,,,,,,,,,,,,,,,,,,,,,,,,,,,,,,,,,,,,851.0492887,None,854.0351169,None,space,0.4410506,854.0351169,None,851.0492887,None,1.4936,855.9989914,None,None,1,,855.9989914,None,P044,fencog,2,Post,2022_May_25_1206,N-Back (New Version 2021),2021.1.4,119.6637449
,,,,Conditions/Version_1/zeroback(4)_v1.xlsx,New rule: Press 'space' when you see the letter 'x' or 'X'.,X,space,,,,,,,,,0,13,13,13,0,1,1,1,,,,,,,,,,,,,,,,,,,,,,,,,,,,,,,,,,,,,,,,,,,,,,,,,,,,,,,,,,,,,,,,,,,,,1.7106,859.714575,None,space,1,0.7861863,859.714575,None,P044,fencog,2,Post,2022_May_25_1206,N-Back (New Version 2021),2021.1.4,119.6637449
,,,,Conditions/Version_1/zeroback(4)_v1.xlsx,New rule: Press 'space' when you see the letter 'x' or 'X'.,p,None,,,,,,,,,0,13,13,13,0,2,2,2,,,,,,,,,,,,,,,,,,,,,,,,,,,,,,,,,,,,,,,,,,,,,,,,,,,,,,,,,,,,,,,,,,,,,1.7912,863.5050783,None,None,1,,863.5050783,None,P044,fencog,2,Post,2022_May_25_1206,N-Back (New Version 2021),2021.1.4,119.6637449
,,,,Conditions/Version_1/zeroback(4)_v1.xlsx,New rule: Press 'space' when you see the letter 'x' or 'X'.,m,None,,,,,,,,,0,13,13,13,0,3,3,3,,,,,,,,,,,,,,,,,,,,,,,,,,,,,,,,,,,,,,,,,,,,,,,,,,,,,,,,,,,,,,,,,,,,,1.0162,866.5210137,None,None,1,,866.5210137,None,P044,fencog,2,Post,2022_May_25_1206,N-Back (New Version 2021),2021.1.4,119.6637449
,,,,Conditions/Version_1/zeroback(4)_v1.xlsx,New rule: Press 'space' when you see the letter 'x' or 'X'.,n,None,,,,,,,,,0,13,13,13,0,4,4,4,,,,,,,,,,,,,,,,,,,,,,,,,,,,,,,,,,,,,,,,,,,,,,,,,,,,,,,,,,,,,,,,,,,,,1.2766,869.8038388,None,None,1,,869.8038388,None,P044,fencog,2,Post,2022_May_25_1206,N-Back (New Version 2021),2021.1.4,119.6637449
,,,,Conditions/Version_1/zeroback(4)_v1.xlsx,New rule: Press 'space' when you see the letter 'x' or 'X'.,m,None,,,,,,,,,0,13,13,13,0,5,5,5,,,,,,,,,,,,,,,,,,,,,,,,,,,,,,,,,,,,,,,,,,,,,,,,,,,,,,,,,,,,,,,,,,,,,1.0596,872.8838546,None,None,1,,872.8838546,None,P044,fencog,2,Post,2022_May_25_1206,N-Back (New Version 2021),2021.1.4,119.6637449
,,,,Conditions/Version_1/zeroback(4)_v1.xlsx,New rule: Press 'space' when you see the letter 'x' or 'X'.,C,None,,,,,,,,,0,13,13,13,0,6,6,6,,,,,,,,,,,,,,,,,,,,,,,,,,,,,,,,,,,,,,,,,,,,,,,,,,,,,,,,,,,,,,,,,,,,,1.1278,876.0193943,None,None,1,,876.0193943,None,P044,fencog,2,Post,2022_May_25_1206,N-Back (New Version 2021),2021.1.4,119.6637449
,,,,Conditions/Version_1/zeroback(4)_v1.xlsx,New rule: Press 'space' when you see the letter 'x' or 'X'.,m,None,,,,,,,,,0,13,13,13,0,7,7,7,,,,,,,,,,,,,,,,,,,,,,,,,,,,,,,,,,,,,,,,,,,,,,,,,,,,,,,,,,,,,,,,,,,,,1.878,879.9085632,None,None,1,,879.9085632,None,P044,fencog,2,Post,2022_May_25_1206,N-Back (New Version 2021),2021.1.4,119.6637449
,,,,Conditions/Version_1/zeroback(4)_v1.xlsx,New rule: Press 'space' when you see the letter 'x' or 'X'.,p,None,,,,,,,,,0,13,13,13,0,8,8,8,,,,,,,,,,,,,,,,,,,,,,,,,,,,,,,,,,,,,,,,,,,,,,,,,,,,,,,,,,,,,,,,,,,,,1.4998,883.4094759,None,None,1,,883.4094759,None,P044,fencog,2,Post,2022_May_25_1206,N-Back (New Version 2021),2021.1.4,119.6637449
,,,,Conditions/Version_1/zeroback(4)_v1.xlsx,New rule: Press 'space' when you see the letter 'x' or 'X'.,X,space,,,,,,,,,0,13,13,13,0,9,9,9,,,,,,,,,,,,,,,,,,,,,,,,,,,,,,,,,,,,,,,,,,,,,,,,,,,,,,,,,,,,,,,,,,,,,1.723,887.1416704,None,space,1,0.7346827,887.1416704,None,P044,fencog,2,Post,2022_May_25_1206,N-Back (New Version 2021),2021.1.4,119.6637449
,,,,Conditions/Version_1/zeroback(4)_v1.xlsx,New rule: Press 'space' when you see the letter 'x' or 'X'.,,,,,,,,,,,0,13,13,13,,,,,,,,,,,,,,,,,,,,,,,,,,,,,,,,,,,,,,,,,,,,,,,,,,,,,,,,,,,,,,,,,,,,,,,,,,,,,,,,,P044,fencog,2,Post,2022_May_25_1206,N-Back (New Version 2021),2021.1.4,119.6637449
,,,,Conditions/Version_1/oneback(4)_v1.xlsx,New rule: Press 'space' when you see 1-back (i.e. the same letter as the one that appeared 1 letter ago.),w,None,,,,,,,,,0,14,14,14,0,0,0,0,,,,,,,,,,,,,,,,,,,,,,,,,,,,,,,,,,,,,,,,,,,,,,,,,,,,,,,,,,,889.1695095,None,892.1572333,None,space,0.5749103,892.1572333,None,889.1695095,None,1.444,894.2128053,None,None,1,,894.2128053,None,P044,fencog,2,Post,2022_May_25_1206,N-Back (New Version 2021),2021.1.4,119.6637449
,,,,Conditions/Version_1/oneback(4)_v1.xlsx,New rule: Press 'space' when you see 1-back (i.e. the same letter as the one that appeared 1 letter ago.),q,None,,,,,,,,,0,14,14,14,0,1,1,1,,,,,,,,,,,,,,,,,,,,,,,,,,,,,,,,,,,,,,,,,,,,,,,,,,,,,,,,,,,,,,,,,,,,,1.1092,897.328555,None,None,1,,897.328555,None,P044,fencog,2,Post,2022_May_25_1206,N-Back (New Version 2021),2021.1.4,119.6637449
,,,,Conditions/Version_1/oneback(4)_v1.xlsx,New rule: Press 'space' when you see 1-back (i.e. the same letter as the one that appeared 1 letter ago.),i,None,,,,,,,,,0,14,14,14,0,2,2,2,,,,,,,,,,,,,,,,,,,,,,,,,,,,,,,,,,,,,,,,,,,,,,,,,,,,,,,,,,,,,,,,,,,,,1.5742,900.9036871,None,None,1,,900.9036871,None,P044,fencog,2,Post,2022_May_25_1206,N-Back (New Version 2021),2021.1.4,119.6637449
,,,,Conditions/Version_1/oneback(4)_v1.xlsx,New rule: Press 'space' when you see 1-back (i.e. the same letter as the one that appeared 1 letter ago.),t,None,,,,,,,,,0,14,14,14,0,3,3,3,,,,,,,,,,,,,,,,,,,,,,,,,,,,,,,,,,,,,,,,,,,,,,,,,,,,,,,,,,,,,,,,,,,,,1.7602,904.6763704,None,None,1,,904.6763704,None,P044,fencog,2,Post,2022_May_25_1206,N-Back (New Version 2021),2021.1.4,119.6637449
,,,,Conditions/Version_1/oneback(4)_v1.xlsx,New rule: Press 'space' when you see 1-back (i.e. the same letter as the one that appeared 1 letter ago.),v,None,,,,,,,,,0,14,14,14,0,4,4,4,,,,,,,,,,,,,,,,,,,,,,,,,,,,,,,,,,,,,,,,,,,,,,,,,,,,,,,,,,,,,,,,,,,,,1.072,907.7579886,None,None,1,,907.7579886,None,P044,fencog,2,Post,2022_May_25_1206,N-Back (New Version 2021),2021.1.4,119.6637449
,,,,Conditions/Version_1/oneback(4)_v1.xlsx,New rule: Press 'space' when you see 1-back (i.e. the same letter as the one that appeared 1 letter ago.),V,space,,,,,,,,,0,14,14,14,0,5,5,5,,,,,,,,,,,,,,,,,,,,,,,,,,,,,,,,,,,,,,,,,,,,,,,,,,,,,,,,,,,,,,,,,,,,,1.2208,910.9847519,None,space,1,0.4755845,910.9847519,None,P044,fencog,2,Post,2022_May_25_1206,N-Back (New Version 2021),2021.1.4,119.6637449
,,,,Conditions/Version_1/oneback(4)_v1.xlsx,New rule: Press 'space' when you see 1-back (i.e. the same letter as the one that appeared 1 letter ago.),v,space,,,,,,,,,0,14,14,14,0,6,6,6,,,,,,,,,,,,,,,,,,,,,,,,,,,,,,,,,,,,,,,,,,,,,,,,,,,,,,,,,,,,,,,,,,,,,1.3696,914.3664571,None,space,1,0.9898345,914.3664571,None,P044,fencog,2,Post,2022_May_25_1206,N-Back (New Version 2021),2021.1.4,119.6637449
,,,,Conditions/Version_1/oneback(4)_v1.xlsx,New rule: Press 'space' when you see 1-back (i.e. the same letter as the one that appeared 1 letter ago.),p,None,,,,,,,,,0,14,14,14,0,7,7,7,,,,,,,,,,,,,,,,,,,,,,,,,,,,,,,,,,,,,,,,,,,,,,,,,,,,,,,,,,,,,,,,,,,,,1.4812,917.8557441,None,None,1,,917.8557441,None,P044,fencog,2,Post,2022_May_25_1206,N-Back (New Version 2021),2021.1.4,119.6637449
,,,,Conditions/Version_1/oneback(4)_v1.xlsx,New rule: Press 'space' when you see 1-back (i.e. the same letter as the one that appeared 1 letter ago.),w,None,,,,,,,,,0,14,14,14,0,8,8,8,,,,,,,,,,,,,,,,,,,,,,,,,,,,,,,,,,,,,,,,,,,,,,,,,,,,,,,,,,,,,,,,,,,,,1.1836,921.0401426,None,None,1,,921.0401426,None,P044,fencog,2,Post,2022_May_25_1206,N-Back (New Version 2021),2021.1.4,119.6637449
,,,,Conditions/Version_1/oneback(4)_v1.xlsx,New rule: Press 'space' when you see 1-back (i.e. the same letter as the one that appeared 1 letter ago.),W,space,,,,,,,,,0,14,14,14,0,9,9,9,,,,,,,,,,,,,,,,,,,,,,,,,,,,,,,,,,,,,,,,,,,,,,,,,,,,,,,,,,,,,,,,,,,,,1.9586,925.0035832,None,space,1,0.7048408,925.0035832,None,P044,fencog,2,Post,2022_May_25_1206,N-Back (New Version 2021),2021.1.4,119.6637449
,,,,Conditions/Version_1/oneback(4)_v1.xlsx,New rule: Press 'space' when you see 1-back (i.e. the same letter as the one that appeared 1 letter ago.),,,,,,,,,,,0,14,14,14,,,,,,,,,,,,,,,,,,,,,,,,,,,,,,,,,,,,,,,,,,,,,,,,,,,,,,,,,,,,,,,,,,,,,,,,,,,,,,,,,P044,fencog,2,Post,2022_May_25_1206,N-Back (New Version 2021),2021.1.4,119.6637449
,,,,Conditions/Version_1/threeback(4)_v1.xlsx,New rule: Press 'space' when you see 3-back (i.e. the same letter as the one that appeared 3 letters ago.),A,None,,,,,,,,,0,15,15,15,0,0,0,0,,,,,,,,,,,,,,,,,,,,,,,,,,,,,,,,,,,,,,,,,,,,,,,,,,,,,,,,,,,927.0248502,None,930.0136281,None,space,1.2224763,930.0136281,None,927.0248502,None,1.2952,932.5706167,None,None,1,,932.5706167,None,P044,fencog,2,Post,2022_May_25_1206,N-Back (New Version 2021),2021.1.4,119.6637449
,,,,Conditions/Version_1/threeback(4)_v1.xlsx,New rule: Press 'space' when you see 3-back (i.e. the same letter as the one that appeared 3 letters ago.),n,None,,,,,,,,,0,15,15,15,0,1,1,1,,,,,,,,,,,,,,,,,,,,,,,,,,,,,,,,,,,,,,,,,,,,,,,,,,,,,,,,,,,,,,,,,,,,,1.63,936.2086488,None,None,1,,936.2086488,None,P044,fencog,2,Post,2022_May_25_1206,N-Back (New Version 2021),2021.1.4,119.6637449
,,,,Conditions/Version_1/threeback(4)_v1.xlsx,New rule: Press 'space' when you see 3-back (i.e. the same letter as the one that appeared 3 letters ago.),g,None,,,,,,,,,0,15,15,15,0,2,2,2,,,,,,,,,,,,,,,,,,,,,,,,,,,,,,,,,,,,,,,,,,,,,,,,,,,,,,,,,,,,,,,,,,,,,1.878,940.0920307,None,None,1,,940.0920307,None,P044,fencog,2,Post,2022_May_25_1206,N-Back (New Version 2021),2021.1.4,119.6637449
,,,,Conditions/Version_1/threeback(4)_v1.xlsx,New rule: Press 'space' when you see 3-back (i.e. the same letter as the one that appeared 3 letters ago.),A,space,,,,,,,,,0,15,15,15,0,3,3,3,,,,,,,,,,,,,,,,,,,,,,,,,,,,,,,,,,,,,,,,,,,,,,,,,,,,,,,,,,,,,,,,,,,,,1.5866,943.6971708,None,space,1,0.7310031,943.6971708,None,P044,fencog,2,Post,2022_May_25_1206,N-Back (New Version 2021),2021.1.4,119.6637449
,,,,Conditions/Version_1/threeback(4)_v1.xlsx,New rule: Press 'space' when you see 3-back (i.e. the same letter as the one that appeared 3 letters ago.),p,None,,,,,,,,,0,15,15,15,0,4,4,4,,,,,,,,,,,,,,,,,,,,,,,,,,,,,,,,,,,,,,,,,,,,,,,,,,,,,,,,,,,,,,,,,,,,,1.0906,946.7887644,None,None,1,,946.7887644,None,P044,fencog,2,Post,2022_May_25_1206,N-Back (New Version 2021),2021.1.4,119.6637449
,,,,Conditions/Version_1/threeback(4)_v1.xlsx,New rule: Press 'space' when you see 3-back (i.e. the same letter as the one that appeared 3 letters ago.),O,None,,,,,,,,,0,15,15,15,0,5,5,5,,,,,,,,,,,,,,,,,,,,,,,,,,,,,,,,,,,,,,,,,,,,,,,,,,,,,,,,,,,,,,,,,,,,,1.7354,950.5296788,None,None,1,,950.5296788,None,P044,fencog,2,Post,2022_May_25_1206,N-Back (New Version 2021),2021.1.4,119.6637449
,,,,Conditions/Version_1/threeback(4)_v1.xlsx,New rule: Press 'space' when you see 3-back (i.e. the same letter as the one that appeared 3 letters ago.),a,space,,,,,,,,,0,15,15,15,0,6,6,6,,,,,,,,,,,,,,,,,,,,,,,,,,,,,,,,,,,,,,,,,,,,,,,,,,,,,,,,,,,,,,,,,,,,,1.0534,953.5865921,None,space,1,0.9135024,953.5865921,None,P044,fencog,2,Post,2022_May_25_1206,N-Back (New Version 2021),2021.1.4,119.6637449
,,,,Conditions/Version_1/threeback(4)_v1.xlsx,New rule: Press 'space' when you see 3-back (i.e. the same letter as the one that appeared 3 letters ago.),p,space,,,,,,,,,0,15,15,15,0,7,7,7,,,,,,,,,,,,,,,,,,,,,,,,,,,,,,,,,,,,,,,,,,,,,,,,,,,,,,,,,,,,,,,,,,,,,1.32,956.910612,None,space,1,1.2934342,956.910612,None,P044,fencog,2,Post,2022_May_25_1206,N-Back (New Version 2021),2021.1.4,119.6637449
,,,,Conditions/Version_1/threeback(4)_v1.xlsx,New rule: Press 'space' when you see 3-back (i.e. the same letter as the one that appeared 3 letters ago.),x,None,,,,,,,,,0,15,15,15,0,8,8,8,,,,,,,,,,,,,,,,,,,,,,,,,,,,,,,,,,,,,,,,,,,,,,,,,,,,,,,,,,,,,,,,,,,,,1.2456,960.1596463,None,None,1,,960.1596463,None,P044,fencog,2,Post,2022_May_25_1206,N-Back (New Version 2021),2021.1.4,119.6637449
,,,,Conditions/Version_1/threeback(4)_v1.xlsx,New rule: Press 'space' when you see 3-back (i.e. the same letter as the one that appeared 3 letters ago.),X,None,,,,,,,,,0,15,15,15,0,9,9,9,,,,,,,,,,,,,,,,,,,,,,,,,,,,,,,,,,,,,,,,,,,,,,,,,,,,,,,,,,,,,,,,,,,,,1.506,963.6669512,None,None,1,,963.6669512,None,P044,fencog,2,Post,2022_May_25_1206,N-Back (New Version 2021),2021.1.4,119.6637449
,,,,Conditions/Version_1/threeback(4)_v1.xlsx,New rule: Press 'space' when you see 3-back (i.e. the same letter as the one that appeared 3 letters ago.),,,,,,,,,,,0,15,15,15,,,,,,,,,,,,,,,,,,,,,,,,,,,,,,,,,,,,,,,,,,,,,,,,,,,,,,,,,,,,,,,,,,,,,,,,,,,,,,,,,P044,fencog,2,Post,2022_May_25_1206,N-Back (New Version 2021),2021.1.4,119.6637449
