CondFileP,InstructionsP,LettersDisplayedP,CorrectnessP,CondFile,Instructions,LettersDisplayed,Correctness,practicetrials.thisRepN,practicetrials.thisTrialN,practicetrials.thisN,practicetrials.thisIndex,InnerLoopPractice.thisRepN,InnerLoopPractice.thisTrialN,InnerLoopPractice.thisN,InnerLoopPractice.thisIndex,trials.thisRepN,trials.thisTrialN,trials.thisN,trials.thisIndex,InnerLoop.thisRepN,InnerLoop.thisTrialN,InnerLoop.thisN,InnerLoop.thisIndex,TaskVersionText.started,TaskVersionText.stopped,InstrKey1.keys,InstrKey1.rt,InstrKey1.started,InstrKey1.stopped,text.started,text.stopped,key_resp_4.keys,key_resp_4.rt,key_resp_4.started,key_resp_4.stopped,text_2.started,text_2.stopped,key_resp_3.keys,key_resp_3.rt,key_resp_3.started,key_resp_3.stopped,text_3.started,text_3.stopped,key_resp_2.keys,key_resp_2.rt,key_resp_2.started,key_resp_2.stopped,PractIn1.started,PractIn1.stopped,PractIn2.started,PractIn2.stopped,PractInstructionPass.keys,PractInstructionPass.rt,PractInstructionPass.started,PractInstructionPass.stopped,PractBlock1.started,PractBlock1.stopped,ISIjitterPractice,ISI_Pract_Fixation.started,ISI_Pract_Fixation.stopped,N_backP.started,N_backP.stopped,KeyPractice.keys,KeyPractice.corr,KeyPractice.started,KeyPractice.stopped,text_4.started,text_4.stopped,KeyPractice.rt,TransitionText.started,TransitionText.stopped,key_resp_6.keys,key_resp_6.rt,key_resp_6.started,key_resp_6.stopped,text_5.started,text_5.stopped,key_resp_5.keys,key_resp_5.rt,key_resp_5.started,key_resp_5.stopped,MainInt1.started,MainInt1.stopped,MainInt2.started,MainInt2.stopped,InstructionPass.keys,InstructionPass.rt,InstructionPass.started,InstructionPass.stopped,Blocks1.started,Blocks1.stopped,ISIjitter,N_backD.started,N_backD.stopped,key_resp.keys,key_resp.corr,key_resp.started,key_resp.stopped,key_resp.rt,participant,Study Name,Task Version (required to run),PRE/POST,date,expName,psychopyVersion,frameRate,
,,,,,,,,,,,,,,,,,,,,,,,,33.82138159999158,None,space,128.7128249000525,34.309772999957204,None,,,,,,,,,,,,,,,,,,,,,,,,,,,,,,,,,,,,,,,,,,,,,,,,,,,,,,,,,,,,,,,,,,,,,,,P044,fencog,1,Pre,2022_May_18_1102,N-Back (New Version 2021),2021.1.4,121.30813828942715,
,,,,,,,,,,,,,,,,,,,,,,,,,,,,,,163.05914040002972,None,space,6.619191099889576,163.55528780003078,None,,,,,,,,,,,,,,,,,,,,,,,,,,,,,,,,,,,,,,,,,,,,,,,,,,,,,,,,,,,,,,,,,P044,fencog,1,Pre,2022_May_18_1102,N-Back (New Version 2021),2021.1.4,121.30813828942715,
,,,,,,,,,,,,,,,,,,,,,,,,,,,,,,,,,,,,170.22546570003033,None,space,11.723771999939345,170.71444599993993,None,,,,,,,,,,,,,,,,,,,,,,,,,,,,,,,,,,,,,,,,,,,,,,,,,,,,,,,,,,,P044,fencog,1,Pre,2022_May_18_1102,N-Back (New Version 2021),2021.1.4,121.30813828942715,
,,,,,,,,,,,,,,,,,,,,,,,,,,,,,,,,,,,,,,,,,,182.46971069998108,None,space,14.351785200065933,182.96654009993654,None,,,,,,,,,,,,,,,,,,,,,,,,,,,,,,,,,,,,,,,,,,,,,,,,,,,,,P044,fencog,1,Pre,2022_May_18_1102,N-Back (New Version 2021),2021.1.4,121.30813828942715,
Conditions/Version_1Pr/zeroback(1)_v1.xlsx,Rule: Press 'space' when you see the letter 'x' or 'X'.,Z,None,,,,,0,0,0,0,0,0,0,0,,,,,,,,,,,,,,,,,,,,,,,,,,,,,,,,,198.69965620001312,None,201.6877573999809,None,space,2.1425015999702737,201.6877573999809,None,198.69965620001312,None,1.89,203.86556770000607,None,205.7621552000055,None,None,1,205.7621552000055,None,207.7684515999863,None,,,,,,,,,,,,,,,,,,,,,,,,,,,,,,,,P044,fencog,1,Pre,2022_May_18_1102,N-Back (New Version 2021),2021.1.4,121.30813828942715,
Conditions/Version_1Pr/zeroback(1)_v1.xlsx,Rule: Press 'space' when you see the letter 'x' or 'X'.,r,None,,,,,0,0,0,0,0,1,1,1,,,,,,,,,,,,,,,,,,,,,,,,,,,,,,,,,,,,,,,,,,,1.49,209.26629699999467,None,210.75777409994043,None,None,1,210.75777409994043,None,212.76880790002178,None,,,,,,,,,,,,,,,,,,,,,,,,,,,,,,,,P044,fencog,1,Pre,2022_May_18_1102,N-Back (New Version 2021),2021.1.4,121.30813828942715,
Conditions/Version_1Pr/zeroback(1)_v1.xlsx,Rule: Press 'space' when you see the letter 'x' or 'X'.,X,space,,,,,0,0,0,0,0,2,2,2,,,,,,,,,,,,,,,,,,,,,,,,,,,,,,,,,,,,,,,,,,,1.04,214.26482329994906,None,215.30748259997927,None,space,1,215.30748259997927,None,215.70773449994158,None,0.38675080006942153,,,,,,,,,,,,,,,,,,,,,,,,,,,,,,,P044,fencog,1,Pre,2022_May_18_1102,N-Back (New Version 2021),2021.1.4,121.30813828942715,
Conditions/Version_1Pr/zeroback(1)_v1.xlsx,Rule: Press 'space' when you see the letter 'x' or 'X'.,p,None,,,,,0,0,0,0,0,3,3,3,,,,,,,,,,,,,,,,,,,,,,,,,,,,,,,,,,,,,,,,,,,1.115,217.21391729998868,None,218.3344418000197,None,None,1,218.3344418000197,None,220.33804760000203,None,,,,,,,,,,,,,,,,,,,,,,,,,,,,,,,,P044,fencog,1,Pre,2022_May_18_1102,N-Back (New Version 2021),2021.1.4,121.30813828942715,
Conditions/Version_1Pr/zeroback(1)_v1.xlsx,Rule: Press 'space' when you see the letter 'x' or 'X'.,w,None,,,,,0,0,0,0,0,4,4,4,,,,,,,,,,,,,,,,,,,,,,,,,,,,,,,,,,,,,,,,,,,1.215,221.83757979993243,None,223.05557540000882,None,None,1,223.05557540000882,None,225.06276609993074,None,,,,,,,,,,,,,,,,,,,,,,,,,,,,,,,,P044,fencog,1,Pre,2022_May_18_1102,N-Back (New Version 2021),2021.1.4,121.30813828942715,
Conditions/Version_1Pr/zeroback(1)_v1.xlsx,Rule: Press 'space' when you see the letter 'x' or 'X'.,e,None,,,,,0,0,0,0,0,5,5,5,,,,,,,,,,,,,,,,,,,,,,,,,,,,,,,,,,,,,,,,,,,1.79,226.56115920003504,None,228.3551918999292,None,None,1,228.3551918999292,None,230.36004009994213,None,,,,,,,,,,,,,,,,,,,,,,,,,,,,,,,,P044,fencog,1,Pre,2022_May_18_1102,N-Back (New Version 2021),2021.1.4,121.30813828942715,
Conditions/Version_1Pr/zeroback(1)_v1.xlsx,Rule: Press 'space' when you see the letter 'x' or 'X'.,X,space,,,,,0,0,0,0,0,6,6,6,,,,,,,,,,,,,,,,,,,,,,,,,,,,,,,,,,,,,,,,,,,1.415,231.8599282000214,None,233.27559969993308,None,space,1,233.27559969993308,None,233.77023769996595,None,0.4749576000031084,,,,,,,,,,,,,,,,,,,,,,,,,,,,,,,P044,fencog,1,Pre,2022_May_18_1102,N-Back (New Version 2021),2021.1.4,121.30813828942715,
Conditions/Version_1Pr/zeroback(1)_v1.xlsx,Rule: Press 'space' when you see the letter 'x' or 'X'.,x,space,,,,,0,0,0,0,0,7,7,7,,,,,,,,,,,,,,,,,,,,,,,,,,,,,,,,,,,,,,,,,,,1.44,235.27522980002686,None,236.72045429993887,None,space,1,236.72045429993887,None,237.19221539993305,None,0.46183449996169657,,,,,,,,,,,,,,,,,,,,,,,,,,,,,,,P044,fencog,1,Pre,2022_May_18_1102,N-Back (New Version 2021),2021.1.4,121.30813828942715,
Conditions/Version_1Pr/zeroback(1)_v1.xlsx,Rule: Press 'space' when you see the letter 'x' or 'X'.,p,None,,,,,0,0,0,0,0,8,8,8,,,,,,,,,,,,,,,,,,,,,,,,,,,,,,,,,,,,,,,,,,,1.24,238.70040490000974,None,239.94556979998015,None,None,1,239.94556979998015,None,241.94831589993555,None,,,,,,,,,,,,,,,,,,,,,,,,,,,,,,,,P044,fencog,1,Pre,2022_May_18_1102,N-Back (New Version 2021),2021.1.4,121.30813828942715,
Conditions/Version_1Pr/zeroback(1)_v1.xlsx,Rule: Press 'space' when you see the letter 'x' or 'X'.,r,None,,,,,0,0,0,0,0,9,9,9,,,,,,,,,,,,,,,,,,,,,,,,,,,,,,,,,,,,,,,,,,,1.465,243.44773939996958,None,244.91387659998145,None,None,1,244.91387659998145,None,246.91798309993464,None,,,,,,,,,,,,,,,,,,,,,,,,,,,,,,,,P044,fencog,1,Pre,2022_May_18_1102,N-Back (New Version 2021),2021.1.4,121.30813828942715,
Conditions/Version_1Pr/zeroback(1)_v1.xlsx,Rule: Press 'space' when you see the letter 'x' or 'X'.,,,,,,,0,0,0,0,,,,,,,,,,,,,,,,,,,,,,,,,,,,,,,,,,,,,,,,,,,,,,,,,,,,,,,,,,,,,,,,,,,,,,,,,,,,,,,,,,,,,,,,,P044,fencog,1,Pre,2022_May_18_1102,N-Back (New Version 2021),2021.1.4,121.30813828942715,
Conditions/Version_1Pr/oneback(1)_v1.xlsx,New rule: Press 'space' when you see 1-back (i.e. the same letter as the one that appeared 1 letter ago.),a,None,,,,,0,1,1,1,0,0,0,0,,,,,,,,,,,,,,,,,,,,,,,,,,,,,,,,,248.44442720001098,None,251.43094949994702,None,space,3.543389600003138,251.43094949994702,None,248.44442720001098,None,1.365,255.00224850000814,None,256.3730403999798,None,None,1,256.3730403999798,None,258.37678269995376,None,,,,,,,,,,,,,,,,,,,,,,,,,,,,,,,,P044,fencog,1,Pre,2022_May_18_1102,N-Back (New Version 2021),2021.1.4,121.30813828942715,
Conditions/Version_1Pr/oneback(1)_v1.xlsx,New rule: Press 'space' when you see 1-back (i.e. the same letter as the one that appeared 1 letter ago.),x,None,,,,,0,1,1,1,0,1,1,1,,,,,,,,,,,,,,,,,,,,,,,,,,,,,,,,,,,,,,,,,,,2.015,259.87635869998485,None,261.89321270002984,None,None,1,261.89321270002984,None,263.89974549994804,None,,,,,,,,,,,,,,,,,,,,,,,,,,,,,,,,P044,fencog,1,Pre,2022_May_18_1102,N-Back (New Version 2021),2021.1.4,121.30813828942715,
Conditions/Version_1Pr/oneback(1)_v1.xlsx,New rule: Press 'space' when you see 1-back (i.e. the same letter as the one that appeared 1 letter ago.),g,None,,,,,0,1,1,1,0,2,2,2,,,,,,,,,,,,,,,,,,,,,,,,,,,,,,,,,,,,,,,,,,,1.99,265.3996076999465,None,267.39243360003456,None,None,1,267.39243360003456,None,269.39853979996406,None,,,,,,,,,,,,,,,,,,,,,,,,,,,,,,,,P044,fencog,1,Pre,2022_May_18_1102,N-Back (New Version 2021),2021.1.4,121.30813828942715,
Conditions/Version_1Pr/oneback(1)_v1.xlsx,New rule: Press 'space' when you see 1-back (i.e. the same letter as the one that appeared 1 letter ago.),G,space,,,,,0,1,1,1,0,3,3,3,,,,,,,,,,,,,,,,,,,,,,,,,,,,,,,,,,,,,,,,,,,1.315,270.898122399929,None,272.2170016999589,None,space,1,272.2170016999589,None,272.5824912999524,None,0.3493781000142917,,,,,,,,,,,,,,,,,,,,,,,,,,,,,,,P044,fencog,1,Pre,2022_May_18_1102,N-Back (New Version 2021),2021.1.4,121.30813828942715,
Conditions/Version_1Pr/oneback(1)_v1.xlsx,New rule: Press 'space' when you see 1-back (i.e. the same letter as the one that appeared 1 letter ago.),u,None,,,,,0,1,1,1,0,4,4,4,,,,,,,,,,,,,,,,,,,,,,,,,,,,,,,,,,,,,,,,,,,1.44,274.08873570000287,None,275.532068099943,None,None,1,275.532068099943,None,277.53782700002193,None,,,,,,,,,,,,,,,,,,,,,,,,,,,,,,,,P044,fencog,1,Pre,2022_May_18_1102,N-Back (New Version 2021),2021.1.4,121.30813828942715,
Conditions/Version_1Pr/oneback(1)_v1.xlsx,New rule: Press 'space' when you see 1-back (i.e. the same letter as the one that appeared 1 letter ago.),y,None,,,,,0,1,1,1,0,5,5,5,,,,,,,,,,,,,,,,,,,,,,,,,,,,,,,,,,,,,,,,,,,1.24,279.03703679994214,None,280.2827964000171,None,None,1,280.2827964000171,None,282.28647199994884,None,,,,,,,,,,,,,,,,,,,,,,,,,,,,,,,,P044,fencog,1,Pre,2022_May_18_1102,N-Back (New Version 2021),2021.1.4,121.30813828942715,
Conditions/Version_1Pr/oneback(1)_v1.xlsx,New rule: Press 'space' when you see 1-back (i.e. the same letter as the one that appeared 1 letter ago.),y,space,,,,,0,1,1,1,0,6,6,6,,,,,,,,,,,,,,,,,,,,,,,,,,,,,,,,,,,,,,,,,,,1.49,283.785880099982,None,285.27771489997394,None,space,1,285.27771489997394,None,285.6461630000267,None,0.35272490000352263,,,,,,,,,,,,,,,,,,,,,,,,,,,,,,,P044,fencog,1,Pre,2022_May_18_1102,N-Back (New Version 2021),2021.1.4,121.30813828942715,
Conditions/Version_1Pr/oneback(1)_v1.xlsx,New rule: Press 'space' when you see 1-back (i.e. the same letter as the one that appeared 1 letter ago.),k,None,,,,,0,1,1,1,0,7,7,7,,,,,,,,,,,,,,,,,,,,,,,,,,,,,,,,,,,,,,,,,,,1.19,287.15279820002615,None,288.344674599939,None,None,1,288.344674599939,None,290.35074999998324,None,,,,,,,,,,,,,,,,,,,,,,,,,,,,,,,,P044,fencog,1,Pre,2022_May_18_1102,N-Back (New Version 2021),2021.1.4,121.30813828942715,
Conditions/Version_1Pr/oneback(1)_v1.xlsx,New rule: Press 'space' when you see 1-back (i.e. the same letter as the one that appeared 1 letter ago.),c,None,,,,,0,1,1,1,0,8,8,8,,,,,,,,,,,,,,,,,,,,,,,,,,,,,,,,,,,,,,,,,,,1.04,291.8501459999243,None,292.8920630000066,None,None,1,292.8920630000066,None,294.8993733000243,None,,,,,,,,,,,,,,,,,,,,,,,,,,,,,,,,P044,fencog,1,Pre,2022_May_18_1102,N-Back (New Version 2021),2021.1.4,121.30813828942715,
Conditions/Version_1Pr/oneback(1)_v1.xlsx,New rule: Press 'space' when you see 1-back (i.e. the same letter as the one that appeared 1 letter ago.),r,None,,,,,0,1,1,1,0,9,9,9,,,,,,,,,,,,,,,,,,,,,,,,,,,,,,,,,,,,,,,,,,,1.94,296.3986643999815,None,298.3436287000077,None,None,1,298.3436287000077,None,300.34774659993127,None,,,,,,,,,,,,,,,,,,,,,,,,,,,,,,,,P044,fencog,1,Pre,2022_May_18_1102,N-Back (New Version 2021),2021.1.4,121.30813828942715,
Conditions/Version_1Pr/oneback(1)_v1.xlsx,New rule: Press 'space' when you see 1-back (i.e. the same letter as the one that appeared 1 letter ago.),,,,,,,0,1,1,1,,,,,,,,,,,,,,,,,,,,,,,,,,,,,,,,,,,,,,,,,,,,,,,,,,,,,,,,,,,,,,,,,,,,,,,,,,,,,,,,,,,,,,,,,P044,fencog,1,Pre,2022_May_18_1102,N-Back (New Version 2021),2021.1.4,121.30813828942715,
Conditions/Version_1Pr/twoback(1)_v1.xlsx,New rule: Press 'space' when you see 2-back (i.e. the same letter as the one that appeared 2 letters ago.),E,None,,,,,0,2,2,2,0,0,0,0,,,,,,,,,,,,,,,,,,,,,,,,,,,,,,,,,301.87190369993914,None,304.8572275999468,None,space,0.6771394000388682,304.8572275999468,None,301.87190369993914,None,1.115,305.5620552999899,None,306.6814415999688,None,None,1,306.6814415999688,None,308.68692939996254,None,,,,,,,,,,,,,,,,,,,,,,,,,,,,,,,,P044,fencog,1,Pre,2022_May_18_1102,N-Back (New Version 2021),2021.1.4,121.30813828942715,
Conditions/Version_1Pr/twoback(1)_v1.xlsx,New rule: Press 'space' when you see 2-back (i.e. the same letter as the one that appeared 2 letters ago.),p,None,,,,,0,2,2,2,0,1,1,1,,,,,,,,,,,,,,,,,,,,,,,,,,,,,,,,,,,,,,,,,,,1.24,310.18648069992196,None,311.43500649998896,None,None,1,311.43500649998896,None,313.43554239999503,None,,,,,,,,,,,,,,,,,,,,,,,,,,,,,,,,P044,fencog,1,Pre,2022_May_18_1102,N-Back (New Version 2021),2021.1.4,121.30813828942715,
Conditions/Version_1Pr/twoback(1)_v1.xlsx,New rule: Press 'space' when you see 2-back (i.e. the same letter as the one that appeared 2 letters ago.),e,space,,,,,0,2,2,2,0,2,2,2,,,,,,,,,,,,,,,,,,,,,,,,,,,,,,,,,,,,,,,,,,,1.39,314.9351019000169,None,316.32704180001747,None,space,1,316.32704180001747,None,316.83586390002165,None,0.49506330001167953,,,,,,,,,,,,,,,,,,,,,,,,,,,,,,,P044,fencog,1,Pre,2022_May_18_1102,N-Back (New Version 2021),2021.1.4,121.30813828942715,
Conditions/Version_1Pr/twoback(1)_v1.xlsx,New rule: Press 'space' when you see 2-back (i.e. the same letter as the one that appeared 2 letters ago.),s,None,,,,,0,2,2,2,0,3,3,3,,,,,,,,,,,,,,,,,,,,,,,,,,,,,,,,,,,,,,,,,,,1.69,318.3435550000286,None,320.03675349999685,None,None,1,320.03675349999685,None,322.0413172999397,None,,,,,,,,,,,,,,,,,,,,,,,,,,,,,,,,P044,fencog,1,Pre,2022_May_18_1102,N-Back (New Version 2021),2021.1.4,121.30813828942715,
Conditions/Version_1Pr/twoback(1)_v1.xlsx,New rule: Press 'space' when you see 2-back (i.e. the same letter as the one that appeared 2 letters ago.),S,None,,,,,0,2,2,2,0,4,4,4,,,,,,,,,,,,,,,,,,,,,,,,,,,,,,,,,,,,,,,,,,,1.54,323.5408858000301,None,325.08555319998413,None,None,1,325.08555319998413,None,327.08980289998,None,,,,,,,,,,,,,,,,,,,,,,,,,,,,,,,,P044,fencog,1,Pre,2022_May_18_1102,N-Back (New Version 2021),2021.1.4,121.30813828942715,
Conditions/Version_1Pr/twoback(1)_v1.xlsx,New rule: Press 'space' when you see 2-back (i.e. the same letter as the one that appeared 2 letters ago.),s,space,,,,,0,2,2,2,0,5,5,5,,,,,,,,,,,,,,,,,,,,,,,,,,,,,,,,,,,,,,,,,,,1.815,328.5894160999451,None,330.40631869994104,None,space,1,330.40631869994104,None,330.92307739995886,None,0.5037781000137329,,,,,,,,,,,,,,,,,,,,,,,,,,,,,,,P044,fencog,1,Pre,2022_May_18_1102,N-Back (New Version 2021),2021.1.4,121.30813828942715,
Conditions/Version_1Pr/twoback(1)_v1.xlsx,New rule: Press 'space' when you see 2-back (i.e. the same letter as the one that appeared 2 letters ago.),P,None,,,,,0,2,2,2,0,6,6,6,,,,,,,,,,,,,,,,,,,,,,,,,,,,,,,,,,,,,,,,,,,1.615,332.4299507000251,None,334.0480656999862,None,None,1,334.0480656999862,None,336.05377789994236,None,,,,,,,,,,,,,,,,,,,,,,,,,,,,,,,,P044,fencog,1,Pre,2022_May_18_1102,N-Back (New Version 2021),2021.1.4,121.30813828942715,
Conditions/Version_1Pr/twoback(1)_v1.xlsx,New rule: Press 'space' when you see 2-back (i.e. the same letter as the one that appeared 2 letters ago.),C,None,,,,,0,2,2,2,0,7,7,7,,,,,,,,,,,,,,,,,,,,,,,,,,,,,,,,,,,,,,,,,,,1.94,337.5533570999978,None,339.4960091999965,None,None,1,339.4960091999965,None,341.5022651000181,None,,,,,,,,,,,,,,,,,,,,,,,,,,,,,,,,P044,fencog,1,Pre,2022_May_18_1102,N-Back (New Version 2021),2021.1.4,121.30813828942715,
Conditions/Version_1Pr/twoback(1)_v1.xlsx,New rule: Press 'space' when you see 2-back (i.e. the same letter as the one that appeared 2 letters ago.),x,None,,,,,0,2,2,2,0,8,8,8,,,,,,,,,,,,,,,,,,,,,,,,,,,,,,,,,,,,,,,,,,,1.965,343.0014393000165,None,344.9710417999886,None,None,1,344.9710417999886,None,346.9756732999813,None,,,,,,,,,,,,,,,,,,,,,,,,,,,,,,,,P044,fencog,1,Pre,2022_May_18_1102,N-Back (New Version 2021),2021.1.4,121.30813828942715,
Conditions/Version_1Pr/twoback(1)_v1.xlsx,New rule: Press 'space' when you see 2-back (i.e. the same letter as the one that appeared 2 letters ago.),Z,None,,,,,0,2,2,2,0,9,9,9,,,,,,,,,,,,,,,,,,,,,,,,,,,,,,,,,,,,,,,,,,,1.565,348.47476160002407,None,350.0422033999348,None,None,1,350.0422033999348,None,352.0491333999671,None,,,,,,,,,,,,,,,,,,,,,,,,,,,,,,,,P044,fencog,1,Pre,2022_May_18_1102,N-Back (New Version 2021),2021.1.4,121.30813828942715,
Conditions/Version_1Pr/twoback(1)_v1.xlsx,New rule: Press 'space' when you see 2-back (i.e. the same letter as the one that appeared 2 letters ago.),,,,,,,0,2,2,2,,,,,,,,,,,,,,,,,,,,,,,,,,,,,,,,,,,,,,,,,,,,,,,,,,,,,,,,,,,,,,,,,,,,,,,,,,,,,,,,,,,,,,,,,P044,fencog,1,Pre,2022_May_18_1102,N-Back (New Version 2021),2021.1.4,121.30813828942715,
Conditions/Version_1Pr/threeback(1)_v1.xlsx,New rule: Press 'space' when you see 3-back (i.e. the same letter as the one that appeared 3 letters ago.),r,None,,,,,0,3,3,3,0,0,0,0,,,,,,,,,,,,,,,,,,,,,,,,,,,,,,,,,353.5704822000116,None,356.5586341000162,None,space,0.7514936999650672,356.5586341000162,None,353.5704822000116,None,1.89,357.34075430000667,None,359.23009420000017,None,None,1,359.23009420000017,None,361.2295527999522,None,,,,,,,,,,,,,,,,,,,,,,,,,,,,,,,,P044,fencog,1,Pre,2022_May_18_1102,N-Back (New Version 2021),2021.1.4,121.30813828942715,
Conditions/Version_1Pr/threeback(1)_v1.xlsx,New rule: Press 'space' when you see 3-back (i.e. the same letter as the one that appeared 3 letters ago.),a,None,,,,,0,3,3,3,0,1,1,1,,,,,,,,,,,,,,,,,,,,,,,,,,,,,,,,,,,,,,,,,,,1.115,362.7290366999805,None,363.8466499999631,None,None,1,363.8466499999631,None,365.8534226999618,None,,,,,,,,,,,,,,,,,,,,,,,,,,,,,,,,P044,fencog,1,Pre,2022_May_18_1102,N-Back (New Version 2021),2021.1.4,121.30813828942715,
Conditions/Version_1Pr/threeback(1)_v1.xlsx,New rule: Press 'space' when you see 3-back (i.e. the same letter as the one that appeared 3 letters ago.),t,None,,,,,0,3,3,3,0,2,2,2,,,,,,,,,,,,,,,,,,,,,,,,,,,,,,,,,,,,,,,,,,,1.415,367.35277110000607,None,368.76995019998867,None,None,1,368.76995019998867,None,370.7769535999978,None,,,,,,,,,,,,,,,,,,,,,,,,,,,,,,,,P044,fencog,1,Pre,2022_May_18_1102,N-Back (New Version 2021),2021.1.4,121.30813828942715,
Conditions/Version_1Pr/threeback(1)_v1.xlsx,New rule: Press 'space' when you see 3-back (i.e. the same letter as the one that appeared 3 letters ago.),r,space,,,,,0,3,3,3,0,3,3,3,,,,,,,,,,,,,,,,,,,,,,,,,,,,,,,,,,,,,,,,,,,1.04,372.27833939995617,None,373.319647999946,None,space,1,373.319647999946,None,374.26919709995855,None,0.9346172000514343,,,,,,,,,,,,,,,,,,,,,,,,,,,,,,,P044,fencog,1,Pre,2022_May_18_1102,N-Back (New Version 2021),2021.1.4,121.30813828942715,
Conditions/Version_1Pr/threeback(1)_v1.xlsx,New rule: Press 'space' when you see 3-back (i.e. the same letter as the one that appeared 3 letters ago.),a,None,,,,,0,3,3,3,0,4,4,4,,,,,,,,,,,,,,,,,,,,,,,,,,,,,,,,,,,,,,,,,,,1.515,375.777806899976,None,377.3017267999239,None,space,0,377.3017267999239,None,378.01288699998986,None,0.6963224000064656,,,,,,,,,,,,,,,,,,,,,,,,,,,,,,,P044,fencog,1,Pre,2022_May_18_1102,N-Back (New Version 2021),2021.1.4,121.30813828942715,
Conditions/Version_1Pr/threeback(1)_v1.xlsx,New rule: Press 'space' when you see 3-back (i.e. the same letter as the one that appeared 3 letters ago.),Y,None,,,,,0,3,3,3,0,5,5,5,,,,,,,,,,,,,,,,,,,,,,,,,,,,,,,,,,,,,,,,,,,1.39,379.51598989998456,None,380.90950279997196,None,None,1,380.90950279997196,None,382.9147236000281,None,,,,,,,,,,,,,,,,,,,,,,,,,,,,,,,,P044,fencog,1,Pre,2022_May_18_1102,N-Back (New Version 2021),2021.1.4,121.30813828942715,
Conditions/Version_1Pr/threeback(1)_v1.xlsx,New rule: Press 'space' when you see 3-back (i.e. the same letter as the one that appeared 3 letters ago.),q,None,,,,,0,3,3,3,0,6,6,6,,,,,,,,,,,,,,,,,,,,,,,,,,,,,,,,,,,,,,,,,,,1.765,384.41452649992425,None,386.18290409992915,None,None,1,386.18290409992915,None,388.1884750999743,None,,,,,,,,,,,,,,,,,,,,,,,,,,,,,,,,P044,fencog,1,Pre,2022_May_18_1102,N-Back (New Version 2021),2021.1.4,121.30813828942715,
Conditions/Version_1Pr/threeback(1)_v1.xlsx,New rule: Press 'space' when you see 3-back (i.e. the same letter as the one that appeared 3 letters ago.),A,space,,,,,0,3,3,3,0,7,7,7,,,,,,,,,,,,,,,,,,,,,,,,,,,,,,,,,,,,,,,,,,,1.465,389.6880254999269,None,391.15579729992896,None,None,0,391.15579729992896,None,393.16697609995026,None,,,,,,,,,,,,,,,,,,,,,,,,,,,,,,,,P044,fencog,1,Pre,2022_May_18_1102,N-Back (New Version 2021),2021.1.4,121.30813828942715,
Conditions/Version_1Pr/threeback(1)_v1.xlsx,New rule: Press 'space' when you see 3-back (i.e. the same letter as the one that appeared 3 letters ago.),y,None,,,,,0,3,3,3,0,8,8,8,,,,,,,,,,,,,,,,,,,,,,,,,,,,,,,,,,,,,,,,,,,1.265,394.66150039993227,None,395.9286594999721,None,None,1,395.9286594999721,None,397.9354084000224,None,,,,,,,,,,,,,,,,,,,,,,,,,,,,,,,,P044,fencog,1,Pre,2022_May_18_1102,N-Back (New Version 2021),2021.1.4,121.30813828942715,
Conditions/Version_1Pr/threeback(1)_v1.xlsx,New rule: Press 'space' when you see 3-back (i.e. the same letter as the one that appeared 3 letters ago.),r,None,,,,,0,3,3,3,0,9,9,9,,,,,,,,,,,,,,,,,,,,,,,,,,,,,,,,,,,,,,,,,,,2.015,399.435135699925,None,401.45219630002975,None,None,1,401.45219630002975,None,403.45897979999427,None,,,,,,,,,,,,,,,,,,,,,,,,,,,,,,,,P044,fencog,1,Pre,2022_May_18_1102,N-Back (New Version 2021),2021.1.4,121.30813828942715,
Conditions/Version_1Pr/threeback(1)_v1.xlsx,New rule: Press 'space' when you see 3-back (i.e. the same letter as the one that appeared 3 letters ago.),,,,,,,0,3,3,3,,,,,,,,,,,,,,,,,,,,,,,,,,,,,,,,,,,,,,,,,,,,,,,,,,,,,,,,,,,,,,,,,,,,,,,,,,,,,,,,,,,,,,,,,P044,fencog,1,Pre,2022_May_18_1102,N-Back (New Version 2021),2021.1.4,121.30813828942715,
,,,,,,,,,,,,,,,,,,,,,,,,,,,,,,,,,,,,,,,,,,,,,,,,,,,,,,,,,,,,,,,,,,,,,,404.9646646999754,None,space,0.7797140999464318,405.45853790000547,None,,,,,,,,,,,,,,,,,,,,,,,,,P044,fencog,1,Pre,2022_May_18_1102,N-Back (New Version 2021),2021.1.4,121.30813828942715,
,,,,,,,,,,,,,,,,,,,,,,,,,,,,,,,,,,,,,,,,,,,,,,,,,,,,,,,,,,,,,,,,,,,,,,,,,,,,406.2706130000297,None,space,82.51124020002317,406.766828599968,None,,,,,,,,,,,,,,,,,,,P044,fencog,1,Pre,2022_May_18_1102,N-Back (New Version 2021),2021.1.4,121.30813828942715,
,,,,Conditions/Version_1/zeroback(1)_v1.xlsx,Rule: Press 'space' when you see the letter 'x' or 'X'.,b,None,,,,,,,,,0,0,0,0,0,0,0,0,,,,,,,,,,,,,,,,,,,,,,,,,,,,,,,,,,,,,,,,,,,,,,,,,,,,,,,,,,,489.4003020999953,None,492.39521849993616,None,space,0.5708501999033615,492.39521849993616,None,489.4003020999953,None,1.2518,494.25699549994897,None,None,1,494.25699549994897,None,,P044,fencog,1,Pre,2022_May_18_1102,N-Back (New Version 2021),2021.1.4,121.30813828942715,
,,,,Conditions/Version_1/zeroback(1)_v1.xlsx,Rule: Press 'space' when you see the letter 'x' or 'X'.,T,None,,,,,,,,,0,0,0,0,0,1,1,1,,,,,,,,,,,,,,,,,,,,,,,,,,,,,,,,,,,,,,,,,,,,,,,,,,,,,,,,,,,,,,,,,,,,,1.4006,497.65625969995745,None,None,1,497.65625969995745,None,,P044,fencog,1,Pre,2022_May_18_1102,N-Back (New Version 2021),2021.1.4,121.30813828942715,
,,,,Conditions/Version_1/zeroback(1)_v1.xlsx,Rule: Press 'space' when you see the letter 'x' or 'X'.,L,None,,,,,,,,,0,0,0,0,0,2,2,2,,,,,,,,,,,,,,,,,,,,,,,,,,,,,,,,,,,,,,,,,,,,,,,,,,,,,,,,,,,,,,,,,,,,,1.0224,500.68855600000825,None,None,1,500.68855600000825,None,,P044,fencog,1,Pre,2022_May_18_1102,N-Back (New Version 2021),2021.1.4,121.30813828942715,
,,,,Conditions/Version_1/zeroback(1)_v1.xlsx,Rule: Press 'space' when you see the letter 'x' or 'X'.,x,space,,,,,,,,,0,0,0,0,0,3,3,3,,,,,,,,,,,,,,,,,,,,,,,,,,,,,,,,,,,,,,,,,,,,,,,,,,,,,,,,,,,,,,,,,,,,,1.5928,504.28706989996135,None,space,1,504.28706989996135,None,0.37493480008561164,P044,fencog,1,Pre,2022_May_18_1102,N-Back (New Version 2021),2021.1.4,121.30813828942715,
,,,,Conditions/Version_1/zeroback(1)_v1.xlsx,Rule: Press 'space' when you see the letter 'x' or 'X'.,o,None,,,,,,,,,0,0,0,0,0,4,4,4,,,,,,,,,,,,,,,,,,,,,,,,,,,,,,,,,,,,,,,,,,,,,,,,,,,,,,,,,,,,,,,,,,,,,1.0534,507.3452221000334,None,None,1,507.3452221000334,None,,P044,fencog,1,Pre,2022_May_18_1102,N-Back (New Version 2021),2021.1.4,121.30813828942715,
,,,,Conditions/Version_1/zeroback(1)_v1.xlsx,Rule: Press 'space' when you see the letter 'x' or 'X'.,P,None,,,,,,,,,0,0,0,0,0,5,5,5,,,,,,,,,,,,,,,,,,,,,,,,,,,,,,,,,,,,,,,,,,,,,,,,,,,,,,,,,,,,,,,,,,,,,1.6548,511.0101190999849,None,None,1,511.0101190999849,None,,P044,fencog,1,Pre,2022_May_18_1102,N-Back (New Version 2021),2021.1.4,121.30813828942715,
,,,,Conditions/Version_1/zeroback(1)_v1.xlsx,Rule: Press 'space' when you see the letter 'x' or 'X'.,X,space,,,,,,,,,0,0,0,0,0,6,6,6,,,,,,,,,,,,,,,,,,,,,,,,,,,,,,,,,,,,,,,,,,,,,,,,,,,,,,,,,,,,,,,,,,,,,1.754,514.7673645999748,None,space,1,514.7673645999748,None,0.31063099997118115,P044,fencog,1,Pre,2022_May_18_1102,N-Back (New Version 2021),2021.1.4,121.30813828942715,
,,,,Conditions/Version_1/zeroback(1)_v1.xlsx,Rule: Press 'space' when you see the letter 'x' or 'X'.,n,None,,,,,,,,,0,0,0,0,0,7,7,7,,,,,,,,,,,,,,,,,,,,,,,,,,,,,,,,,,,,,,,,,,,,,,,,,,,,,,,,,,,,,,,,,,,,,1.5184,518.2922153000254,None,None,1,518.2922153000254,None,,P044,fencog,1,Pre,2022_May_18_1102,N-Back (New Version 2021),2021.1.4,121.30813828942715,
,,,,Conditions/Version_1/zeroback(1)_v1.xlsx,Rule: Press 'space' when you see the letter 'x' or 'X'.,M,None,,,,,,,,,0,0,0,0,0,8,8,8,,,,,,,,,,,,,,,,,,,,,,,,,,,,,,,,,,,,,,,,,,,,,,,,,,,,,,,,,,,,,,,,,,,,,1.5618,521.8659876999445,None,None,1,521.8659876999445,None,,P044,fencog,1,Pre,2022_May_18_1102,N-Back (New Version 2021),2021.1.4,121.30813828942715,
,,,,Conditions/Version_1/zeroback(1)_v1.xlsx,Rule: Press 'space' when you see the letter 'x' or 'X'.,a,None,,,,,,,,,0,0,0,0,0,9,9,9,,,,,,,,,,,,,,,,,,,,,,,,,,,,,,,,,,,,,,,,,,,,,,,,,,,,,,,,,,,,,,,,,,,,,1.3944,525.2725652999943,None,None,1,525.2725652999943,None,,P044,fencog,1,Pre,2022_May_18_1102,N-Back (New Version 2021),2021.1.4,121.30813828942715,
,,,,Conditions/Version_1/zeroback(1)_v1.xlsx,Rule: Press 'space' when you see the letter 'x' or 'X'.,,,,,,,,,,,0,0,0,0,,,,,,,,,,,,,,,,,,,,,,,,,,,,,,,,,,,,,,,,,,,,,,,,,,,,,,,,,,,,,,,,,,,,,,,,,,,,,,,,,P044,fencog,1,Pre,2022_May_18_1102,N-Back (New Version 2021),2021.1.4,121.30813828942715,
,,,,Conditions/Version_1/oneback(1)_v1.xlsx,New rule: Press 'space' when you see 1-back (i.e. the same letter as the one that appeared 1 letter ago.),b,None,,,,,,,,,0,1,1,1,0,0,0,0,,,,,,,,,,,,,,,,,,,,,,,,,,,,,,,,,,,,,,,,,,,,,,,,,,,,,,,,,,,527.2912820000201,None,530.2817873000167,None,space,0.7641708999872208,530.2817873000167,None,527.2912820000201,None,1.785,532.8619996999623,None,None,1,532.8619996999623,None,,P044,fencog,1,Pre,2022_May_18_1102,N-Back (New Version 2021),2021.1.4,121.30813828942715,
,,,,Conditions/Version_1/oneback(1)_v1.xlsx,New rule: Press 'space' when you see 1-back (i.e. the same letter as the one that appeared 1 letter ago.),p,None,,,,,,,,,0,1,1,1,0,1,1,1,,,,,,,,,,,,,,,,,,,,,,,,,,,,,,,,,,,,,,,,,,,,,,,,,,,,,,,,,,,,,,,,,,,,,1.3634,536.22773709998,None,None,1,536.22773709998,None,,P044,fencog,1,Pre,2022_May_18_1102,N-Back (New Version 2021),2021.1.4,121.30813828942715,
,,,,Conditions/Version_1/oneback(1)_v1.xlsx,New rule: Press 'space' when you see 1-back (i.e. the same letter as the one that appeared 1 letter ago.),M,None,,,,,,,,,0,1,1,1,0,2,2,2,,,,,,,,,,,,,,,,,,,,,,,,,,,,,,,,,,,,,,,,,,,,,,,,,,,,,,,,,,,,,,,,,,,,,1.134,539.3685444999719,None,None,1,539.3685444999719,None,,P044,fencog,1,Pre,2022_May_18_1102,N-Back (New Version 2021),2021.1.4,121.30813828942715,
,,,,Conditions/Version_1/oneback(1)_v1.xlsx,New rule: Press 'space' when you see 1-back (i.e. the same letter as the one that appeared 1 letter ago.),M,space,,,,,,,,,0,1,1,1,0,3,3,3,,,,,,,,,,,,,,,,,,,,,,,,,,,,,,,,,,,,,,,,,,,,,,,,,,,,,,,,,,,,,,,,,,,,,1.4812,542.8506489000283,None,space,1,542.8506489000283,None,0.42728549998719245,P044,fencog,1,Pre,2022_May_18_1102,N-Back (New Version 2021),2021.1.4,121.30813828942715,
,,,,Conditions/Version_1/oneback(1)_v1.xlsx,New rule: Press 'space' when you see 1-back (i.e. the same letter as the one that appeared 1 letter ago.),n,None,,,,,,,,,0,1,1,1,0,4,4,4,,,,,,,,,,,,,,,,,,,,,,,,,,,,,,,,,,,,,,,,,,,,,,,,,,,,,,,,,,,,,,,,,,,,,1.0472,545.8998129999964,None,None,1,545.8998129999964,None,,P044,fencog,1,Pre,2022_May_18_1102,N-Back (New Version 2021),2021.1.4,121.30813828942715,
,,,,Conditions/Version_1/oneback(1)_v1.xlsx,New rule: Press 'space' when you see 1-back (i.e. the same letter as the one that appeared 1 letter ago.),g,None,,,,,,,,,0,1,1,1,0,5,5,5,,,,,,,,,,,,,,,,,,,,,,,,,,,,,,,,,,,,,,,,,,,,,,,,,,,,,,,,,,,,,,,,,,,,,1.1278,549.0322237999644,None,None,1,549.0322237999644,None,,P044,fencog,1,Pre,2022_May_18_1102,N-Back (New Version 2021),2021.1.4,121.30813828942715,
,,,,Conditions/Version_1/oneback(1)_v1.xlsx,New rule: Press 'space' when you see 1-back (i.e. the same letter as the one that appeared 1 letter ago.),P,None,,,,,,,,,0,1,1,1,0,6,6,6,,,,,,,,,,,,,,,,,,,,,,,,,,,,,,,,,,,,,,,,,,,,,,,,,,,,,,,,,,,,,,,,,,,,,1.1712,552.2063117999351,None,None,1,552.2063117999351,None,,P044,fencog,1,Pre,2022_May_18_1102,N-Back (New Version 2021),2021.1.4,121.30813828942715,
,,,,Conditions/Version_1/oneback(1)_v1.xlsx,New rule: Press 'space' when you see 1-back (i.e. the same letter as the one that appeared 1 letter ago.),o,None,,,,,,,,,0,1,1,1,0,7,7,7,,,,,,,,,,,,,,,,,,,,,,,,,,,,,,,,,,,,,,,,,,,,,,,,,,,,,,,,,,,,,,,,,,,,,1.847,556.0551422999706,None,None,1,556.0551422999706,None,,P044,fencog,1,Pre,2022_May_18_1102,N-Back (New Version 2021),2021.1.4,121.30813828942715,
,,,,Conditions/Version_1/oneback(1)_v1.xlsx,New rule: Press 'space' when you see 1-back (i.e. the same letter as the one that appeared 1 letter ago.),f,None,,,,,,,,,0,1,1,1,0,8,8,8,,,,,,,,,,,,,,,,,,,,,,,,,,,,,,,,,,,,,,,,,,,,,,,,,,,,,,,,,,,,,,,,,,,,,1.6176,559.6798446000321,None,None,1,559.6798446000321,None,,P044,fencog,1,Pre,2022_May_18_1102,N-Back (New Version 2021),2021.1.4,121.30813828942715,
,,,,Conditions/Version_1/oneback(1)_v1.xlsx,New rule: Press 'space' when you see 1-back (i.e. the same letter as the one that appeared 1 letter ago.),F,space,,,,,,,,,0,1,1,1,0,9,9,9,,,,,,,,,,,,,,,,,,,,,,,,,,,,,,,,,,,,,,,,,,,,,,,,,,,,,,,,,,,,,,,,,,,,,1.2022,562.8951120999409,None,space,1,562.8951120999409,None,0.3667026999173686,P044,fencog,1,Pre,2022_May_18_1102,N-Back (New Version 2021),2021.1.4,121.30813828942715,
,,,,Conditions/Version_1/oneback(1)_v1.xlsx,New rule: Press 'space' when you see 1-back (i.e. the same letter as the one that appeared 1 letter ago.),,,,,,,,,,,0,1,1,1,,,,,,,,,,,,,,,,,,,,,,,,,,,,,,,,,,,,,,,,,,,,,,,,,,,,,,,,,,,,,,,,,,,,,,,,,,,,,,,,,P044,fencog,1,Pre,2022_May_18_1102,N-Back (New Version 2021),2021.1.4,121.30813828942715,
,,,,Conditions/Version_1/twoback(1)_v1.xlsx,New rule: Press 'space' when you see 2-back (i.e. the same letter as the one that appeared 2 letters ago.),b,None,,,,,,,,,0,2,2,2,0,0,0,0,,,,,,,,,,,,,,,,,,,,,,,,,,,,,,,,,,,,,,,,,,,,,,,,,,,,,,,,,,,564.9122970999451,None,567.894748599967,None,space,0.863185300026089,567.894748599967,None,564.9122970999451,None,1.754,570.5448643999407,None,None,1,570.5448643999407,None,,P044,fencog,1,Pre,2022_May_18_1102,N-Back (New Version 2021),2021.1.4,121.30813828942715,
,,,,Conditions/Version_1/twoback(1)_v1.xlsx,New rule: Press 'space' when you see 2-back (i.e. the same letter as the one that appeared 2 letters ago.),h,None,,,,,,,,,0,2,2,2,0,1,1,1,,,,,,,,,,,,,,,,,,,,,,,,,,,,,,,,,,,,,,,,,,,,,,,,,,,,,,,,,,,,,,,,,,,,,1.5494,574.1031532000052,None,None,1,574.1031532000052,None,,P044,fencog,1,Pre,2022_May_18_1102,N-Back (New Version 2021),2021.1.4,121.30813828942715,
,,,,Conditions/Version_1/twoback(1)_v1.xlsx,New rule: Press 'space' when you see 2-back (i.e. the same letter as the one that appeared 2 letters ago.),j,None,,,,,,,,,0,2,2,2,0,2,2,2,,,,,,,,,,,,,,,,,,,,,,,,,,,,,,,,,,,,,,,,,,,,,,,,,,,,,,,,,,,,,,,,,,,,,1.4378,577.5603026000317,None,None,1,577.5603026000317,None,,P044,fencog,1,Pre,2022_May_18_1102,N-Back (New Version 2021),2021.1.4,121.30813828942715,
,,,,Conditions/Version_1/twoback(1)_v1.xlsx,New rule: Press 'space' when you see 2-back (i.e. the same letter as the one that appeared 2 letters ago.),H,space,,,,,,,,,0,2,2,2,0,3,3,3,,,,,,,,,,,,,,,,,,,,,,,,,,,,,,,,,,,,,,,,,,,,,,,,,,,,,,,,,,,,,,,,,,,,,1.2084,580.7710689000087,None,space,1,580.7710689000087,None,0.40310520003549755,P044,fencog,1,Pre,2022_May_18_1102,N-Back (New Version 2021),2021.1.4,121.30813828942715,
,,,,Conditions/Version_1/twoback(1)_v1.xlsx,New rule: Press 'space' when you see 2-back (i.e. the same letter as the one that appeared 2 letters ago.),p,None,,,,,,,,,0,2,2,2,0,4,4,4,,,,,,,,,,,,,,,,,,,,,,,,,,,,,,,,,,,,,,,,,,,,,,,,,,,,,,,,,,,,,,,,,,,,,1.444,584.213653499959,None,None,1,584.213653499959,None,,P044,fencog,1,Pre,2022_May_18_1102,N-Back (New Version 2021),2021.1.4,121.30813828942715,
,,,,Conditions/Version_1/twoback(1)_v1.xlsx,New rule: Press 'space' when you see 2-back (i.e. the same letter as the one that appeared 2 letters ago.),p,None,,,,,,,,,0,2,2,2,0,5,5,5,,,,,,,,,,,,,,,,,,,,,,,,,,,,,,,,,,,,,,,,,,,,,,,,,,,,,,,,,,,,,,,,,,,,,1.2642,587.4796015999746,None,space,0,587.4796015999746,None,0.8703199999872595,P044,fencog,1,Pre,2022_May_18_1102,N-Back (New Version 2021),2021.1.4,121.30813828942715,
,,,,Conditions/Version_1/twoback(1)_v1.xlsx,New rule: Press 'space' when you see 2-back (i.e. the same letter as the one that appeared 2 letters ago.),w,None,,,,,,,,,0,2,2,2,0,6,6,6,,,,,,,,,,,,,,,,,,,,,,,,,,,,,,,,,,,,,,,,,,,,,,,,,,,,,,,,,,,,,,,,,,,,,1.413,590.8950982999522,None,None,1,590.8950982999522,None,,P044,fencog,1,Pre,2022_May_18_1102,N-Back (New Version 2021),2021.1.4,121.30813828942715,
,,,,Conditions/Version_1/twoback(1)_v1.xlsx,New rule: Press 'space' when you see 2-back (i.e. the same letter as the one that appeared 2 letters ago.),R,None,,,,,,,,,0,2,2,2,0,7,7,7,,,,,,,,,,,,,,,,,,,,,,,,,,,,,,,,,,,,,,,,,,,,,,,,,,,,,,,,,,,,,,,,,,,,,1.878,594.7813069999684,None,None,1,594.7813069999684,None,,P044,fencog,1,Pre,2022_May_18_1102,N-Back (New Version 2021),2021.1.4,121.30813828942715,
,,,,Conditions/Version_1/twoback(1)_v1.xlsx,New rule: Press 'space' when you see 2-back (i.e. the same letter as the one that appeared 2 letters ago.),a,None,,,,,,,,,0,2,2,2,0,8,8,8,,,,,,,,,,,,,,,,,,,,,,,,,,,,,,,,,,,,,,,,,,,,,,,,,,,,,,,,,,,,,,,,,,,,,1.94,598.726032000035,None,None,1,598.726032000035,None,,P044,fencog,1,Pre,2022_May_18_1102,N-Back (New Version 2021),2021.1.4,121.30813828942715,
,,,,Conditions/Version_1/twoback(1)_v1.xlsx,New rule: Press 'space' when you see 2-back (i.e. the same letter as the one that appeared 2 letters ago.),r,space,,,,,,,,,0,2,2,2,0,9,9,9,,,,,,,,,,,,,,,,,,,,,,,,,,,,,,,,,,,,,,,,,,,,,,,,,,,,,,,,,,,,,,,,,,,,,1.7292,602.4596307999454,None,space,1,602.4596307999454,None,0.5942724000196904,P044,fencog,1,Pre,2022_May_18_1102,N-Back (New Version 2021),2021.1.4,121.30813828942715,
,,,,Conditions/Version_1/twoback(1)_v1.xlsx,New rule: Press 'space' when you see 2-back (i.e. the same letter as the one that appeared 2 letters ago.),,,,,,,,,,,0,2,2,2,,,,,,,,,,,,,,,,,,,,,,,,,,,,,,,,,,,,,,,,,,,,,,,,,,,,,,,,,,,,,,,,,,,,,,,,,,,,,,,,,P044,fencog,1,Pre,2022_May_18_1102,N-Back (New Version 2021),2021.1.4,121.30813828942715,
,,,,Conditions/Version_1/threeback(1)_v1.xlsx,New rule: Press 'space' when you see 3-back (i.e. the same letter as the one that appeared 3 letters ago.),r,None,,,,,,,,,0,3,3,3,0,0,0,0,,,,,,,,,,,,,,,,,,,,,,,,,,,,,,,,,,,,,,,,,,,,,,,,,,,,,,,,,,,604.4905614999589,None,607.4779282999225,None,space,1.3599320999346673,607.4779282999225,None,604.4905614999589,None,1.0348,609.9227320000064,None,None,1,609.9227320000064,None,,P044,fencog,1,Pre,2022_May_18_1102,N-Back (New Version 2021),2021.1.4,121.30813828942715,
,,,,Conditions/Version_1/threeback(1)_v1.xlsx,New rule: Press 'space' when you see 3-back (i.e. the same letter as the one that appeared 3 letters ago.),o,None,,,,,,,,,0,3,3,3,0,1,1,1,,,,,,,,,,,,,,,,,,,,,,,,,,,,,,,,,,,,,,,,,,,,,,,,,,,,,,,,,,,,,,,,,,,,,1.1526,613.0820132999215,None,None,1,613.0820132999215,None,,P044,fencog,1,Pre,2022_May_18_1102,N-Back (New Version 2021),2021.1.4,121.30813828942715,
,,,,Conditions/Version_1/threeback(1)_v1.xlsx,New rule: Press 'space' when you see 3-back (i.e. the same letter as the one that appeared 3 letters ago.),P,None,,,,,,,,,0,3,3,3,0,2,2,2,,,,,,,,,,,,,,,,,,,,,,,,,,,,,,,,,,,,,,,,,,,,,,,,,,,,,,,,,,,,,,,,,,,,,1.5618,616.6561020999216,None,None,1,616.6561020999216,None,,P044,fencog,1,Pre,2022_May_18_1102,N-Back (New Version 2021),2021.1.4,121.30813828942715,
,,,,Conditions/Version_1/threeback(1)_v1.xlsx,New rule: Press 'space' when you see 3-back (i.e. the same letter as the one that appeared 3 letters ago.),R,space,,,,,,,,,0,3,3,3,0,3,3,3,,,,,,,,,,,,,,,,,,,,,,,,,,,,,,,,,,,,,,,,,,,,,,,,,,,,,,,,,,,,,,,,,,,,,1.506,620.1707717999816,None,space,1,620.1707717999816,None,0.5950950999977067,P044,fencog,1,Pre,2022_May_18_1102,N-Back (New Version 2021),2021.1.4,121.30813828942715,
,,,,Conditions/Version_1/threeback(1)_v1.xlsx,New rule: Press 'space' when you see 3-back (i.e. the same letter as the one that appeared 3 letters ago.),p,None,,,,,,,,,0,3,3,3,0,4,4,4,,,,,,,,,,,,,,,,,,,,,,,,,,,,,,,,,,,,,,,,,,,,,,,,,,,,,,,,,,,,,,,,,,,,,1.196,623.3808614999289,None,None,1,623.3808614999289,None,,P044,fencog,1,Pre,2022_May_18_1102,N-Back (New Version 2021),2021.1.4,121.30813828942715,
,,,,Conditions/Version_1/threeback(1)_v1.xlsx,New rule: Press 'space' when you see 3-back (i.e. the same letter as the one that appeared 3 letters ago.),E,None,,,,,,,,,0,3,3,3,0,5,5,5,,,,,,,,,,,,,,,,,,,,,,,,,,,,,,,,,,,,,,,,,,,,,,,,,,,,,,,,,,,,,,,,,,,,,1.9648,627.3508055999409,None,None,1,627.3508055999409,None,,P044,fencog,1,Pre,2022_May_18_1102,N-Back (New Version 2021),2021.1.4,121.30813828942715,
,,,,Conditions/Version_1/threeback(1)_v1.xlsx,New rule: Press 'space' when you see 3-back (i.e. the same letter as the one that appeared 3 letters ago.),e,None,,,,,,,,,0,3,3,3,0,6,6,6,,,,,,,,,,,,,,,,,,,,,,,,,,,,,,,,,,,,,,,,,,,,,,,,,,,,,,,,,,,,,,,,,,,,,1.2952,630.6501773999771,None,None,1,630.6501773999771,None,,P044,fencog,1,Pre,2022_May_18_1102,N-Back (New Version 2021),2021.1.4,121.30813828942715,
,,,,Conditions/Version_1/threeback(1)_v1.xlsx,New rule: Press 'space' when you see 3-back (i.e. the same letter as the one that appeared 3 letters ago.),m,None,,,,,,,,,0,3,3,3,0,7,7,7,,,,,,,,,,,,,,,,,,,,,,,,,,,,,,,,,,,,,,,,,,,,,,,,,,,,,,,,,,,,,,,,,,,,,1.8656,634.5187765000155,None,None,1,634.5187765000155,None,,P044,fencog,1,Pre,2022_May_18_1102,N-Back (New Version 2021),2021.1.4,121.30813828942715,
,,,,Conditions/Version_1/threeback(1)_v1.xlsx,New rule: Press 'space' when you see 3-back (i.e. the same letter as the one that appeared 3 letters ago.),n,None,,,,,,,,,0,3,3,3,0,8,8,8,,,,,,,,,,,,,,,,,,,,,,,,,,,,,,,,,,,,,,,,,,,,,,,,,,,,,,,,,,,,,,,,,,,,,1.4626,637.9896578999469,None,None,1,637.9896578999469,None,,P044,fencog,1,Pre,2022_May_18_1102,N-Back (New Version 2021),2021.1.4,121.30813828942715,
,,,,Conditions/Version_1/threeback(1)_v1.xlsx,New rule: Press 'space' when you see 3-back (i.e. the same letter as the one that appeared 3 letters ago.),e,space,,,,,,,,,0,3,3,3,0,9,9,9,,,,,,,,,,,,,,,,,,,,,,,,,,,,,,,,,,,,,,,,,,,,,,,,,,,,,,,,,,,,,,,,,,,,,1.8346,641.8310129999882,None,space,1,641.8310129999882,None,0.3191724999342114,P044,fencog,1,Pre,2022_May_18_1102,N-Back (New Version 2021),2021.1.4,121.30813828942715,
,,,,Conditions/Version_1/threeback(1)_v1.xlsx,New rule: Press 'space' when you see 3-back (i.e. the same letter as the one that appeared 3 letters ago.),,,,,,,,,,,0,3,3,3,,,,,,,,,,,,,,,,,,,,,,,,,,,,,,,,,,,,,,,,,,,,,,,,,,,,,,,,,,,,,,,,,,,,,,,,,,,,,,,,,P044,fencog,1,Pre,2022_May_18_1102,N-Back (New Version 2021),2021.1.4,121.30813828942715,
,,,,Conditions/Version_1/oneback(2)_v1.xlsx,New rule: Press 'space' when you see 1-back (i.e. the same letter as the one that appeared 1 letter ago.),q,None,,,,,,,,,0,4,4,4,0,0,0,0,,,,,,,,,,,,,,,,,,,,,,,,,,,,,,,,,,,,,,,,,,,,,,,,,,,,,,,,,,,643.8598299999721,None,646.8474871999351,None,space,0.5584315999876708,646.8474871999351,None,643.8598299999721,None,1.0472,648.492730799946,None,None,1,648.492730799946,None,,P044,fencog,1,Pre,2022_May_18_1102,N-Back (New Version 2021),2021.1.4,121.30813828942715,
,,,,Conditions/Version_1/oneback(2)_v1.xlsx,New rule: Press 'space' when you see 1-back (i.e. the same letter as the one that appeared 1 letter ago.),Q,space,,,,,,,,,0,4,4,4,0,1,1,1,,,,,,,,,,,,,,,,,,,,,,,,,,,,,,,,,,,,,,,,,,,,,,,,,,,,,,,,,,,,,,,,,,,,,1.5556,652.0559746000217,None,space,1,652.0559746000217,None,1.0700222000014037,P044,fencog,1,Pre,2022_May_18_1102,N-Back (New Version 2021),2021.1.4,121.30813828942715,
,,,,Conditions/Version_1/oneback(2)_v1.xlsx,New rule: Press 'space' when you see 1-back (i.e. the same letter as the one that appeared 1 letter ago.),P,None,,,,,,,,,0,4,4,4,0,2,2,2,,,,,,,,,,,,,,,,,,,,,,,,,,,,,,,,,,,,,,,,,,,,,,,,,,,,,,,,,,,,,,,,,,,,,1.4688,655.5344671999337,None,None,1,655.5344671999337,None,,P044,fencog,1,Pre,2022_May_18_1102,N-Back (New Version 2021),2021.1.4,121.30813828942715,
,,,,Conditions/Version_1/oneback(2)_v1.xlsx,New rule: Press 'space' when you see 1-back (i.e. the same letter as the one that appeared 1 letter ago.),o,None,,,,,,,,,0,4,4,4,0,3,3,3,,,,,,,,,,,,,,,,,,,,,,,,,,,,,,,,,,,,,,,,,,,,,,,,,,,,,,,,,,,,,,,,,,,,,1.6486,659.184073499986,None,None,1,659.184073499986,None,,P044,fencog,1,Pre,2022_May_18_1102,N-Back (New Version 2021),2021.1.4,121.30813828942715,
,,,,Conditions/Version_1/oneback(2)_v1.xlsx,New rule: Press 'space' when you see 1-back (i.e. the same letter as the one that appeared 1 letter ago.),m,None,,,,,,,,,0,4,4,4,0,4,4,4,,,,,,,,,,,,,,,,,,,,,,,,,,,,,,,,,,,,,,,,,,,,,,,,,,,,,,,,,,,,,,,,,,,,,1.1092,662.3036263999529,None,None,1,662.3036263999529,None,,P044,fencog,1,Pre,2022_May_18_1102,N-Back (New Version 2021),2021.1.4,121.30813828942715,
,,,,Conditions/Version_1/oneback(2)_v1.xlsx,New rule: Press 'space' when you see 1-back (i.e. the same letter as the one that appeared 1 letter ago.),Z,None,,,,,,,,,0,4,4,4,0,5,5,5,,,,,,,,,,,,,,,,,,,,,,,,,,,,,,,,,,,,,,,,,,,,,,,,,,,,,,,,,,,,,,,,,,,,,1.3944,665.7083732000319,None,None,1,665.7083732000319,None,,P044,fencog,1,Pre,2022_May_18_1102,N-Back (New Version 2021),2021.1.4,121.30813828942715,
,,,,Conditions/Version_1/oneback(2)_v1.xlsx,New rule: Press 'space' when you see 1-back (i.e. the same letter as the one that appeared 1 letter ago.),c,None,,,,,,,,,0,4,4,4,0,6,6,6,,,,,,,,,,,,,,,,,,,,,,,,,,,,,,,,,,,,,,,,,,,,,,,,,,,,,,,,,,,,,,,,,,,,,1.2704,668.9920533000259,None,None,1,668.9920533000259,None,,P044,fencog,1,Pre,2022_May_18_1102,N-Back (New Version 2021),2021.1.4,121.30813828942715,
,,,,Conditions/Version_1/oneback(2)_v1.xlsx,New rule: Press 'space' when you see 1-back (i.e. the same letter as the one that appeared 1 letter ago.),c,space,,,,,,,,,0,4,4,4,0,7,7,7,,,,,,,,,,,,,,,,,,,,,,,,,,,,,,,,,,,,,,,,,,,,,,,,,,,,,,,,,,,,,,,,,,,,,1.1216,672.1210779999383,None,space,1,672.1210779999383,None,0.501062500057742,P044,fencog,1,Pre,2022_May_18_1102,N-Back (New Version 2021),2021.1.4,121.30813828942715,
,,,,Conditions/Version_1/oneback(2)_v1.xlsx,New rule: Press 'space' when you see 1-back (i.e. the same letter as the one that appeared 1 letter ago.),P,None,,,,,,,,,0,4,4,4,0,8,8,8,,,,,,,,,,,,,,,,,,,,,,,,,,,,,,,,,,,,,,,,,,,,,,,,,,,,,,,,,,,,,,,,,,,,,1.01,675.1368027999997,None,None,1,675.1368027999997,None,,P044,fencog,1,Pre,2022_May_18_1102,N-Back (New Version 2021),2021.1.4,121.30813828942715,
,,,,Conditions/Version_1/oneback(2)_v1.xlsx,New rule: Press 'space' when you see 1-back (i.e. the same letter as the one that appeared 1 letter ago.),p,space,,,,,,,,,0,4,4,4,0,9,9,9,,,,,,,,,,,,,,,,,,,,,,,,,,,,,,,,,,,,,,,,,,,,,,,,,,,,,,,,,,,,,,,,,,,,,1.506,678.64817890001,None,space,1,678.64817890001,None,0.3499380999710411,P044,fencog,1,Pre,2022_May_18_1102,N-Back (New Version 2021),2021.1.4,121.30813828942715,
,,,,Conditions/Version_1/oneback(2)_v1.xlsx,New rule: Press 'space' when you see 1-back (i.e. the same letter as the one that appeared 1 letter ago.),,,,,,,,,,,0,4,4,4,,,,,,,,,,,,,,,,,,,,,,,,,,,,,,,,,,,,,,,,,,,,,,,,,,,,,,,,,,,,,,,,,,,,,,,,,,,,,,,,,P044,fencog,1,Pre,2022_May_18_1102,N-Back (New Version 2021),2021.1.4,121.30813828942715,
,,,,Conditions/Version_1/zeroback(2)_v1.xlsx,New rule: Press 'space' when you see the letter 'x' or 'X'.,p,None,,,,,,,,,0,5,5,5,0,0,0,0,,,,,,,,,,,,,,,,,,,,,,,,,,,,,,,,,,,,,,,,,,,,,,,,,,,,,,,,,,,680.6703234999441,None,683.6531474000076,None,space,0.5289501999504864,683.6531474000076,None,680.6703234999441,None,1.6114,685.833883699961,None,None,1,685.833883699961,None,,P044,fencog,1,Pre,2022_May_18_1102,N-Back (New Version 2021),2021.1.4,121.30813828942715,
,,,,Conditions/Version_1/zeroback(2)_v1.xlsx,New rule: Press 'space' when you see the letter 'x' or 'X'.,L,None,,,,,,,,,0,5,5,5,0,1,1,1,,,,,,,,,,,,,,,,,,,,,,,,,,,,,,,,,,,,,,,,,,,,,,,,,,,,,,,,,,,,,,,,,,,,,1.2394,689.0754798999988,None,None,1,689.0754798999988,None,,P044,fencog,1,Pre,2022_May_18_1102,N-Back (New Version 2021),2021.1.4,121.30813828942715,
,,,,Conditions/Version_1/zeroback(2)_v1.xlsx,New rule: Press 'space' when you see the letter 'x' or 'X'.,G,None,,,,,,,,,0,5,5,5,0,2,2,2,,,,,,,,,,,,,,,,,,,,,,,,,,,,,,,,,,,,,,,,,,,,,,,,,,,,,,,,,,,,,,,,,,,,,1.8532,692.9334751999704,None,None,1,692.9334751999704,None,,P044,fencog,1,Pre,2022_May_18_1102,N-Back (New Version 2021),2021.1.4,121.30813828942715,
,,,,Conditions/Version_1/zeroback(2)_v1.xlsx,New rule: Press 'space' when you see the letter 'x' or 'X'.,y,None,,,,,,,,,0,5,5,5,0,3,3,3,,,,,,,,,,,,,,,,,,,,,,,,,,,,,,,,,,,,,,,,,,,,,,,,,,,,,,,,,,,,,,,,,,,,,1.661,696.6054830999346,None,None,1,696.6054830999346,None,,P044,fencog,1,Pre,2022_May_18_1102,N-Back (New Version 2021),2021.1.4,121.30813828942715,
,,,,Conditions/Version_1/zeroback(2)_v1.xlsx,New rule: Press 'space' when you see the letter 'x' or 'X'.,Y,None,,,,,,,,,0,5,5,5,0,4,4,4,,,,,,,,,,,,,,,,,,,,,,,,,,,,,,,,,,,,,,,,,,,,,,,,,,,,,,,,,,,,,,,,,,,,,1.7168,700.325287799933,None,None,1,700.325287799933,None,,P044,fencog,1,Pre,2022_May_18_1102,N-Back (New Version 2021),2021.1.4,121.30813828942715,
,,,,Conditions/Version_1/zeroback(2)_v1.xlsx,New rule: Press 'space' when you see the letter 'x' or 'X'.,W,None,,,,,,,,,0,5,5,5,0,5,5,5,,,,,,,,,,,,,,,,,,,,,,,,,,,,,,,,,,,,,,,,,,,,,,,,,,,,,,,,,,,,,,,,,,,,,1.196,703.533915799926,None,None,1,703.533915799926,None,,P044,fencog,1,Pre,2022_May_18_1102,N-Back (New Version 2021),2021.1.4,121.30813828942715,
,,,,Conditions/Version_1/zeroback(2)_v1.xlsx,New rule: Press 'space' when you see the letter 'x' or 'X'.,x,space,,,,,,,,,0,5,5,5,0,6,6,6,,,,,,,,,,,,,,,,,,,,,,,,,,,,,,,,,,,,,,,,,,,,,,,,,,,,,,,,,,,,,,,,,,,,,1.2952,706.8362053999444,None,space,1,706.8362053999444,None,0.36983059998601675,P044,fencog,1,Pre,2022_May_18_1102,N-Back (New Version 2021),2021.1.4,121.30813828942715,
,,,,Conditions/Version_1/zeroback(2)_v1.xlsx,New rule: Press 'space' when you see the letter 'x' or 'X'.,X,space,,,,,,,,,0,5,5,5,0,7,7,7,,,,,,,,,,,,,,,,,,,,,,,,,,,,,,,,,,,,,,,,,,,,,,,,,,,,,,,,,,,,,,,,,,,,,1.9834,710.8193830000237,None,space,1,710.8193830000237,None,0.5145538999931887,P044,fencog,1,Pre,2022_May_18_1102,N-Back (New Version 2021),2021.1.4,121.30813828942715,
,,,,Conditions/Version_1/zeroback(2)_v1.xlsx,New rule: Press 'space' when you see the letter 'x' or 'X'.,p,None,,,,,,,,,0,5,5,5,0,8,8,8,,,,,,,,,,,,,,,,,,,,,,,,,,,,,,,,,,,,,,,,,,,,,,,,,,,,,,,,,,,,,,,,,,,,,1.3386,714.1695581999375,None,None,1,714.1695581999375,None,,P044,fencog,1,Pre,2022_May_18_1102,N-Back (New Version 2021),2021.1.4,121.30813828942715,
,,,,Conditions/Version_1/zeroback(2)_v1.xlsx,New rule: Press 'space' when you see the letter 'x' or 'X'.,h,None,,,,,,,,,0,5,5,5,0,9,9,9,,,,,,,,,,,,,,,,,,,,,,,,,,,,,,,,,,,,,,,,,,,,,,,,,,,,,,,,,,,,,,,,,,,,,1.0286,717.2105245999992,None,None,1,717.2105245999992,None,,P044,fencog,1,Pre,2022_May_18_1102,N-Back (New Version 2021),2021.1.4,121.30813828942715,
,,,,Conditions/Version_1/zeroback(2)_v1.xlsx,New rule: Press 'space' when you see the letter 'x' or 'X'.,,,,,,,,,,,0,5,5,5,,,,,,,,,,,,,,,,,,,,,,,,,,,,,,,,,,,,,,,,,,,,,,,,,,,,,,,,,,,,,,,,,,,,,,,,,,,,,,,,,P044,fencog,1,Pre,2022_May_18_1102,N-Back (New Version 2021),2021.1.4,121.30813828942715,
,,,,Conditions/Version_1/threeback(2)_v1.xlsx,New rule: Press 'space' when you see 3-back (i.e. the same letter as the one that appeared 3 letters ago.),q,None,,,,,,,,,0,6,6,6,0,0,0,0,,,,,,,,,,,,,,,,,,,,,,,,,,,,,,,,,,,,,,,,,,,,,,,,,,,,,,,,,,,719.238219599938,None,722.2261219000211,None,space,0.6438444999512285,722.2261219000211,None,719.238219599938,None,1.2704,724.1743503999896,None,None,1,724.1743503999896,None,,P044,fencog,1,Pre,2022_May_18_1102,N-Back (New Version 2021),2021.1.4,121.30813828942715,
,,,,Conditions/Version_1/threeback(2)_v1.xlsx,New rule: Press 'space' when you see 3-back (i.e. the same letter as the one that appeared 3 letters ago.),Y,None,,,,,,,,,0,6,6,6,0,1,1,1,,,,,,,,,,,,,,,,,,,,,,,,,,,,,,,,,,,,,,,,,,,,,,,,,,,,,,,,,,,,,,,,,,,,,1.568,727.7557068000315,None,None,1,727.7557068000315,None,,P044,fencog,1,Pre,2022_May_18_1102,N-Back (New Version 2021),2021.1.4,121.30813828942715,
,,,,Conditions/Version_1/threeback(2)_v1.xlsx,New rule: Press 'space' when you see 3-back (i.e. the same letter as the one that appeared 3 letters ago.),p,None,,,,,,,,,0,6,6,6,0,2,2,2,,,,,,,,,,,,,,,,,,,,,,,,,,,,,,,,,,,,,,,,,,,,,,,,,,,,,,,,,,,,,,,,,,,,,1.2766,731.0472181999357,None,None,1,731.0472181999357,None,,P044,fencog,1,Pre,2022_May_18_1102,N-Back (New Version 2021),2021.1.4,121.30813828942715,
,,,,Conditions/Version_1/threeback(2)_v1.xlsx,New rule: Press 'space' when you see 3-back (i.e. the same letter as the one that appeared 3 letters ago.),p,None,,,,,,,,,0,6,6,6,0,3,3,3,,,,,,,,,,,,,,,,,,,,,,,,,,,,,,,,,,,,,,,,,,,,,,,,,,,,,,,,,,,,,,,,,,,,,1.7478,734.8028937999625,None,None,1,734.8028937999625,None,,P044,fencog,1,Pre,2022_May_18_1102,N-Back (New Version 2021),2021.1.4,121.30813828942715,
,,,,Conditions/Version_1/threeback(2)_v1.xlsx,New rule: Press 'space' when you see 3-back (i.e. the same letter as the one that appeared 3 letters ago.),y,space,,,,,,,,,0,6,6,6,0,4,4,4,,,,,,,,,,,,,,,,,,,,,,,,,,,,,,,,,,,,,,,,,,,,,,,,,,,,,,,,,,,,,,,,,,,,,1.6424,738.4433447000338,None,space,1,738.4433447000338,None,0.4505079999798909,P044,fencog,1,Pre,2022_May_18_1102,N-Back (New Version 2021),2021.1.4,121.30813828942715,
,,,,Conditions/Version_1/threeback(2)_v1.xlsx,New rule: Press 'space' when you see 3-back (i.e. the same letter as the one that appeared 3 letters ago.),u,None,,,,,,,,,0,6,6,6,0,5,5,5,,,,,,,,,,,,,,,,,,,,,,,,,,,,,,,,,,,,,,,,,,,,,,,,,,,,,,,,,,,,,,,,,,,,,1.2084,741.6506498999661,None,None,1,741.6506498999661,None,,P044,fencog,1,Pre,2022_May_18_1102,N-Back (New Version 2021),2021.1.4,121.30813828942715,
,,,,Conditions/Version_1/threeback(2)_v1.xlsx,New rule: Press 'space' when you see 3-back (i.e. the same letter as the one that appeared 3 letters ago.),P,space,,,,,,,,,0,6,6,6,0,6,6,6,,,,,,,,,,,,,,,,,,,,,,,,,,,,,,,,,,,,,,,,,,,,,,,,,,,,,,,,,,,,,,,,,,,,,1.2394,744.8929247999331,None,space,1,744.8929247999331,None,0.3768984000198543,P044,fencog,1,Pre,2022_May_18_1102,N-Back (New Version 2021),2021.1.4,121.30813828942715,
,,,,Conditions/Version_1/threeback(2)_v1.xlsx,New rule: Press 'space' when you see 3-back (i.e. the same letter as the one that appeared 3 letters ago.),a,None,,,,,,,,,0,6,6,6,0,7,7,7,,,,,,,,,,,,,,,,,,,,,,,,,,,,,,,,,,,,,,,,,,,,,,,,,,,,,,,,,,,,,,,,,,,,,1.165,748.0651476000203,None,None,1,748.0651476000203,None,,P044,fencog,1,Pre,2022_May_18_1102,N-Back (New Version 2021),2021.1.4,121.30813828942715,
,,,,Conditions/Version_1/threeback(2)_v1.xlsx,New rule: Press 'space' when you see 3-back (i.e. the same letter as the one that appeared 3 letters ago.),U,space,,,,,,,,,0,6,6,6,0,8,8,8,,,,,,,,,,,,,,,,,,,,,,,,,,,,,,,,,,,,,,,,,,,,,,,,,,,,,,,,,,,,,,,,,,,,,1.8656,751.9333880000049,None,space,1,751.9333880000049,None,0.37649219995364547,P044,fencog,1,Pre,2022_May_18_1102,N-Back (New Version 2021),2021.1.4,121.30813828942715,
,,,,Conditions/Version_1/threeback(2)_v1.xlsx,New rule: Press 'space' when you see 3-back (i.e. the same letter as the one that appeared 3 letters ago.),q,None,,,,,,,,,0,6,6,6,0,9,9,9,,,,,,,,,,,,,,,,,,,,,,,,,,,,,,,,,,,,,,,,,,,,,,,,,,,,,,,,,,,,,,,,,,,,,1.8036,755.747681299923,None,None,1,755.747681299923,None,,P044,fencog,1,Pre,2022_May_18_1102,N-Back (New Version 2021),2021.1.4,121.30813828942715,
,,,,Conditions/Version_1/threeback(2)_v1.xlsx,New rule: Press 'space' when you see 3-back (i.e. the same letter as the one that appeared 3 letters ago.),,,,,,,,,,,0,6,6,6,,,,,,,,,,,,,,,,,,,,,,,,,,,,,,,,,,,,,,,,,,,,,,,,,,,,,,,,,,,,,,,,,,,,,,,,,,,,,,,,,P044,fencog,1,Pre,2022_May_18_1102,N-Back (New Version 2021),2021.1.4,121.30813828942715,
,,,,Conditions/Version_1/twoback(2)_v1.xlsx,New rule: Press 'space' when you see 2-back (i.e. the same letter as the one that appeared 2 letters ago.),q,None,,,,,,,,,0,7,7,7,0,0,0,0,,,,,,,,,,,,,,,,,,,,,,,,,,,,,,,,,,,,,,,,,,,,,,,,,,,,,,,,,,,757.7779784000013,None,760.7638557000319,None,space,0.7461936000036076,760.7638557000319,None,757.7779784000013,None,1.6548,763.1941487999866,None,None,1,763.1941487999866,None,,P044,fencog,1,Pre,2022_May_18_1102,N-Back (New Version 2021),2021.1.4,121.30813828942715,
,,,,Conditions/Version_1/twoback(2)_v1.xlsx,New rule: Press 'space' when you see 2-back (i.e. the same letter as the one that appeared 2 letters ago.),r,None,,,,,,,,,0,7,7,7,0,1,1,1,,,,,,,,,,,,,,,,,,,,,,,,,,,,,,,,,,,,,,,,,,,,,,,,,,,,,,,,,,,,,,,,,,,,,1.1092,766.3098639999516,None,None,1,766.3098639999516,None,,P044,fencog,1,Pre,2022_May_18_1102,N-Back (New Version 2021),2021.1.4,121.30813828942715,
,,,,Conditions/Version_1/twoback(2)_v1.xlsx,New rule: Press 'space' when you see 2-back (i.e. the same letter as the one that appeared 2 letters ago.),q,space,,,,,,,,,0,7,7,7,0,2,2,2,,,,,,,,,,,,,,,,,,,,,,,,,,,,,,,,,,,,,,,,,,,,,,,,,,,,,,,,,,,,,,,,,,,,,1.3634,769.6780721999239,None,space,1,769.6780721999239,None,0.8318651999579743,P044,fencog,1,Pre,2022_May_18_1102,N-Back (New Version 2021),2021.1.4,121.30813828942715,
,,,,Conditions/Version_1/twoback(2)_v1.xlsx,New rule: Press 'space' when you see 2-back (i.e. the same letter as the one that appeared 2 letters ago.),P,None,,,,,,,,,0,7,7,7,0,3,3,3,,,,,,,,,,,,,,,,,,,,,,,,,,,,,,,,,,,,,,,,,,,,,,,,,,,,,,,,,,,,,,,,,,,,,1.1402,772.8310084999539,None,None,1,772.8310084999539,None,,P044,fencog,1,Pre,2022_May_18_1102,N-Back (New Version 2021),2021.1.4,121.30813828942715,
,,,,Conditions/Version_1/twoback(2)_v1.xlsx,New rule: Press 'space' when you see 2-back (i.e. the same letter as the one that appeared 2 letters ago.),p,None,,,,,,,,,0,7,7,7,0,4,4,4,,,,,,,,,,,,,,,,,,,,,,,,,,,,,,,,,,,,,,,,,,,,,,,,,,,,,,,,,,,,,,,,,,,,,1.1836,776.0153933999827,None,None,1,776.0153933999827,None,,P044,fencog,1,Pre,2022_May_18_1102,N-Back (New Version 2021),2021.1.4,121.30813828942715,
,,,,Conditions/Version_1/twoback(2)_v1.xlsx,New rule: Press 'space' when you see 2-back (i.e. the same letter as the one that appeared 2 letters ago.),H,None,,,,,,,,,0,7,7,7,0,5,5,5,,,,,,,,,,,,,,,,,,,,,,,,,,,,,,,,,,,,,,,,,,,,,,,,,,,,,,,,,,,,,,,,,,,,,1.7912,779.8070427000057,None,None,1,779.8070427000057,None,,P044,fencog,1,Pre,2022_May_18_1102,N-Back (New Version 2021),2021.1.4,121.30813828942715,
,,,,Conditions/Version_1/twoback(2)_v1.xlsx,New rule: Press 'space' when you see 2-back (i.e. the same letter as the one that appeared 2 letters ago.),g,None,,,,,,,,,0,7,7,7,0,6,6,6,,,,,,,,,,,,,,,,,,,,,,,,,,,,,,,,,,,,,,,,,,,,,,,,,,,,,,,,,,,,,,,,,,,,,1.878,783.6904894999461,None,None,1,783.6904894999461,None,,P044,fencog,1,Pre,2022_May_18_1102,N-Back (New Version 2021),2021.1.4,121.30813828942715,
,,,,Conditions/Version_1/twoback(2)_v1.xlsx,New rule: Press 'space' when you see 2-back (i.e. the same letter as the one that appeared 2 letters ago.),j,None,,,,,,,,,0,7,7,7,0,7,7,7,,,,,,,,,,,,,,,,,,,,,,,,,,,,,,,,,,,,,,,,,,,,,,,,,,,,,,,,,,,,,,,,,,,,,1.7726,787.4714025999419,None,None,1,787.4714025999419,None,,P044,fencog,1,Pre,2022_May_18_1102,N-Back (New Version 2021),2021.1.4,121.30813828942715,
,,,,Conditions/Version_1/twoback(2)_v1.xlsx,New rule: Press 'space' when you see 2-back (i.e. the same letter as the one that appeared 2 letters ago.),g,space,,,,,,,,,0,7,7,7,0,8,8,8,,,,,,,,,,,,,,,,,,,,,,,,,,,,,,,,,,,,,,,,,,,,,,,,,,,,,,,,,,,,,,,,,,,,,1.4316,790.9134854000295,None,space,1,790.9134854000295,None,0.9485245000105351,P044,fencog,1,Pre,2022_May_18_1102,N-Back (New Version 2021),2021.1.4,121.30813828942715,
,,,,Conditions/Version_1/twoback(2)_v1.xlsx,New rule: Press 'space' when you see 2-back (i.e. the same letter as the one that appeared 2 letters ago.),G,None,,,,,,,,,0,7,7,7,0,9,9,9,,,,,,,,,,,,,,,,,,,,,,,,,,,,,,,,,,,,,,,,,,,,,,,,,,,,,,,,,,,,,,,,,,,,,1.8842,794.815707199974,None,None,1,794.815707199974,None,,P044,fencog,1,Pre,2022_May_18_1102,N-Back (New Version 2021),2021.1.4,121.30813828942715,
,,,,Conditions/Version_1/twoback(2)_v1.xlsx,New rule: Press 'space' when you see 2-back (i.e. the same letter as the one that appeared 2 letters ago.),,,,,,,,,,,0,7,7,7,,,,,,,,,,,,,,,,,,,,,,,,,,,,,,,,,,,,,,,,,,,,,,,,,,,,,,,,,,,,,,,,,,,,,,,,,,,,,,,,,P044,fencog,1,Pre,2022_May_18_1102,N-Back (New Version 2021),2021.1.4,121.30813828942715,
,,,,Conditions/Version_1/threeback(3)_v1.xlsx,New rule: Press 'space' when you see 3-back (i.e. the same letter as the one that appeared 3 letters ago.),w,None,,,,,,,,,0,8,8,8,0,0,0,0,,,,,,,,,,,,,,,,,,,,,,,,,,,,,,,,,,,,,,,,,,,,,,,,,,,,,,,,,,,796.8394174999557,None,799.8278245999245,None,space,0.9060631999745965,799.8278245999245,None,796.8394174999557,None,1.8532,802.625414500013,None,None,1,802.625414500013,None,,P044,fencog,1,Pre,2022_May_18_1102,N-Back (New Version 2021),2021.1.4,121.30813828942715,
,,,,Conditions/Version_1/threeback(3)_v1.xlsx,New rule: Press 'space' when you see 3-back (i.e. the same letter as the one that appeared 3 letters ago.),p,None,,,,,,,,,0,8,8,8,0,1,1,1,,,,,,,,,,,,,,,,,,,,,,,,,,,,,,,,,,,,,,,,,,,,,,,,,,,,,,,,,,,,,,,,,,,,,1.3634,805.9982395999832,None,None,1,805.9982395999832,None,,P044,fencog,1,Pre,2022_May_18_1102,N-Back (New Version 2021),2021.1.4,121.30813828942715,
,,,,Conditions/Version_1/threeback(3)_v1.xlsx,New rule: Press 'space' when you see 3-back (i.e. the same letter as the one that appeared 3 letters ago.),P,None,,,,,,,,,0,8,8,8,0,2,2,2,,,,,,,,,,,,,,,,,,,,,,,,,,,,,,,,,,,,,,,,,,,,,,,,,,,,,,,,,,,,,,,,,,,,,1.7416,809.7470782999881,None,None,1,809.7470782999881,None,,P044,fencog,1,Pre,2022_May_18_1102,N-Back (New Version 2021),2021.1.4,121.30813828942715,
,,,,Conditions/Version_1/threeback(3)_v1.xlsx,New rule: Press 'space' when you see 3-back (i.e. the same letter as the one that appeared 3 letters ago.),i,None,,,,,,,,,0,8,8,8,0,3,3,3,,,,,,,,,,,,,,,,,,,,,,,,,,,,,,,,,,,,,,,,,,,,,,,,,,,,,,,,,,,,,,,,,,,,,1.3076,813.0564126999816,None,None,1,813.0564126999816,None,,P044,fencog,1,Pre,2022_May_18_1102,N-Back (New Version 2021),2021.1.4,121.30813828942715,
,,,,Conditions/Version_1/threeback(3)_v1.xlsx,New rule: Press 'space' when you see 3-back (i.e. the same letter as the one that appeared 3 letters ago.),f,None,,,,,,,,,0,8,8,8,0,4,4,4,,,,,,,,,,,,,,,,,,,,,,,,,,,,,,,,,,,,,,,,,,,,,,,,,,,,,,,,,,,,,,,,,,,,,1.382,816.4478393000318,None,None,1,816.4478393000318,None,,P044,fencog,1,Pre,2022_May_18_1102,N-Back (New Version 2021),2021.1.4,121.30813828942715,
,,,,Conditions/Version_1/threeback(3)_v1.xlsx,New rule: Press 'space' when you see 3-back (i.e. the same letter as the one that appeared 3 letters ago.),o,None,,,,,,,,,0,8,8,8,0,5,5,5,,,,,,,,,,,,,,,,,,,,,,,,,,,,,,,,,,,,,,,,,,,,,,,,,,,,,,,,,,,,,,,,,,,,,1.072,819.5280123000266,None,None,1,819.5280123000266,None,,P044,fencog,1,Pre,2022_May_18_1102,N-Back (New Version 2021),2021.1.4,121.30813828942715,
,,,,Conditions/Version_1/threeback(3)_v1.xlsx,New rule: Press 'space' when you see 3-back (i.e. the same letter as the one that appeared 3 letters ago.),w,None,,,,,,,,,0,8,8,8,0,6,6,6,,,,,,,,,,,,,,,,,,,,,,,,,,,,,,,,,,,,,,,,,,,,,,,,,,,,,,,,,,,,,,,,,,,,,1.0348,822.5695474999957,None,None,1,822.5695474999957,None,,P044,fencog,1,Pre,2022_May_18_1102,N-Back (New Version 2021),2021.1.4,121.30813828942715,
,,,,Conditions/Version_1/threeback(3)_v1.xlsx,New rule: Press 'space' when you see 3-back (i.e. the same letter as the one that appeared 3 letters ago.),F,space,,,,,,,,,0,8,8,8,0,7,7,7,,,,,,,,,,,,,,,,,,,,,,,,,,,,,,,,,,,,,,,,,,,,,,,,,,,,,,,,,,,,,,,,,,,,,1.568,826.1427452999633,None,space,1,826.1427452999633,None,0.3590479999547824,P044,fencog,1,Pre,2022_May_18_1102,N-Back (New Version 2021),2021.1.4,121.30813828942715,
,,,,Conditions/Version_1/threeback(3)_v1.xlsx,New rule: Press 'space' when you see 3-back (i.e. the same letter as the one that appeared 3 letters ago.),p,None,,,,,,,,,0,8,8,8,0,8,8,8,,,,,,,,,,,,,,,,,,,,,,,,,,,,,,,,,,,,,,,,,,,,,,,,,,,,,,,,,,,,,,,,,,,,,1.2022,829.3522099999245,None,None,1,829.3522099999245,None,,P044,fencog,1,Pre,2022_May_18_1102,N-Back (New Version 2021),2021.1.4,121.30813828942715,
,,,,Conditions/Version_1/threeback(3)_v1.xlsx,New rule: Press 'space' when you see 3-back (i.e. the same letter as the one that appeared 3 letters ago.),W,space,,,,,,,,,0,8,8,8,0,9,9,9,,,,,,,,,,,,,,,,,,,,,,,,,,,,,,,,,,,,,,,,,,,,,,,,,,,,,,,,,,,,,,,,,,,,,1.4998,832.8588828999782,None,space,1,832.8588828999782,None,0.41094129998236895,P044,fencog,1,Pre,2022_May_18_1102,N-Back (New Version 2021),2021.1.4,121.30813828942715,
,,,,Conditions/Version_1/threeback(3)_v1.xlsx,New rule: Press 'space' when you see 3-back (i.e. the same letter as the one that appeared 3 letters ago.),,,,,,,,,,,0,8,8,8,,,,,,,,,,,,,,,,,,,,,,,,,,,,,,,,,,,,,,,,,,,,,,,,,,,,,,,,,,,,,,,,,,,,,,,,,,,,,,,,,P044,fencog,1,Pre,2022_May_18_1102,N-Back (New Version 2021),2021.1.4,121.30813828942715,
,,,,Conditions/Version_1/zeroback(3)_v1.xlsx,New rule: Press 'space' when you see the letter 'x' or 'X'.,X,space,,,,,,,,,0,9,9,9,0,0,0,0,,,,,,,,,,,,,,,,,,,,,,,,,,,,,,,,,,,,,,,,,,,,,,,,,,,,,,,,,,,834.8834836999886,None,837.8659356000135,None,space,0.8680506999371573,837.8659356000135,None,834.8834836999886,None,1.0658,839.8403262000065,None,space,1,839.8403262000065,None,0.46167119999881834,P044,fencog,1,Pre,2022_May_18_1102,N-Back (New Version 2021),2021.1.4,121.30813828942715,
,,,,Conditions/Version_1/zeroback(3)_v1.xlsx,New rule: Press 'space' when you see the letter 'x' or 'X'.,B,None,,,,,,,,,0,9,9,9,0,1,1,1,,,,,,,,,,,,,,,,,,,,,,,,,,,,,,,,,,,,,,,,,,,,,,,,,,,,,,,,,,,,,,,,,,,,,1.8966,843.7485901999753,None,None,1,843.7485901999753,None,,P044,fencog,1,Pre,2022_May_18_1102,N-Back (New Version 2021),2021.1.4,121.30813828942715,
,,,,Conditions/Version_1/zeroback(3)_v1.xlsx,New rule: Press 'space' when you see the letter 'x' or 'X'.,m,None,,,,,,,,,0,9,9,9,0,2,2,2,,,,,,,,,,,,,,,,,,,,,,,,,,,,,,,,,,,,,,,,,,,,,,,,,,,,,,,,,,,,,,,,,,,,,1.2022,846.9616862999974,None,None,1,846.9616862999974,None,,P044,fencog,1,Pre,2022_May_18_1102,N-Back (New Version 2021),2021.1.4,121.30813828942715,
,,,,Conditions/Version_1/zeroback(3)_v1.xlsx,New rule: Press 'space' when you see the letter 'x' or 'X'.,m,None,,,,,,,,,0,9,9,9,0,3,3,3,,,,,,,,,,,,,,,,,,,,,,,,,,,,,,,,,,,,,,,,,,,,,,,,,,,,,,,,,,,,,,,,,,,,,1.3014,850.2685376999434,None,None,1,850.2685376999434,None,,P044,fencog,1,Pre,2022_May_18_1102,N-Back (New Version 2021),2021.1.4,121.30813828942715,
,,,,Conditions/Version_1/zeroback(3)_v1.xlsx,New rule: Press 'space' when you see the letter 'x' or 'X'.,o,None,,,,,,,,,0,9,9,9,0,4,4,4,,,,,,,,,,,,,,,,,,,,,,,,,,,,,,,,,,,,,,,,,,,,,,,,,,,,,,,,,,,,,,,,,,,,,1.2704,853.5440094999503,None,None,1,853.5440094999503,None,,P044,fencog,1,Pre,2022_May_18_1102,N-Back (New Version 2021),2021.1.4,121.30813828942715,
,,,,Conditions/Version_1/zeroback(3)_v1.xlsx,New rule: Press 'space' when you see the letter 'x' or 'X'.,p,None,,,,,,,,,0,9,9,9,0,5,5,5,,,,,,,,,,,,,,,,,,,,,,,,,,,,,,,,,,,,,,,,,,,,,,,,,,,,,,,,,,,,,,,,,,,,,1.506,857.0582501000026,None,None,1,857.0582501000026,None,,P044,fencog,1,Pre,2022_May_18_1102,N-Back (New Version 2021),2021.1.4,121.30813828942715,
,,,,Conditions/Version_1/zeroback(3)_v1.xlsx,New rule: Press 'space' when you see the letter 'x' or 'X'.,G,None,,,,,,,,,0,9,9,9,0,6,6,6,,,,,,,,,,,,,,,,,,,,,,,,,,,,,,,,,,,,,,,,,,,,,,,,,,,,,,,,,,,,,,,,,,,,,1.0596,860.1251230000053,None,None,1,860.1251230000053,None,,P044,fencog,1,Pre,2022_May_18_1102,N-Back (New Version 2021),2021.1.4,121.30813828942715,
,,,,Conditions/Version_1/zeroback(3)_v1.xlsx,New rule: Press 'space' when you see the letter 'x' or 'X'.,X,space,,,,,,,,,0,9,9,9,0,7,7,7,,,,,,,,,,,,,,,,,,,,,,,,,,,,,,,,,,,,,,,,,,,,,,,,,,,,,,,,,,,,,,,,,,,,,1.7788,863.9155136999907,None,space,1,863.9155136999907,None,0.9786901000188664,P044,fencog,1,Pre,2022_May_18_1102,N-Back (New Version 2021),2021.1.4,121.30813828942715,
,,,,Conditions/Version_1/zeroback(3)_v1.xlsx,New rule: Press 'space' when you see the letter 'x' or 'X'.,p,None,,,,,,,,,0,9,9,9,0,8,8,8,,,,,,,,,,,,,,,,,,,,,,,,,,,,,,,,,,,,,,,,,,,,,,,,,,,,,,,,,,,,,,,,,,,,,1.5556,867.4825301999226,None,None,1,867.4825301999226,None,,P044,fencog,1,Pre,2022_May_18_1102,N-Back (New Version 2021),2021.1.4,121.30813828942715,
,,,,Conditions/Version_1/zeroback(3)_v1.xlsx,New rule: Press 'space' when you see the letter 'x' or 'X'.,x,space,,,,,,,,,0,9,9,9,0,9,9,9,,,,,,,,,,,,,,,,,,,,,,,,,,,,,,,,,,,,,,,,,,,,,,,,,,,,,,,,,,,,,,,,,,,,,1.6796,871.173378199921,None,space,1,871.173378199921,None,0.38458149996586144,P044,fencog,1,Pre,2022_May_18_1102,N-Back (New Version 2021),2021.1.4,121.30813828942715,
,,,,Conditions/Version_1/zeroback(3)_v1.xlsx,New rule: Press 'space' when you see the letter 'x' or 'X'.,,,,,,,,,,,0,9,9,9,,,,,,,,,,,,,,,,,,,,,,,,,,,,,,,,,,,,,,,,,,,,,,,,,,,,,,,,,,,,,,,,,,,,,,,,,,,,,,,,,P044,fencog,1,Pre,2022_May_18_1102,N-Back (New Version 2021),2021.1.4,121.30813828942715,
,,,,Conditions/Version_1/twoback(3)_v1.xlsx,New rule: Press 'space' when you see 2-back (i.e. the same letter as the one that appeared 2 letters ago.),e,None,,,,,,,,,0,10,10,10,0,0,0,0,,,,,,,,,,,,,,,,,,,,,,,,,,,,,,,,,,,,,,,,,,,,,,,,,,,,,,,,,,,873.1998286999296,None,876.1878843000159,None,space,0.7541127000004053,876.1878843000159,None,873.1998286999296,None,1.3696,878.3535135999555,None,None,1,878.3535135999555,None,,P044,fencog,1,Pre,2022_May_18_1102,N-Back (New Version 2021),2021.1.4,121.30813828942715,
,,,,Conditions/Version_1/twoback(3)_v1.xlsx,New rule: Press 'space' when you see 2-back (i.e. the same letter as the one that appeared 2 letters ago.),o,None,,,,,,,,,0,10,10,10,0,1,1,1,,,,,,,,,,,,,,,,,,,,,,,,,,,,,,,,,,,,,,,,,,,,,,,,,,,,,,,,,,,,,,,,,,,,,1.63,881.9962111000204,None,None,1,881.9962111000204,None,,P044,fencog,1,Pre,2022_May_18_1102,N-Back (New Version 2021),2021.1.4,121.30813828942715,
,,,,Conditions/Version_1/twoback(3)_v1.xlsx,New rule: Press 'space' when you see 2-back (i.e. the same letter as the one that appeared 2 letters ago.),P,None,,,,,,,,,0,10,10,10,0,2,2,2,,,,,,,,,,,,,,,,,,,,,,,,,,,,,,,,,,,,,,,,,,,,,,,,,,,,,,,,,,,,,,,,,,,,,1.8904,885.8921710000141,None,None,1,885.8921710000141,None,,P044,fencog,1,Pre,2022_May_18_1102,N-Back (New Version 2021),2021.1.4,121.30813828942715,
,,,,Conditions/Version_1/twoback(3)_v1.xlsx,New rule: Press 'space' when you see 2-back (i.e. the same letter as the one that appeared 2 letters ago.),z,None,,,,,,,,,0,10,10,10,0,3,3,3,,,,,,,,,,,,,,,,,,,,,,,,,,,,,,,,,,,,,,,,,,,,,,,,,,,,,,,,,,,,,,,,,,,,,1.5432,889.4506776999915,None,None,1,889.4506776999915,None,,P044,fencog,1,Pre,2022_May_18_1102,N-Back (New Version 2021),2021.1.4,121.30813828942715,
,,,,Conditions/Version_1/twoback(3)_v1.xlsx,New rule: Press 'space' when you see 2-back (i.e. the same letter as the one that appeared 2 letters ago.),X,None,,,,,,,,,0,10,10,10,0,4,4,4,,,,,,,,,,,,,,,,,,,,,,,,,,,,,,,,,,,,,,,,,,,,,,,,,,,,,,,,,,,,,,,,,,,,,1.7788,893.2437489000149,None,None,1,893.2437489000149,None,,P044,fencog,1,Pre,2022_May_18_1102,N-Back (New Version 2021),2021.1.4,121.30813828942715,
,,,,Conditions/Version_1/twoback(3)_v1.xlsx,New rule: Press 'space' when you see 2-back (i.e. the same letter as the one that appeared 2 letters ago.),z,space,,,,,,,,,0,10,10,10,0,5,5,5,,,,,,,,,,,,,,,,,,,,,,,,,,,,,,,,,,,,,,,,,,,,,,,,,,,,,,,,,,,,,,,,,,,,,1.5122,896.7652123000007,None,space,1,896.7652123000007,None,0.44064339995384216,P044,fencog,1,Pre,2022_May_18_1102,N-Back (New Version 2021),2021.1.4,121.30813828942715,
,,,,Conditions/Version_1/twoback(3)_v1.xlsx,New rule: Press 'space' when you see 2-back (i.e. the same letter as the one that appeared 2 letters ago.),x,space,,,,,,,,,0,10,10,10,0,6,6,6,,,,,,,,,,,,,,,,,,,,,,,,,,,,,,,,,,,,,,,,,,,,,,,,,,,,,,,,,,,,,,,,,,,,,1.7912,900.5619181999937,None,space,1,900.5619181999937,None,1.043961999937892,P044,fencog,1,Pre,2022_May_18_1102,N-Back (New Version 2021),2021.1.4,121.30813828942715,
,,,,Conditions/Version_1/twoback(3)_v1.xlsx,New rule: Press 'space' when you see 2-back (i.e. the same letter as the one that appeared 2 letters ago.),c,None,,,,,,,,,0,10,10,10,0,7,7,7,,,,,,,,,,,,,,,,,,,,,,,,,,,,,,,,,,,,,,,,,,,,,,,,,,,,,,,,,,,,,,,,,,,,,1.6672,904.227536899969,None,None,1,904.227536899969,None,,P044,fencog,1,Pre,2022_May_18_1102,N-Back (New Version 2021),2021.1.4,121.30813828942715,
,,,,Conditions/Version_1/twoback(3)_v1.xlsx,New rule: Press 'space' when you see 2-back (i.e. the same letter as the one that appeared 2 letters ago.),i,None,,,,,,,,,0,10,10,10,0,8,8,8,,,,,,,,,,,,,,,,,,,,,,,,,,,,,,,,,,,,,,,,,,,,,,,,,,,,,,,,,,,,,,,,,,,,,1.4688,907.7017712999368,None,None,1,907.7017712999368,None,,P044,fencog,1,Pre,2022_May_18_1102,N-Back (New Version 2021),2021.1.4,121.30813828942715,
,,,,Conditions/Version_1/twoback(3)_v1.xlsx,New rule: Press 'space' when you see 2-back (i.e. the same letter as the one that appeared 2 letters ago.),C,space,,,,,,,,,0,10,10,10,0,9,9,9,,,,,,,,,,,,,,,,,,,,,,,,,,,,,,,,,,,,,,,,,,,,,,,,,,,,,,,,,,,,,,,,,,,,,1.4998,911.2109449999407,None,space,1,911.2109449999407,None,0.32282410003244877,P044,fencog,1,Pre,2022_May_18_1102,N-Back (New Version 2021),2021.1.4,121.30813828942715,
,,,,Conditions/Version_1/twoback(3)_v1.xlsx,New rule: Press 'space' when you see 2-back (i.e. the same letter as the one that appeared 2 letters ago.),,,,,,,,,,,0,10,10,10,,,,,,,,,,,,,,,,,,,,,,,,,,,,,,,,,,,,,,,,,,,,,,,,,,,,,,,,,,,,,,,,,,,,,,,,,,,,,,,,,P044,fencog,1,Pre,2022_May_18_1102,N-Back (New Version 2021),2021.1.4,121.30813828942715,
,,,,Conditions/Version_1/oneback(3)_v1.xlsx,New rule: Press 'space' when you see 1-back (i.e. the same letter as the one that appeared 1 letter ago.),o,None,,,,,,,,,0,11,11,11,0,0,0,0,,,,,,,,,,,,,,,,,,,,,,,,,,,,,,,,,,,,,,,,,,,,,,,,,,,,,,,,,,,913.2433069000253,None,916.2283629999729,None,space,0.7935026000486687,916.2283629999729,None,913.2433069000253,None,1.3386,918.3984302999452,None,None,1,918.3984302999452,None,,P044,fencog,1,Pre,2022_May_18_1102,N-Back (New Version 2021),2021.1.4,121.30813828942715,
,,,,Conditions/Version_1/oneback(3)_v1.xlsx,New rule: Press 'space' when you see 1-back (i.e. the same letter as the one that appeared 1 letter ago.),O,space,,,,,,,,,0,11,11,11,0,1,1,1,,,,,,,,,,,,,,,,,,,,,,,,,,,,,,,,,,,,,,,,,,,,,,,,,,,,,,,,,,,,,,,,,,,,,1.4254,921.8240791999269,None,space,1,921.8240791999269,None,0.3660211000824347,P044,fencog,1,Pre,2022_May_18_1102,N-Back (New Version 2021),2021.1.4,121.30813828942715,
,,,,Conditions/Version_1/oneback(3)_v1.xlsx,New rule: Press 'space' when you see 1-back (i.e. the same letter as the one that appeared 1 letter ago.),h,None,,,,,,,,,0,11,11,11,0,2,2,2,,,,,,,,,,,,,,,,,,,,,,,,,,,,,,,,,,,,,,,,,,,,,,,,,,,,,,,,,,,,,,,,,,,,,1.5928,925.42205189995,None,None,1,925.42205189995,None,,P044,fencog,1,Pre,2022_May_18_1102,N-Back (New Version 2021),2021.1.4,121.30813828942715,
,,,,Conditions/Version_1/oneback(3)_v1.xlsx,New rule: Press 'space' when you see 1-back (i.e. the same letter as the one that appeared 1 letter ago.),g,None,,,,,,,,,0,11,11,11,0,3,3,3,,,,,,,,,,,,,,,,,,,,,,,,,,,,,,,,,,,,,,,,,,,,,,,,,,,,,,,,,,,,,,,,,,,,,1.2642,928.6973758999957,None,None,1,928.6973758999957,None,,P044,fencog,1,Pre,2022_May_18_1102,N-Back (New Version 2021),2021.1.4,121.30813828942715,
,,,,Conditions/Version_1/oneback(3)_v1.xlsx,New rule: Press 'space' when you see 1-back (i.e. the same letter as the one that appeared 1 letter ago.),n,None,,,,,,,,,0,11,11,11,0,4,4,4,,,,,,,,,,,,,,,,,,,,,,,,,,,,,,,,,,,,,,,,,,,,,,,,,,,,,,,,,,,,,,,,,,,,,1.3262,932.0372246999759,None,None,1,932.0372246999759,None,,P044,fencog,1,Pre,2022_May_18_1102,N-Back (New Version 2021),2021.1.4,121.30813828942715,
,,,,Conditions/Version_1/oneback(3)_v1.xlsx,New rule: Press 'space' when you see 1-back (i.e. the same letter as the one that appeared 1 letter ago.),z,None,,,,,,,,,0,11,11,11,0,5,5,5,,,,,,,,,,,,,,,,,,,,,,,,,,,,,,,,,,,,,,,,,,,,,,,,,,,,,,,,,,,,,,,,,,,,,1.8222,935.872148699942,None,None,1,935.872148699942,None,,P044,fencog,1,Pre,2022_May_18_1102,N-Back (New Version 2021),2021.1.4,121.30813828942715,
,,,,Conditions/Version_1/oneback(3)_v1.xlsx,New rule: Press 'space' when you see 1-back (i.e. the same letter as the one that appeared 1 letter ago.),X,None,,,,,,,,,0,11,11,11,0,6,6,6,,,,,,,,,,,,,,,,,,,,,,,,,,,,,,,,,,,,,,,,,,,,,,,,,,,,,,,,,,,,,,,,,,,,,1.2022,939.0903165999334,None,None,1,939.0903165999334,None,,P044,fencog,1,Pre,2022_May_18_1102,N-Back (New Version 2021),2021.1.4,121.30813828942715,
,,,,Conditions/Version_1/oneback(3)_v1.xlsx,New rule: Press 'space' when you see 1-back (i.e. the same letter as the one that appeared 1 letter ago.),r,None,,,,,,,,,0,11,11,11,0,7,7,7,,,,,,,,,,,,,,,,,,,,,,,,,,,,,,,,,,,,,,,,,,,,,,,,,,,,,,,,,,,,,,,,,,,,,1.3696,942.4681756999344,None,None,1,942.4681756999344,None,,P044,fencog,1,Pre,2022_May_18_1102,N-Back (New Version 2021),2021.1.4,121.30813828942715,
,,,,Conditions/Version_1/oneback(3)_v1.xlsx,New rule: Press 'space' when you see 1-back (i.e. the same letter as the one that appeared 1 letter ago.),r,space,,,,,,,,,0,11,11,11,0,8,8,8,,,,,,,,,,,,,,,,,,,,,,,,,,,,,,,,,,,,,,,,,,,,,,,,,,,,,,,,,,,,,,,,,,,,,1.1092,945.5904635000043,None,space,1,945.5904635000043,None,0.4633025999646634,P044,fencog,1,Pre,2022_May_18_1102,N-Back (New Version 2021),2021.1.4,121.30813828942715,
,,,,Conditions/Version_1/oneback(3)_v1.xlsx,New rule: Press 'space' when you see 1-back (i.e. the same letter as the one that appeared 1 letter ago.),P,None,,,,,,,,,0,11,11,11,0,9,9,9,,,,,,,,,,,,,,,,,,,,,,,,,,,,,,,,,,,,,,,,,,,,,,,,,,,,,,,,,,,,,,,,,,,,,1.4316,949.0272643000353,None,None,1,949.0272643000353,None,,P044,fencog,1,Pre,2022_May_18_1102,N-Back (New Version 2021),2021.1.4,121.30813828942715,
,,,,Conditions/Version_1/oneback(3)_v1.xlsx,New rule: Press 'space' when you see 1-back (i.e. the same letter as the one that appeared 1 letter ago.),,,,,,,,,,,0,11,11,11,,,,,,,,,,,,,,,,,,,,,,,,,,,,,,,,,,,,,,,,,,,,,,,,,,,,,,,,,,,,,,,,,,,,,,,,,,,,,,,,,P044,fencog,1,Pre,2022_May_18_1102,N-Back (New Version 2021),2021.1.4,121.30813828942715,
,,,,Conditions/Version_1/twoback(4)_v1.xlsx,New rule: Press 'space' when you see 2-back (i.e. the same letter as the one that appeared 2 letters ago.),r,None,,,,,,,,,0,12,12,12,0,0,0,0,,,,,,,,,,,,,,,,,,,,,,,,,,,,,,,,,,,,,,,,,,,,,,,,,,,,,,,,,,,951.0631653999444,None,954.047922299942,None,space,0.7017321999883279,954.047922299942,None,951.0631653999444,None,1.8594,956.6814152000006,None,None,1,956.6814152000006,None,,P044,fencog,1,Pre,2022_May_18_1102,N-Back (New Version 2021),2021.1.4,121.30813828942715,
,,,,Conditions/Version_1/twoback(4)_v1.xlsx,New rule: Press 'space' when you see 2-back (i.e. the same letter as the one that appeared 2 letters ago.),T,None,,,,,,,,,0,12,12,12,0,1,1,1,,,,,,,,,,,,,,,,,,,,,,,,,,,,,,,,,,,,,,,,,,,,,,,,,,,,,,,,,,,,,,,,,,,,,1.413,960.1026612999849,None,None,1,960.1026612999849,None,,P044,fencog,1,Pre,2022_May_18_1102,N-Back (New Version 2021),2021.1.4,121.30813828942715,
,,,,Conditions/Version_1/twoback(4)_v1.xlsx,New rule: Press 'space' when you see 2-back (i.e. the same letter as the one that appeared 2 letters ago.),o,None,,,,,,,,,0,12,12,12,0,2,2,2,,,,,,,,,,,,,,,,,,,,,,,,,,,,,,,,,,,,,,,,,,,,,,,,,,,,,,,,,,,,,,,,,,,,,1.7974,963.9053953000112,None,None,1,963.9053953000112,None,,P044,fencog,1,Pre,2022_May_18_1102,N-Back (New Version 2021),2021.1.4,121.30813828942715,
,,,,Conditions/Version_1/twoback(4)_v1.xlsx,New rule: Press 'space' when you see 2-back (i.e. the same letter as the one that appeared 2 letters ago.),p,None,,,,,,,,,0,12,12,12,0,3,3,3,,,,,,,,,,,,,,,,,,,,,,,,,,,,,,,,,,,,,,,,,,,,,,,,,,,,,,,,,,,,,,,,,,,,,1.785,967.7016682999674,None,None,1,967.7016682999674,None,,P044,fencog,1,Pre,2022_May_18_1102,N-Back (New Version 2021),2021.1.4,121.30813828942715,
,,,,Conditions/Version_1/twoback(4)_v1.xlsx,New rule: Press 'space' when you see 2-back (i.e. the same letter as the one that appeared 2 letters ago.),p,None,,,,,,,,,0,12,12,12,0,4,4,4,,,,,,,,,,,,,,,,,,,,,,,,,,,,,,,,,,,,,,,,,,,,,,,,,,,,,,,,,,,,,,,,,,,,,1.2642,970.9753707000054,None,space,0,970.9753707000054,None,0.5422319000354037,P044,fencog,1,Pre,2022_May_18_1102,N-Back (New Version 2021),2021.1.4,121.30813828942715,
,,,,Conditions/Version_1/twoback(4)_v1.xlsx,New rule: Press 'space' when you see 2-back (i.e. the same letter as the one that appeared 2 letters ago.),y,None,,,,,,,,,0,12,12,12,0,5,5,5,,,,,,,,,,,,,,,,,,,,,,,,,,,,,,,,,,,,,,,,,,,,,,,,,,,,,,,,,,,,,,,,,,,,,1.3696,974.3578638000181,None,None,1,974.3578638000181,None,,P044,fencog,1,Pre,2022_May_18_1102,N-Back (New Version 2021),2021.1.4,121.30813828942715,
,,,,Conditions/Version_1/twoback(4)_v1.xlsx,New rule: Press 'space' when you see 2-back (i.e. the same letter as the one that appeared 2 letters ago.),P,space,,,,,,,,,0,12,12,12,0,6,6,6,,,,,,,,,,,,,,,,,,,,,,,,,,,,,,,,,,,,,,,,,,,,,,,,,,,,,,,,,,,,,,,,,,,,,1.1278,977.4997639999492,None,space,1,977.4997639999492,None,0.6179117999272421,P044,fencog,1,Pre,2022_May_18_1102,N-Back (New Version 2021),2021.1.4,121.30813828942715,
,,,,Conditions/Version_1/twoback(4)_v1.xlsx,New rule: Press 'space' when you see 2-back (i.e. the same letter as the one that appeared 2 letters ago.),y,None,,,,,,,,,0,12,12,12,0,7,7,7,,,,,,,,,,,,,,,,,,,,,,,,,,,,,,,,,,,,,,,,,,,,,,,,,,,,,,,,,,,,,,,,,,,,,1.599,981.105638399953,None,space,0,981.105638399953,None,0.7962410000618547,P044,fencog,1,Pre,2022_May_18_1102,N-Back (New Version 2021),2021.1.4,121.30813828942715,
,,,,Conditions/Version_1/twoback(4)_v1.xlsx,New rule: Press 'space' when you see 2-back (i.e. the same letter as the one that appeared 2 letters ago.),y,space,,,,,,,,,0,12,12,12,0,8,8,8,,,,,,,,,,,,,,,,,,,,,,,,,,,,,,,,,,,,,,,,,,,,,,,,,,,,,,,,,,,,,,,,,,,,,1.6486,984.7642829000251,None,None,0,984.7642829000251,None,,P044,fencog,1,Pre,2022_May_18_1102,N-Back (New Version 2021),2021.1.4,121.30813828942715,
,,,,Conditions/Version_1/twoback(4)_v1.xlsx,New rule: Press 'space' when you see 2-back (i.e. the same letter as the one that appeared 2 letters ago.),,,,,,,,,,,0,12,12,12,,,,,,,,,,,,,,,,,,,,,,,,,,,,,,,,,,,,,,,,,,,,,,,,,,,,,,,,,,,,,,,,,,,,,,,,,,,,,,,,,P044,fencog,1,Pre,2022_May_18_1102,N-Back (New Version 2021),2021.1.4,121.30813828942715,
,,,,Conditions/Version_1/zeroback(4)_v1.xlsx,New rule: Press 'space' when you see the letter 'x' or 'X'.,o,None,,,,,,,,,0,13,13,13,0,0,0,0,,,,,,,,,,,,,,,,,,,,,,,,,,,,,,,,,,,,,,,,,,,,,,,,,,,,,,,,,,,986.7888024999993,None,989.7759426999837,None,space,2.405839000013657,989.7759426999837,None,986.7888024999993,None,1.5928,993.812883000006,None,None,1,993.812883000006,None,,P044,fencog,1,Pre,2022_May_18_1102,N-Back (New Version 2021),2021.1.4,121.30813828942715,
,,,,Conditions/Version_1/zeroback(4)_v1.xlsx,New rule: Press 'space' when you see the letter 'x' or 'X'.,X,space,,,,,,,,,0,13,13,13,0,1,1,1,,,,,,,,,,,,,,,,,,,,,,,,,,,,,,,,,,,,,,,,,,,,,,,,,,,,,,,,,,,,,,,,,,,,,1.0658,996.8837179000257,None,space,1,996.8837179000257,None,0.49790639989078045,P044,fencog,1,Pre,2022_May_18_1102,N-Back (New Version 2021),2021.1.4,121.30813828942715,
,,,,Conditions/Version_1/zeroback(4)_v1.xlsx,New rule: Press 'space' when you see the letter 'x' or 'X'.,p,None,,,,,,,,,0,13,13,13,0,2,2,2,,,,,,,,,,,,,,,,,,,,,,,,,,,,,,,,,,,,,,,,,,,,,,,,,,,,,,,,,,,,,,,,,,,,,1.1712,1000.0588270999724,None,None,1,1000.0588270999724,None,,P044,fencog,1,Pre,2022_May_18_1102,N-Back (New Version 2021),2021.1.4,121.30813828942715,
,,,,Conditions/Version_1/zeroback(4)_v1.xlsx,New rule: Press 'space' when you see the letter 'x' or 'X'.,m,None,,,,,,,,,0,13,13,13,0,3,3,3,,,,,,,,,,,,,,,,,,,,,,,,,,,,,,,,,,,,,,,,,,,,,,,,,,,,,,,,,,,,,,,,,,,,,1.7478,1003.8147807000205,None,None,1,1003.8147807000205,None,,P044,fencog,1,Pre,2022_May_18_1102,N-Back (New Version 2021),2021.1.4,121.30813828942715,
,,,,Conditions/Version_1/zeroback(4)_v1.xlsx,New rule: Press 'space' when you see the letter 'x' or 'X'.,n,None,,,,,,,,,0,13,13,13,0,4,4,4,,,,,,,,,,,,,,,,,,,,,,,,,,,,,,,,,,,,,,,,,,,,,,,,,,,,,,,,,,,,,,,,,,,,,1.3696,1007.1900716000237,None,None,1,1007.1900716000237,None,,P044,fencog,1,Pre,2022_May_18_1102,N-Back (New Version 2021),2021.1.4,121.30813828942715,
,,,,Conditions/Version_1/zeroback(4)_v1.xlsx,New rule: Press 'space' when you see the letter 'x' or 'X'.,m,None,,,,,,,,,0,13,13,13,0,5,5,5,,,,,,,,,,,,,,,,,,,,,,,,,,,,,,,,,,,,,,,,,,,,,,,,,,,,,,,,,,,,,,,,,,,,,1.4192,1010.6235306999879,None,None,1,1010.6235306999879,None,,P044,fencog,1,Pre,2022_May_18_1102,N-Back (New Version 2021),2021.1.4,121.30813828942715,
,,,,Conditions/Version_1/zeroback(4)_v1.xlsx,New rule: Press 'space' when you see the letter 'x' or 'X'.,C,None,,,,,,,,,0,13,13,13,0,6,6,6,,,,,,,,,,,,,,,,,,,,,,,,,,,,,,,,,,,,,,,,,,,,,,,,,,,,,,,,,,,,,,,,,,,,,1.4564,1014.0880455999868,None,None,1,1014.0880455999868,None,,P044,fencog,1,Pre,2022_May_18_1102,N-Back (New Version 2021),2021.1.4,121.30813828942715,
,,,,Conditions/Version_1/zeroback(4)_v1.xlsx,New rule: Press 'space' when you see the letter 'x' or 'X'.,m,None,,,,,,,,,0,13,13,13,0,7,7,7,,,,,,,,,,,,,,,,,,,,,,,,,,,,,,,,,,,,,,,,,,,,,,,,,,,,,,,,,,,,,,,,,,,,,1.5804,1017.6774288000306,None,None,1,1017.6774288000306,None,,P044,fencog,1,Pre,2022_May_18_1102,N-Back (New Version 2021),2021.1.4,121.30813828942715,
,,,,Conditions/Version_1/zeroback(4)_v1.xlsx,New rule: Press 'space' when you see the letter 'x' or 'X'.,p,None,,,,,,,,,0,13,13,13,0,8,8,8,,,,,,,,,,,,,,,,,,,,,,,,,,,,,,,,,,,,,,,,,,,,,,,,,,,,,,,,,,,,,,,,,,,,,1.4378,1021.118099699961,None,None,1,1021.118099699961,None,,P044,fencog,1,Pre,2022_May_18_1102,N-Back (New Version 2021),2021.1.4,121.30813828942715,
,,,,Conditions/Version_1/zeroback(4)_v1.xlsx,New rule: Press 'space' when you see the letter 'x' or 'X'.,X,space,,,,,,,,,0,13,13,13,0,9,9,9,,,,,,,,,,,,,,,,,,,,,,,,,,,,,,,,,,,,,,,,,,,,,,,,,,,,,,,,,,,,,,,,,,,,,1.9772,1025.1127984999912,None,space,1,1025.1127984999912,None,0.45295860001351684,P044,fencog,1,Pre,2022_May_18_1102,N-Back (New Version 2021),2021.1.4,121.30813828942715,
,,,,Conditions/Version_1/zeroback(4)_v1.xlsx,New rule: Press 'space' when you see the letter 'x' or 'X'.,,,,,,,,,,,0,13,13,13,,,,,,,,,,,,,,,,,,,,,,,,,,,,,,,,,,,,,,,,,,,,,,,,,,,,,,,,,,,,,,,,,,,,,,,,,,,,,,,,,P044,fencog,1,Pre,2022_May_18_1102,N-Back (New Version 2021),2021.1.4,121.30813828942715,
,,,,Conditions/Version_1/oneback(4)_v1.xlsx,New rule: Press 'space' when you see 1-back (i.e. the same letter as the one that appeared 1 letter ago.),w,None,,,,,,,,,0,14,14,14,0,0,0,0,,,,,,,,,,,,,,,,,,,,,,,,,,,,,,,,,,,,,,,,,,,,,,,,,,,,,,,,,,,1027.1383216999238,None,1030.1259904999752,None,space,0.9756876999745145,1030.1259904999752,None,1027.1383216999238,None,1.4502,1032.5815296999644,None,None,1,1032.5815296999644,None,,P044,fencog,1,Pre,2022_May_18_1102,N-Back (New Version 2021),2021.1.4,121.30813828942715,
,,,,Conditions/Version_1/oneback(4)_v1.xlsx,New rule: Press 'space' when you see 1-back (i.e. the same letter as the one that appeared 1 letter ago.),q,None,,,,,,,,,0,14,14,14,0,1,1,1,,,,,,,,,,,,,,,,,,,,,,,,,,,,,,,,,,,,,,,,,,,,,,,,,,,,,,,,,,,,,,,,,,,,,1.7354,1036.3229160000337,None,None,1,1036.3229160000337,None,,P044,fencog,1,Pre,2022_May_18_1102,N-Back (New Version 2021),2021.1.4,121.30813828942715,
,,,,Conditions/Version_1/oneback(4)_v1.xlsx,New rule: Press 'space' when you see 1-back (i.e. the same letter as the one that appeared 1 letter ago.),i,None,,,,,,,,,0,14,14,14,0,2,2,2,,,,,,,,,,,,,,,,,,,,,,,,,,,,,,,,,,,,,,,,,,,,,,,,,,,,,,,,,,,,,,,,,,,,,1.8718,1040.2047203999246,None,None,1,1040.2047203999246,None,,P044,fencog,1,Pre,2022_May_18_1102,N-Back (New Version 2021),2021.1.4,121.30813828942715,
,,,,Conditions/Version_1/oneback(4)_v1.xlsx,New rule: Press 'space' when you see 1-back (i.e. the same letter as the one that appeared 1 letter ago.),t,None,,,,,,,,,0,14,14,14,0,3,3,3,,,,,,,,,,,,,,,,,,,,,,,,,,,,,,,,,,,,,,,,,,,,,,,,,,,,,,,,,,,,,,,,,,,,,1.4068,1043.6198695999337,None,None,1,1043.6198695999337,None,,P044,fencog,1,Pre,2022_May_18_1102,N-Back (New Version 2021),2021.1.4,121.30813828942715,
,,,,Conditions/Version_1/oneback(4)_v1.xlsx,New rule: Press 'space' when you see 1-back (i.e. the same letter as the one that appeared 1 letter ago.),v,None,,,,,,,,,0,14,14,14,0,4,4,4,,,,,,,,,,,,,,,,,,,,,,,,,,,,,,,,,,,,,,,,,,,,,,,,,,,,,,,,,,,,,,,,,,,,,1.8904,1047.5117983999662,None,None,1,1047.5117983999662,None,,P044,fencog,1,Pre,2022_May_18_1102,N-Back (New Version 2021),2021.1.4,121.30813828942715,
,,,,Conditions/Version_1/oneback(4)_v1.xlsx,New rule: Press 'space' when you see 1-back (i.e. the same letter as the one that appeared 1 letter ago.),V,space,,,,,,,,,0,14,14,14,0,5,5,5,,,,,,,,,,,,,,,,,,,,,,,,,,,,,,,,,,,,,,,,,,,,,,,,,,,,,,,,,,,,,,,,,,,,,1.4006,1050.9262973000295,None,space,1,1050.9262973000295,None,0.35938549996353686,P044,fencog,1,Pre,2022_May_18_1102,N-Back (New Version 2021),2021.1.4,121.30813828942715,
,,,,Conditions/Version_1/oneback(4)_v1.xlsx,New rule: Press 'space' when you see 1-back (i.e. the same letter as the one that appeared 1 letter ago.),v,space,,,,,,,,,0,14,14,14,0,6,6,6,,,,,,,,,,,,,,,,,,,,,,,,,,,,,,,,,,,,,,,,,,,,,,,,,,,,,,,,,,,,,,,,,,,,,1.7168,1054.6535423999885,None,space,1,1054.6535423999885,None,1.5362234000349417,P044,fencog,1,Pre,2022_May_18_1102,N-Back (New Version 2021),2021.1.4,121.30813828942715,
,,,,Conditions/Version_1/oneback(4)_v1.xlsx,New rule: Press 'space' when you see 1-back (i.e. the same letter as the one that appeared 1 letter ago.),p,None,,,,,,,,,0,14,14,14,0,7,7,7,,,,,,,,,,,,,,,,,,,,,,,,,,,,,,,,,,,,,,,,,,,,,,,,,,,,,,,,,,,,,,,,,,,,,1.2642,1057.925352799939,None,None,1,1057.925352799939,None,,P044,fencog,1,Pre,2022_May_18_1102,N-Back (New Version 2021),2021.1.4,121.30813828942715,
,,,,Conditions/Version_1/oneback(4)_v1.xlsx,New rule: Press 'space' when you see 1-back (i.e. the same letter as the one that appeared 1 letter ago.),w,None,,,,,,,,,0,14,14,14,0,8,8,8,,,,,,,,,,,,,,,,,,,,,,,,,,,,,,,,,,,,,,,,,,,,,,,,,,,,,,,,,,,,,,,,,,,,,1.1526,1061.093184700003,None,None,1,1061.093184700003,None,,P044,fencog,1,Pre,2022_May_18_1102,N-Back (New Version 2021),2021.1.4,121.30813828942715,
,,,,Conditions/Version_1/oneback(4)_v1.xlsx,New rule: Press 'space' when you see 1-back (i.e. the same letter as the one that appeared 1 letter ago.),W,space,,,,,,,,,0,14,14,14,0,9,9,9,,,,,,,,,,,,,,,,,,,,,,,,,,,,,,,,,,,,,,,,,,,,,,,,,,,,,,,,,,,,,,,,,,,,,1.5122,1064.6134736000095,None,space,1,1064.6134736000095,None,0.5363208999624476,P044,fencog,1,Pre,2022_May_18_1102,N-Back (New Version 2021),2021.1.4,121.30813828942715,
,,,,Conditions/Version_1/oneback(4)_v1.xlsx,New rule: Press 'space' when you see 1-back (i.e. the same letter as the one that appeared 1 letter ago.),,,,,,,,,,,0,14,14,14,,,,,,,,,,,,,,,,,,,,,,,,,,,,,,,,,,,,,,,,,,,,,,,,,,,,,,,,,,,,,,,,,,,,,,,,,,,,,,,,,P044,fencog,1,Pre,2022_May_18_1102,N-Back (New Version 2021),2021.1.4,121.30813828942715,
,,,,Conditions/Version_1/threeback(4)_v1.xlsx,New rule: Press 'space' when you see 3-back (i.e. the same letter as the one that appeared 3 letters ago.),A,None,,,,,,,,,0,15,15,15,0,0,0,0,,,,,,,,,,,,,,,,,,,,,,,,,,,,,,,,,,,,,,,,,,,,,,,,,,,,,,,,,,,1066.6414096999215,None,1069.62355629995,None,space,0.9102579000173137,1069.62355629995,None,1066.6414096999215,None,1.7478,1072.320961899939,None,None,1,1072.320961899939,None,,P044,fencog,1,Pre,2022_May_18_1102,N-Back (New Version 2021),2021.1.4,121.30813828942715,
,,,,Conditions/Version_1/threeback(4)_v1.xlsx,New rule: Press 'space' when you see 3-back (i.e. the same letter as the one that appeared 3 letters ago.),n,None,,,,,,,,,0,15,15,15,0,1,1,1,,,,,,,,,,,,,,,,,,,,,,,,,,,,,,,,,,,,,,,,,,,,,,,,,,,,,,,,,,,,,,,,,,,,,1.5866,1075.9206261999207,None,None,1,1075.9206261999207,None,,P044,fencog,1,Pre,2022_May_18_1102,N-Back (New Version 2021),2021.1.4,121.30813828942715,
,,,,Conditions/Version_1/threeback(4)_v1.xlsx,New rule: Press 'space' when you see 3-back (i.e. the same letter as the one that appeared 3 letters ago.),g,None,,,,,,,,,0,15,15,15,0,2,2,2,,,,,,,,,,,,,,,,,,,,,,,,,,,,,,,,,,,,,,,,,,,,,,,,,,,,,,,,,,,,,,,,,,,,,1.0782,1079.0098901999881,None,None,1,1079.0098901999881,None,,P044,fencog,1,Pre,2022_May_18_1102,N-Back (New Version 2021),2021.1.4,121.30813828942715,
,,,,Conditions/Version_1/threeback(4)_v1.xlsx,New rule: Press 'space' when you see 3-back (i.e. the same letter as the one that appeared 3 letters ago.),A,space,,,,,,,,,0,15,15,15,0,3,3,3,,,,,,,,,,,,,,,,,,,,,,,,,,,,,,,,,,,,,,,,,,,,,,,,,,,,,,,,,,,,,,,,,,,,,1.878,1082.8997642999748,None,space,1,1082.8997642999748,None,0.39398529997561127,P044,fencog,1,Pre,2022_May_18_1102,N-Back (New Version 2021),2021.1.4,121.30813828942715,
,,,,Conditions/Version_1/threeback(4)_v1.xlsx,New rule: Press 'space' when you see 3-back (i.e. the same letter as the one that appeared 3 letters ago.),p,None,,,,,,,,,0,15,15,15,0,4,4,4,,,,,,,,,,,,,,,,,,,,,,,,,,,,,,,,,,,,,,,,,,,,,,,,,,,,,,,,,,,,,,,,,,,,,1.0224,1085.9282672000118,None,None,1,1085.9282672000118,None,,P044,fencog,1,Pre,2022_May_18_1102,N-Back (New Version 2021),2021.1.4,121.30813828942715,
,,,,Conditions/Version_1/threeback(4)_v1.xlsx,New rule: Press 'space' when you see 3-back (i.e. the same letter as the one that appeared 3 letters ago.),O,None,,,,,,,,,0,15,15,15,0,5,5,5,,,,,,,,,,,,,,,,,,,,,,,,,,,,,,,,,,,,,,,,,,,,,,,,,,,,,,,,,,,,,,,,,,,,,1.351,1089.2922991999658,None,None,1,1089.2922991999658,None,,P044,fencog,1,Pre,2022_May_18_1102,N-Back (New Version 2021),2021.1.4,121.30813828942715,
,,,,Conditions/Version_1/threeback(4)_v1.xlsx,New rule: Press 'space' when you see 3-back (i.e. the same letter as the one that appeared 3 letters ago.),a,space,,,,,,,,,0,15,15,15,0,6,6,6,,,,,,,,,,,,,,,,,,,,,,,,,,,,,,,,,,,,,,,,,,,,,,,,,,,,,,,,,,,,,,,,,,,,,1.3944,1092.701498099952,None,None,0,1092.701498099952,None,,P044,fencog,1,Pre,2022_May_18_1102,N-Back (New Version 2021),2021.1.4,121.30813828942715,
,,,,Conditions/Version_1/threeback(4)_v1.xlsx,New rule: Press 'space' when you see 3-back (i.e. the same letter as the one that appeared 3 letters ago.),p,space,,,,,,,,,0,15,15,15,0,7,7,7,,,,,,,,,,,,,,,,,,,,,,,,,,,,,,,,,,,,,,,,,,,,,,,,,,,,,,,,,,,,,,,,,,,,,1.0472,1095.7554648999358,None,space,1,1095.7554648999358,None,0.9543705000542104,P044,fencog,1,Pre,2022_May_18_1102,N-Back (New Version 2021),2021.1.4,121.30813828942715,
,,,,Conditions/Version_1/threeback(4)_v1.xlsx,New rule: Press 'space' when you see 3-back (i.e. the same letter as the one that appeared 3 letters ago.),x,None,,,,,,,,,0,15,15,15,0,8,8,8,,,,,,,,,,,,,,,,,,,,,,,,,,,,,,,,,,,,,,,,,,,,,,,,,,,,,,,,,,,,,,,,,,,,,1.7416,1099.5032007999253,None,None,1,1099.5032007999253,None,,P044,fencog,1,Pre,2022_May_18_1102,N-Back (New Version 2021),2021.1.4,121.30813828942715,
,,,,Conditions/Version_1/threeback(4)_v1.xlsx,New rule: Press 'space' when you see 3-back (i.e. the same letter as the one that appeared 3 letters ago.),X,None,,,,,,,,,0,15,15,15,0,9,9,9,,,,,,,,,,,,,,,,,,,,,,,,,,,,,,,,,,,,,,,,,,,,,,,,,,,,,,,,,,,,,,,,,,,,,1.0162,1102.5190126999514,None,None,1,1102.5190126999514,None,,P044,fencog,1,Pre,2022_May_18_1102,N-Back (New Version 2021),2021.1.4,121.30813828942715,
,,,,Conditions/Version_1/threeback(4)_v1.xlsx,New rule: Press 'space' when you see 3-back (i.e. the same letter as the one that appeared 3 letters ago.),,,,,,,,,,,0,15,15,15,,,,,,,,,,,,,,,,,,,,,,,,,,,,,,,,,,,,,,,,,,,,,,,,,,,,,,,,,,,,,,,,,,,,,,,,,,,,,,,,,P044,fencog,1,Pre,2022_May_18_1102,N-Back (New Version 2021),2021.1.4,121.30813828942715,
