CondFileP,InstructionsP,LettersDisplayedP,CorrectnessP,CondFile,Instructions,LettersDisplayed,Correctness,practicetrials.thisRepN,practicetrials.thisTrialN,practicetrials.thisN,practicetrials.thisIndex,InnerLoopPractice.thisRepN,InnerLoopPractice.thisTrialN,InnerLoopPractice.thisN,InnerLoopPractice.thisIndex,trials.thisRepN,trials.thisTrialN,trials.thisN,trials.thisIndex,InnerLoop.thisRepN,InnerLoop.thisTrialN,InnerLoop.thisN,InnerLoop.thisIndex,TaskVersionText.started,TaskVersionText.stopped,InstrKey1.keys,InstrKey1.rt,InstrKey1.started,InstrKey1.stopped,text.started,text.stopped,key_resp_4.keys,key_resp_4.rt,key_resp_4.started,key_resp_4.stopped,text_2.started,text_2.stopped,key_resp_3.keys,key_resp_3.rt,key_resp_3.started,key_resp_3.stopped,text_3.started,text_3.stopped,key_resp_2.keys,key_resp_2.rt,key_resp_2.started,key_resp_2.stopped,PractIn1.started,PractIn1.stopped,PractIn2.started,PractIn2.stopped,PractInstructionPass.keys,PractInstructionPass.rt,PractInstructionPass.started,PractInstructionPass.stopped,PractBlock1.started,PractBlock1.stopped,ISIjitterPractice,ISI_Pract_Fixation.started,ISI_Pract_Fixation.stopped,N_backP.started,N_backP.stopped,KeyPractice.keys,KeyPractice.corr,KeyPractice.started,KeyPractice.stopped,text_4.started,text_4.stopped,KeyPractice.rt,TransitionText.started,TransitionText.stopped,key_resp_6.keys,key_resp_6.rt,key_resp_6.started,key_resp_6.stopped,text_5.started,text_5.stopped,key_resp_5.keys,key_resp_5.rt,key_resp_5.started,key_resp_5.stopped,MainInt1.started,MainInt1.stopped,MainInt2.started,MainInt2.stopped,InstructionPass.keys,InstructionPass.rt,InstructionPass.started,InstructionPass.stopped,Blocks1.started,Blocks1.stopped,ISIjitter,N_backD.started,N_backD.stopped,key_resp.keys,key_resp.corr,key_resp.started,key_resp.stopped,key_resp.rt,participant,Study Name,Task Version (required to run),PRE/POST,date,expName,psychopyVersion,frameRate
,,,,,,,,,,,,,,,,,,,,,,,,100.1795271,None,space,3.1058176,100.6641287,None,,,,,,,,,,,,,,,,,,,,,,,,,,,,,,,,,,,,,,,,,,,,,,,,,,,,,,,,,,,,,,,,,,,,,,,P045,FENCOG,1,Post,2022_May_30_1153,N-Back (New Version 2021),2021.1.4,120.7741138
,,,,,,,,,,,,,,,,,,,,,,,,,,,,,,103.8011153,None,space,31.2169484,104.2969952,None,,,,,,,,,,,,,,,,,,,,,,,,,,,,,,,,,,,,,,,,,,,,,,,,,,,,,,,,,,,,,,,,,P045,FENCOG,1,Post,2022_May_30_1153,N-Back (New Version 2021),2021.1.4,120.7741138
,,,,,,,,,,,,,,,,,,,,,,,,,,,,,,,,,,,,135.5571043,None,space,5.2360839,136.0459736,None,,,,,,,,,,,,,,,,,,,,,,,,,,,,,,,,,,,,,,,,,,,,,,,,,,,,,,,,,,,P045,FENCOG,1,Post,2022_May_30_1153,N-Back (New Version 2021),2021.1.4,120.7741138
,,,,,,,,,,,,,,,,,,,,,,,,,,,,,,,,,,,,,,,,,,141.3119335,None,space,7.0380728,141.8041787,None,,,,,,,,,,,,,,,,,,,,,,,,,,,,,,,,,,,,,,,,,,,,,,,,,,,,,P045,FENCOG,1,Post,2022_May_30_1153,N-Back (New Version 2021),2021.1.4,120.7741138
Conditions/Version_1Pr/zeroback(1)_v1.xlsx,Rule: Press 'space' when you see the letter 'x' or 'X'.,Z,None,,,,,0,0,0,0,0,0,0,0,,,,,,,,,,,,,,,,,,,,,,,,,,,,,,,,,150.2438062,None,153.2250915,None,space,0.0410463,153.2250915,None,150.2438062,None,1.365,153.3000211,None,154.6680692,None,None,1,154.6680692,None,156.6823148,None,,,,,,,,,,,,,,,,,,,,,,,,,,,,,,,,P045,FENCOG,1,Post,2022_May_30_1153,N-Back (New Version 2021),2021.1.4,120.7741138
Conditions/Version_1Pr/zeroback(1)_v1.xlsx,Rule: Press 'space' when you see the letter 'x' or 'X'.,r,None,,,,,0,0,0,0,0,1,1,1,,,,,,,,,,,,,,,,,,,,,,,,,,,,,,,,,,,,,,,,,,,1.04,158.1718154,None,159.2138407,None,None,1,159.2138407,None,161.2209437,None,,,,,,,,,,,,,,,,,,,,,,,,,,,,,,,,P045,FENCOG,1,Post,2022_May_30_1153,N-Back (New Version 2021),2021.1.4,120.7741138
Conditions/Version_1Pr/zeroback(1)_v1.xlsx,Rule: Press 'space' when you see the letter 'x' or 'X'.,X,space,,,,,0,0,0,0,0,2,2,2,,,,,,,,,,,,,,,,,,,,,,,,,,,,,,,,,,,,,,,,,,,1.39,162.7205628,None,164.1143117,None,space,1,164.1143117,None,164.6633225,None,0.535564,,,,,,,,,,,,,,,,,,,,,,,,,,,,,,,P045,FENCOG,1,Post,2022_May_30_1153,N-Back (New Version 2021),2021.1.4,120.7741138
Conditions/Version_1Pr/zeroback(1)_v1.xlsx,Rule: Press 'space' when you see the letter 'x' or 'X'.,p,None,,,,,0,0,0,0,0,3,3,3,,,,,,,,,,,,,,,,,,,,,,,,,,,,,,,,,,,,,,,,,,,1.09,166.1694348,None,167.2625184,None,None,1,167.2625184,None,169.2686353,None,,,,,,,,,,,,,,,,,,,,,,,,,,,,,,,,P045,FENCOG,1,Post,2022_May_30_1153,N-Back (New Version 2021),2021.1.4,120.7741138
Conditions/Version_1Pr/zeroback(1)_v1.xlsx,Rule: Press 'space' when you see the letter 'x' or 'X'.,w,None,,,,,0,0,0,0,0,4,4,4,,,,,,,,,,,,,,,,,,,,,,,,,,,,,,,,,,,,,,,,,,,1.065,170.7681003,None,171.840628,None,None,1,171.840628,None,173.8422329,None,,,,,,,,,,,,,,,,,,,,,,,,,,,,,,,,P045,FENCOG,1,Post,2022_May_30_1153,N-Back (New Version 2021),2021.1.4,120.7741138
Conditions/Version_1Pr/zeroback(1)_v1.xlsx,Rule: Press 'space' when you see the letter 'x' or 'X'.,e,None,,,,,0,0,0,0,0,5,5,5,,,,,,,,,,,,,,,,,,,,,,,,,,,,,,,,,,,,,,,,,,,1.99,175.3418081,None,177.3393598,None,None,1,177.3393598,None,179.3405409,None,,,,,,,,,,,,,,,,,,,,,,,,,,,,,,,,P045,FENCOG,1,Post,2022_May_30_1153,N-Back (New Version 2021),2021.1.4,120.7741138
Conditions/Version_1Pr/zeroback(1)_v1.xlsx,Rule: Press 'space' when you see the letter 'x' or 'X'.,X,space,,,,,0,0,0,0,0,6,6,6,,,,,,,,,,,,,,,,,,,,,,,,,,,,,,,,,,,,,,,,,,,1.715,180.8401064,None,182.5600193,None,space,1,182.5600193,None,183.1406581,None,0.5699175,,,,,,,,,,,,,,,,,,,,,,,,,,,,,,,P045,FENCOG,1,Post,2022_May_30_1153,N-Back (New Version 2021),2021.1.4,120.7741138
Conditions/Version_1Pr/zeroback(1)_v1.xlsx,Rule: Press 'space' when you see the letter 'x' or 'X'.,x,space,,,,,0,0,0,0,0,7,7,7,,,,,,,,,,,,,,,,,,,,,,,,,,,,,,,,,,,,,,,,,,,1.34,184.6473511,None,185.9920992,None,space,1,185.9920992,None,186.8566557,None,0.8499134,,,,,,,,,,,,,,,,,,,,,,,,,,,,,,,P045,FENCOG,1,Post,2022_May_30_1153,N-Back (New Version 2021),2021.1.4,120.7741138
Conditions/Version_1Pr/zeroback(1)_v1.xlsx,Rule: Press 'space' when you see the letter 'x' or 'X'.,p,None,,,,,0,0,0,0,0,8,8,8,,,,,,,,,,,,,,,,,,,,,,,,,,,,,,,,,,,,,,,,,,,1.44,188.3627834,None,189.8039136,None,None,1,189.8039136,None,191.8035458,None,,,,,,,,,,,,,,,,,,,,,,,,,,,,,,,,P045,FENCOG,1,Post,2022_May_30_1153,N-Back (New Version 2021),2021.1.4,120.7741138
Conditions/Version_1Pr/zeroback(1)_v1.xlsx,Rule: Press 'space' when you see the letter 'x' or 'X'.,r,None,,,,,0,0,0,0,0,9,9,9,,,,,,,,,,,,,,,,,,,,,,,,,,,,,,,,,,,,,,,,,,,1.29,193.3037336,None,194.5955673,None,None,1,194.5955673,None,196.6021764,None,,,,,,,,,,,,,,,,,,,,,,,,,,,,,,,,P045,FENCOG,1,Post,2022_May_30_1153,N-Back (New Version 2021),2021.1.4,120.7741138
Conditions/Version_1Pr/zeroback(1)_v1.xlsx,Rule: Press 'space' when you see the letter 'x' or 'X'.,,,,,,,0,0,0,0,,,,,,,,,,,,,,,,,,,,,,,,,,,,,,,,,,,,,,,,,,,,,,,,,,,,,,,,,,,,,,,,,,,,,,,,,,,,,,,,,,,,,,,,,P045,FENCOG,1,Post,2022_May_30_1153,N-Back (New Version 2021),2021.1.4,120.7741138
Conditions/Version_1Pr/oneback(1)_v1.xlsx,New rule: Press 'space' when you see 1-back (i.e. the same letter as the one that appeared 1 letter ago.),a,None,,,,,0,1,1,1,0,0,0,0,,,,,,,,,,,,,,,,,,,,,,,,,,,,,,,,,198.1243862,None,201.1106599,None,space,1.1711826,201.1106599,None,198.1243862,None,1.715,202.3097706,None,204.0269015,None,None,1,204.0269015,None,206.0326549,None,,,,,,,,,,,,,,,,,,,,,,,,,,,,,,,,P045,FENCOG,1,Post,2022_May_30_1153,N-Back (New Version 2021),2021.1.4,120.7741138
Conditions/Version_1Pr/oneback(1)_v1.xlsx,New rule: Press 'space' when you see 1-back (i.e. the same letter as the one that appeared 1 letter ago.),x,None,,,,,0,1,1,1,0,1,1,1,,,,,,,,,,,,,,,,,,,,,,,,,,,,,,,,,,,,,,,,,,,1.04,207.5322793,None,208.5744295,None,None,1,208.5744295,None,210.5813143,None,,,,,,,,,,,,,,,,,,,,,,,,,,,,,,,,P045,FENCOG,1,Post,2022_May_30_1153,N-Back (New Version 2021),2021.1.4,120.7741138
Conditions/Version_1Pr/oneback(1)_v1.xlsx,New rule: Press 'space' when you see 1-back (i.e. the same letter as the one that appeared 1 letter ago.),g,None,,,,,0,1,1,1,0,2,2,2,,,,,,,,,,,,,,,,,,,,,,,,,,,,,,,,,,,,,,,,,,,1.44,212.0809098,None,213.5238797,None,None,1,213.5238797,None,215.5297344,None,,,,,,,,,,,,,,,,,,,,,,,,,,,,,,,,P045,FENCOG,1,Post,2022_May_30_1153,N-Back (New Version 2021),2021.1.4,120.7741138
Conditions/Version_1Pr/oneback(1)_v1.xlsx,New rule: Press 'space' when you see 1-back (i.e. the same letter as the one that appeared 1 letter ago.),G,space,,,,,0,1,1,1,0,3,3,3,,,,,,,,,,,,,,,,,,,,,,,,,,,,,,,,,,,,,,,,,,,1.69,217.0291849,None,218.7247187,None,space,1,218.7247187,None,219.9049287,None,1.1652849,,,,,,,,,,,,,,,,,,,,,,,,,,,,,,,P045,FENCOG,1,Post,2022_May_30_1153,N-Back (New Version 2021),2021.1.4,120.7741138
Conditions/Version_1Pr/oneback(1)_v1.xlsx,New rule: Press 'space' when you see 1-back (i.e. the same letter as the one that appeared 1 letter ago.),u,None,,,,,0,1,1,1,0,4,4,4,,,,,,,,,,,,,,,,,,,,,,,,,,,,,,,,,,,,,,,,,,,1.515,221.4114408,None,222.92916,None,None,1,222.92916,None,224.9354605,None,,,,,,,,,,,,,,,,,,,,,,,,,,,,,,,,P045,FENCOG,1,Post,2022_May_30_1153,N-Back (New Version 2021),2021.1.4,120.7741138
Conditions/Version_1Pr/oneback(1)_v1.xlsx,New rule: Press 'space' when you see 1-back (i.e. the same letter as the one that appeared 1 letter ago.),y,None,,,,,0,1,1,1,0,5,5,5,,,,,,,,,,,,,,,,,,,,,,,,,,,,,,,,,,,,,,,,,,,1.215,226.435011,None,227.6528882,None,None,1,227.6528882,None,229.6590002,None,,,,,,,,,,,,,,,,,,,,,,,,,,,,,,,,P045,FENCOG,1,Post,2022_May_30_1153,N-Back (New Version 2021),2021.1.4,120.7741138
Conditions/Version_1Pr/oneback(1)_v1.xlsx,New rule: Press 'space' when you see 1-back (i.e. the same letter as the one that appeared 1 letter ago.),y,space,,,,,0,1,1,1,0,6,6,6,,,,,,,,,,,,,,,,,,,,,,,,,,,,,,,,,,,,,,,,,,,1.14,231.1585454,None,232.2998794,None,space,1,232.2998794,None,233.2356162,None,0.9261166,,,,,,,,,,,,,,,,,,,,,,,,,,,,,,,P045,FENCOG,1,Post,2022_May_30_1153,N-Back (New Version 2021),2021.1.4,120.7741138
Conditions/Version_1Pr/oneback(1)_v1.xlsx,New rule: Press 'space' when you see 1-back (i.e. the same letter as the one that appeared 1 letter ago.),k,None,,,,,0,1,1,1,0,7,7,7,,,,,,,,,,,,,,,,,,,,,,,,,,,,,,,,,,,,,,,,,,,1.99,234.7408291,None,236.7341813,None,None,1,236.7341813,None,238.7396526,None,,,,,,,,,,,,,,,,,,,,,,,,,,,,,,,,P045,FENCOG,1,Post,2022_May_30_1153,N-Back (New Version 2021),2021.1.4,120.7741138
Conditions/Version_1Pr/oneback(1)_v1.xlsx,New rule: Press 'space' when you see 1-back (i.e. the same letter as the one that appeared 1 letter ago.),c,None,,,,,0,1,1,1,0,8,8,8,,,,,,,,,,,,,,,,,,,,,,,,,,,,,,,,,,,,,,,,,,,1.64,240.2390469,None,241.8822961,None,None,1,241.8822961,None,243.8882572,None,,,,,,,,,,,,,,,,,,,,,,,,,,,,,,,,P045,FENCOG,1,Post,2022_May_30_1153,N-Back (New Version 2021),2021.1.4,120.7741138
Conditions/Version_1Pr/oneback(1)_v1.xlsx,New rule: Press 'space' when you see 1-back (i.e. the same letter as the one that appeared 1 letter ago.),r,None,,,,,0,1,1,1,0,9,9,9,,,,,,,,,,,,,,,,,,,,,,,,,,,,,,,,,,,,,,,,,,,1.415,245.3877478,None,246.803717,None,None,1,246.803717,None,248.8039323,None,,,,,,,,,,,,,,,,,,,,,,,,,,,,,,,,P045,FENCOG,1,Post,2022_May_30_1153,N-Back (New Version 2021),2021.1.4,120.7741138
Conditions/Version_1Pr/oneback(1)_v1.xlsx,New rule: Press 'space' when you see 1-back (i.e. the same letter as the one that appeared 1 letter ago.),,,,,,,0,1,1,1,,,,,,,,,,,,,,,,,,,,,,,,,,,,,,,,,,,,,,,,,,,,,,,,,,,,,,,,,,,,,,,,,,,,,,,,,,,,,,,,,,,,,,,,,P045,FENCOG,1,Post,2022_May_30_1153,N-Back (New Version 2021),2021.1.4,120.7741138
Conditions/Version_1Pr/twoback(1)_v1.xlsx,New rule: Press 'space' when you see 2-back (i.e. the same letter as the one that appeared 2 letters ago.),E,None,,,,,0,2,2,2,0,0,0,0,,,,,,,,,,,,,,,,,,,,,,,,,,,,,,,,,250.3322868,None,253.3218932,None,space,1.5679204,253.3218932,None,250.3322868,None,1.065,254.9190256,None,255.9864797,None,None,1,255.9864797,None,257.9923007,None,,,,,,,,,,,,,,,,,,,,,,,,,,,,,,,,P045,FENCOG,1,Post,2022_May_30_1153,N-Back (New Version 2021),2021.1.4,120.7741138
Conditions/Version_1Pr/twoback(1)_v1.xlsx,New rule: Press 'space' when you see 2-back (i.e. the same letter as the one that appeared 2 letters ago.),p,None,,,,,0,2,2,2,0,1,1,1,,,,,,,,,,,,,,,,,,,,,,,,,,,,,,,,,,,,,,,,,,,1.415,259.4917845,None,260.9088177,None,None,1,260.9088177,None,262.9158582,None,,,,,,,,,,,,,,,,,,,,,,,,,,,,,,,,P045,FENCOG,1,Post,2022_May_30_1153,N-Back (New Version 2021),2021.1.4,120.7741138
Conditions/Version_1Pr/twoback(1)_v1.xlsx,New rule: Press 'space' when you see 2-back (i.e. the same letter as the one that appeared 2 letters ago.),e,space,,,,,0,2,2,2,0,2,2,2,,,,,,,,,,,,,,,,,,,,,,,,,,,,,,,,,,,,,,,,,,,1.79,264.4154483,None,266.2066154,None,space,1,266.2066154,None,267.0744093,None,0.8512936,,,,,,,,,,,,,,,,,,,,,,,,,,,,,,,P045,FENCOG,1,Post,2022_May_30_1153,N-Back (New Version 2021),2021.1.4,120.7741138
Conditions/Version_1Pr/twoback(1)_v1.xlsx,New rule: Press 'space' when you see 2-back (i.e. the same letter as the one that appeared 2 letters ago.),s,None,,,,,0,2,2,2,0,3,3,3,,,,,,,,,,,,,,,,,,,,,,,,,,,,,,,,,,,,,,,,,,,1.265,268.5808882,None,269.8487671,None,None,1,269.8487671,None,271.85482,None,,,,,,,,,,,,,,,,,,,,,,,,,,,,,,,,P045,FENCOG,1,Post,2022_May_30_1153,N-Back (New Version 2021),2021.1.4,120.7741138
Conditions/Version_1Pr/twoback(1)_v1.xlsx,New rule: Press 'space' when you see 2-back (i.e. the same letter as the one that appeared 2 letters ago.),S,None,,,,,0,2,2,2,0,4,4,4,,,,,,,,,,,,,,,,,,,,,,,,,,,,,,,,,,,,,,,,,,,1.215,273.3544241,None,274.576112,None,None,1,274.576112,None,276.5785575,None,,,,,,,,,,,,,,,,,,,,,,,,,,,,,,,,P045,FENCOG,1,Post,2022_May_30_1153,N-Back (New Version 2021),2021.1.4,120.7741138
Conditions/Version_1Pr/twoback(1)_v1.xlsx,New rule: Press 'space' when you see 2-back (i.e. the same letter as the one that appeared 2 letters ago.),s,space,,,,,0,2,2,2,0,5,5,5,,,,,,,,,,,,,,,,,,,,,,,,,,,,,,,,,,,,,,,,,,,1.465,278.0780975,None,279.5448502,None,space,1,279.5448502,None,280.7454427,None,1.1851426,,,,,,,,,,,,,,,,,,,,,,,,,,,,,,,P045,FENCOG,1,Post,2022_May_30_1153,N-Back (New Version 2021),2021.1.4,120.7741138
Conditions/Version_1Pr/twoback(1)_v1.xlsx,New rule: Press 'space' when you see 2-back (i.e. the same letter as the one that appeared 2 letters ago.),P,None,,,,,0,2,2,2,0,6,6,6,,,,,,,,,,,,,,,,,,,,,,,,,,,,,,,,,,,,,,,,,,,1.14,282.2516821,None,283.3952395,None,None,1,283.3952395,None,285.4009119,None,,,,,,,,,,,,,,,,,,,,,,,,,,,,,,,,P045,FENCOG,1,Post,2022_May_30_1153,N-Back (New Version 2021),2021.1.4,120.7741138
Conditions/Version_1Pr/twoback(1)_v1.xlsx,New rule: Press 'space' when you see 2-back (i.e. the same letter as the one that appeared 2 letters ago.),C,None,,,,,0,2,2,2,0,7,7,7,,,,,,,,,,,,,,,,,,,,,,,,,,,,,,,,,,,,,,,,,,,1.74,286.9004729,None,288.6432858,None,None,1,288.6432858,None,290.6489586,None,,,,,,,,,,,,,,,,,,,,,,,,,,,,,,,,P045,FENCOG,1,Post,2022_May_30_1153,N-Back (New Version 2021),2021.1.4,120.7741138
Conditions/Version_1Pr/twoback(1)_v1.xlsx,New rule: Press 'space' when you see 2-back (i.e. the same letter as the one that appeared 2 letters ago.),x,None,,,,,0,2,2,2,0,8,8,8,,,,,,,,,,,,,,,,,,,,,,,,,,,,,,,,,,,,,,,,,,,1.29,292.1485023,None,293.4397917,None,None,1,293.4397917,None,295.439225,None,,,,,,,,,,,,,,,,,,,,,,,,,,,,,,,,P045,FENCOG,1,Post,2022_May_30_1153,N-Back (New Version 2021),2021.1.4,120.7741138
Conditions/Version_1Pr/twoback(1)_v1.xlsx,New rule: Press 'space' when you see 2-back (i.e. the same letter as the one that appeared 2 letters ago.),Z,None,,,,,0,2,2,2,0,9,9,9,,,,,,,,,,,,,,,,,,,,,,,,,,,,,,,,,,,,,,,,,,,1.69,296.9387457,None,298.6301513,None,None,1,298.6301513,None,300.6293496,None,,,,,,,,,,,,,,,,,,,,,,,,,,,,,,,,P045,FENCOG,1,Post,2022_May_30_1153,N-Back (New Version 2021),2021.1.4,120.7741138
Conditions/Version_1Pr/twoback(1)_v1.xlsx,New rule: Press 'space' when you see 2-back (i.e. the same letter as the one that appeared 2 letters ago.),,,,,,,0,2,2,2,,,,,,,,,,,,,,,,,,,,,,,,,,,,,,,,,,,,,,,,,,,,,,,,,,,,,,,,,,,,,,,,,,,,,,,,,,,,,,,,,,,,,,,,,P045,FENCOG,1,Post,2022_May_30_1153,N-Back (New Version 2021),2021.1.4,120.7741138
Conditions/Version_1Pr/threeback(1)_v1.xlsx,New rule: Press 'space' when you see 3-back (i.e. the same letter as the one that appeared 3 letters ago.),r,None,,,,,0,3,3,3,0,0,0,0,,,,,,,,,,,,,,,,,,,,,,,,,,,,,,,,,302.149021,None,305.1298886,None,space,0.9759337,305.1298886,None,302.149021,None,1.39,306.1371406,None,307.527382,None,None,1,307.527382,None,309.5267746,None,,,,,,,,,,,,,,,,,,,,,,,,,,,,,,,,P045,FENCOG,1,Post,2022_May_30_1153,N-Back (New Version 2021),2021.1.4,120.7741138
Conditions/Version_1Pr/threeback(1)_v1.xlsx,New rule: Press 'space' when you see 3-back (i.e. the same letter as the one that appeared 3 letters ago.),a,None,,,,,0,3,3,3,0,1,1,1,,,,,,,,,,,,,,,,,,,,,,,,,,,,,,,,,,,,,,,,,,,1.59,311.0262994,None,312.6174425,None,None,1,312.6174425,None,314.6168765,None,,,,,,,,,,,,,,,,,,,,,,,,,,,,,,,,P045,FENCOG,1,Post,2022_May_30_1153,N-Back (New Version 2021),2021.1.4,120.7741138
Conditions/Version_1Pr/threeback(1)_v1.xlsx,New rule: Press 'space' when you see 3-back (i.e. the same letter as the one that appeared 3 letters ago.),t,None,,,,,0,3,3,3,0,2,2,2,,,,,,,,,,,,,,,,,,,,,,,,,,,,,,,,,,,,,,,,,,,1.665,316.116465,None,317.7830434,None,None,1,317.7830434,None,319.782018,None,,,,,,,,,,,,,,,,,,,,,,,,,,,,,,,,P045,FENCOG,1,Post,2022_May_30_1153,N-Back (New Version 2021),2021.1.4,120.7741138
Conditions/Version_1Pr/threeback(1)_v1.xlsx,New rule: Press 'space' when you see 3-back (i.e. the same letter as the one that appeared 3 letters ago.),r,space,,,,,0,3,3,3,0,3,3,3,,,,,,,,,,,,,,,,,,,,,,,,,,,,,,,,,,,,,,,,,,,1.315,321.2815744,None,322.6028146,None,space,1,322.6028146,None,323.474328,None,0.855127,,,,,,,,,,,,,,,,,,,,,,,,,,,,,,,P045,FENCOG,1,Post,2022_May_30_1153,N-Back (New Version 2021),2021.1.4,120.7741138
Conditions/Version_1Pr/threeback(1)_v1.xlsx,New rule: Press 'space' when you see 3-back (i.e. the same letter as the one that appeared 3 letters ago.),a,None,,,,,0,3,3,3,0,4,4,4,,,,,,,,,,,,,,,,,,,,,,,,,,,,,,,,,,,,,,,,,,,1.215,324.9814489,None,326.1979252,None,space,0,326.1979252,None,327.4935315,None,1.2759918,,,,,,,,,,,,,,,,,,,,,,,,,,,,,,,P045,FENCOG,1,Post,2022_May_30_1153,N-Back (New Version 2021),2021.1.4,120.7741138
Conditions/Version_1Pr/threeback(1)_v1.xlsx,New rule: Press 'space' when you see 3-back (i.e. the same letter as the one that appeared 3 letters ago.),Y,None,,,,,0,3,3,3,0,5,5,5,,,,,,,,,,,,,,,,,,,,,,,,,,,,,,,,,,,,,,,,,,,1.69,329.000795,None,330.69894,None,None,1,330.69894,None,332.7033035,None,,,,,,,,,,,,,,,,,,,,,,,,,,,,,,,,P045,FENCOG,1,Post,2022_May_30_1153,N-Back (New Version 2021),2021.1.4,120.7741138
Conditions/Version_1Pr/threeback(1)_v1.xlsx,New rule: Press 'space' when you see 3-back (i.e. the same letter as the one that appeared 3 letters ago.),q,None,,,,,0,3,3,3,0,6,6,6,,,,,,,,,,,,,,,,,,,,,,,,,,,,,,,,,,,,,,,,,,,1.24,334.2032393,None,335.4460496,None,None,1,335.4460496,None,337.4521899,None,,,,,,,,,,,,,,,,,,,,,,,,,,,,,,,,P045,FENCOG,1,Post,2022_May_30_1153,N-Back (New Version 2021),2021.1.4,120.7741138
Conditions/Version_1Pr/threeback(1)_v1.xlsx,New rule: Press 'space' when you see 3-back (i.e. the same letter as the one that appeared 3 letters ago.),A,space,,,,,0,3,3,3,0,7,7,7,,,,,,,,,,,,,,,,,,,,,,,,,,,,,,,,,,,,,,,,,,,1.965,338.9517049,None,340.9194081,None,None,0,340.9194081,None,342.9293917,None,,,,,,,,,,,,,,,,,,,,,,,,,,,,,,,,P045,FENCOG,1,Post,2022_May_30_1153,N-Back (New Version 2021),2021.1.4,120.7741138
Conditions/Version_1Pr/threeback(1)_v1.xlsx,New rule: Press 'space' when you see 3-back (i.e. the same letter as the one that appeared 3 letters ago.),y,None,,,,,0,3,3,3,0,8,8,8,,,,,,,,,,,,,,,,,,,,,,,,,,,,,,,,,,,,,,,,,,,1.515,344.4252203,None,345.9421836,None,space,0,345.9421836,None,347.1119651,None,1.1554735,,,,,,,,,,,,,,,,,,,,,,,,,,,,,,,P045,FENCOG,1,Post,2022_May_30_1153,N-Back (New Version 2021),2021.1.4,120.7741138
Conditions/Version_1Pr/threeback(1)_v1.xlsx,New rule: Press 'space' when you see 3-back (i.e. the same letter as the one that appeared 3 letters ago.),r,None,,,,,0,3,3,3,0,9,9,9,,,,,,,,,,,,,,,,,,,,,,,,,,,,,,,,,,,,,,,,,,,2.015,348.6155349,None,350.6331265,None,None,1,350.6331265,None,352.6394591,None,,,,,,,,,,,,,,,,,,,,,,,,,,,,,,,,P045,FENCOG,1,Post,2022_May_30_1153,N-Back (New Version 2021),2021.1.4,120.7741138
Conditions/Version_1Pr/threeback(1)_v1.xlsx,New rule: Press 'space' when you see 3-back (i.e. the same letter as the one that appeared 3 letters ago.),,,,,,,0,3,3,3,,,,,,,,,,,,,,,,,,,,,,,,,,,,,,,,,,,,,,,,,,,,,,,,,,,,,,,,,,,,,,,,,,,,,,,,,,,,,,,,,,,,,,,,,P045,FENCOG,1,Post,2022_May_30_1153,N-Back (New Version 2021),2021.1.4,120.7741138
,,,,,,,,,,,,,,,,,,,,,,,,,,,,,,,,,,,,,,,,,,,,,,,,,,,,,,,,,,,,,,,,,,,,,,354.14758,None,space,4.3150814,354.6390371,None,,,,,,,,,,,,,,,,,,,,,,,,,P045,FENCOG,1,Post,2022_May_30_1153,N-Back (New Version 2021),2021.1.4,120.7741138
,,,,,,,,,,,,,,,,,,,,,,,,,,,,,,,,,,,,,,,,,,,,,,,,,,,,,,,,,,,,,,,,,,,,,,,,,,,,358.9900379,None,space,3.9940851,359.4878508,None,,,,,,,,,,,,,,,,,,,P045,FENCOG,1,Post,2022_May_30_1153,N-Back (New Version 2021),2021.1.4,120.7741138
,,,,Conditions/Version_1/zeroback(1)_v1.xlsx,Rule: Press 'space' when you see the letter 'x' or 'X'.,b,None,,,,,,,,,0,0,0,0,0,0,0,0,,,,,,,,,,,,,,,,,,,,,,,,,,,,,,,,,,,,,,,,,,,,,,,,,,,,,,,,,,,363.6003697,None,366.5867734,None,space,0.8868414,366.5867734,None,363.6003697,None,1.4688,368.9776523,None,None,1,368.9776523,None,,P045,FENCOG,1,Post,2022_May_30_1153,N-Back (New Version 2021),2021.1.4,120.7741138
,,,,Conditions/Version_1/zeroback(1)_v1.xlsx,Rule: Press 'space' when you see the letter 'x' or 'X'.,T,None,,,,,,,,,0,0,0,0,0,1,1,1,,,,,,,,,,,,,,,,,,,,,,,,,,,,,,,,,,,,,,,,,,,,,,,,,,,,,,,,,,,,,,,,,,,,,1.2084,372.1936634,None,None,1,372.1936634,None,,P045,FENCOG,1,Post,2022_May_30_1153,N-Back (New Version 2021),2021.1.4,120.7741138
,,,,Conditions/Version_1/zeroback(1)_v1.xlsx,Rule: Press 'space' when you see the letter 'x' or 'X'.,L,None,,,,,,,,,0,0,0,0,0,2,2,2,,,,,,,,,,,,,,,,,,,,,,,,,,,,,,,,,,,,,,,,,,,,,,,,,,,,,,,,,,,,,,,,,,,,,1.2766,375.4836709,None,None,1,375.4836709,None,,P045,FENCOG,1,Post,2022_May_30_1153,N-Back (New Version 2021),2021.1.4,120.7741138
,,,,Conditions/Version_1/zeroback(1)_v1.xlsx,Rule: Press 'space' when you see the letter 'x' or 'X'.,x,space,,,,,,,,,0,0,0,0,0,3,3,3,,,,,,,,,,,,,,,,,,,,,,,,,,,,,,,,,,,,,,,,,,,,,,,,,,,,,,,,,,,,,,,,,,,,,1.5618,379.0563063,None,space,1,379.0563063,None,0.6895766,P045,FENCOG,1,Post,2022_May_30_1153,N-Back (New Version 2021),2021.1.4,120.7741138
,,,,Conditions/Version_1/zeroback(1)_v1.xlsx,Rule: Press 'space' when you see the letter 'x' or 'X'.,o,None,,,,,,,,,0,0,0,0,0,4,4,4,,,,,,,,,,,,,,,,,,,,,,,,,,,,,,,,,,,,,,,,,,,,,,,,,,,,,,,,,,,,,,,,,,,,,1.8718,382.9306228,None,None,1,382.9306228,None,,P045,FENCOG,1,Post,2022_May_30_1153,N-Back (New Version 2021),2021.1.4,120.7741138
,,,,Conditions/Version_1/zeroback(1)_v1.xlsx,Rule: Press 'space' when you see the letter 'x' or 'X'.,P,None,,,,,,,,,0,0,0,0,0,5,5,5,,,,,,,,,,,,,,,,,,,,,,,,,,,,,,,,,,,,,,,,,,,,,,,,,,,,,,,,,,,,,,,,,,,,,1.2704,386.2125899,None,None,1,386.2125899,None,,P045,FENCOG,1,Post,2022_May_30_1153,N-Back (New Version 2021),2021.1.4,120.7741138
,,,,Conditions/Version_1/zeroback(1)_v1.xlsx,Rule: Press 'space' when you see the letter 'x' or 'X'.,X,space,,,,,,,,,0,0,0,0,0,6,6,6,,,,,,,,,,,,,,,,,,,,,,,,,,,,,,,,,,,,,,,,,,,,,,,,,,,,,,,,,,,,,,,,,,,,,1.413,389.6282206,None,space,1,389.6282206,None,0.6777818,P045,FENCOG,1,Post,2022_May_30_1153,N-Back (New Version 2021),2021.1.4,120.7741138
,,,,Conditions/Version_1/zeroback(1)_v1.xlsx,Rule: Press 'space' when you see the letter 'x' or 'X'.,n,None,,,,,,,,,0,0,0,0,0,7,7,7,,,,,,,,,,,,,,,,,,,,,,,,,,,,,,,,,,,,,,,,,,,,,,,,,,,,,,,,,,,,,,,,,,,,,1.9772,393.6157113,None,None,1,393.6157113,None,,P045,FENCOG,1,Post,2022_May_30_1153,N-Back (New Version 2021),2021.1.4,120.7741138
,,,,Conditions/Version_1/zeroback(1)_v1.xlsx,Rule: Press 'space' when you see the letter 'x' or 'X'.,M,None,,,,,,,,,0,0,0,0,0,8,8,8,,,,,,,,,,,,,,,,,,,,,,,,,,,,,,,,,,,,,,,,,,,,,,,,,,,,,,,,,,,,,,,,,,,,,1.4626,397.0880718,None,None,1,397.0880718,None,,P045,FENCOG,1,Post,2022_May_30_1153,N-Back (New Version 2021),2021.1.4,120.7741138
,,,,Conditions/Version_1/zeroback(1)_v1.xlsx,Rule: Press 'space' when you see the letter 'x' or 'X'.,a,None,,,,,,,,,0,0,0,0,0,9,9,9,,,,,,,,,,,,,,,,,,,,,,,,,,,,,,,,,,,,,,,,,,,,,,,,,,,,,,,,,,,,,,,,,,,,,1.0658,400.1606172,None,None,1,400.1606172,None,,P045,FENCOG,1,Post,2022_May_30_1153,N-Back (New Version 2021),2021.1.4,120.7741138
,,,,Conditions/Version_1/zeroback(1)_v1.xlsx,Rule: Press 'space' when you see the letter 'x' or 'X'.,,,,,,,,,,,0,0,0,0,,,,,,,,,,,,,,,,,,,,,,,,,,,,,,,,,,,,,,,,,,,,,,,,,,,,,,,,,,,,,,,,,,,,,,,,,,,,,,,,,P045,FENCOG,1,Post,2022_May_30_1153,N-Back (New Version 2021),2021.1.4,120.7741138
,,,,Conditions/Version_1/oneback(1)_v1.xlsx,New rule: Press 'space' when you see 1-back (i.e. the same letter as the one that appeared 1 letter ago.),b,None,,,,,,,,,0,1,1,1,0,0,0,0,,,,,,,,,,,,,,,,,,,,,,,,,,,,,,,,,,,,,,,,,,,,,,,,,,,,,,,,,,,402.1881177,None,405.1761721,None,space,0.9538409,405.1761721,None,402.1881177,None,1.7788,407.9500988,None,None,1,407.9500988,None,,P045,FENCOG,1,Post,2022_May_30_1153,N-Back (New Version 2021),2021.1.4,120.7741138
,,,,Conditions/Version_1/oneback(1)_v1.xlsx,New rule: Press 'space' when you see 1-back (i.e. the same letter as the one that appeared 1 letter ago.),p,None,,,,,,,,,0,1,1,1,0,1,1,1,,,,,,,,,,,,,,,,,,,,,,,,,,,,,,,,,,,,,,,,,,,,,,,,,,,,,,,,,,,,,,,,,,,,,1.2642,411.2220234,None,None,1,411.2220234,None,,P045,FENCOG,1,Post,2022_May_30_1153,N-Back (New Version 2021),2021.1.4,120.7741138
,,,,Conditions/Version_1/oneback(1)_v1.xlsx,New rule: Press 'space' when you see 1-back (i.e. the same letter as the one that appeared 1 letter ago.),M,None,,,,,,,,,0,1,1,1,0,2,2,2,,,,,,,,,,,,,,,,,,,,,,,,,,,,,,,,,,,,,,,,,,,,,,,,,,,,,,,,,,,,,,,,,,,,,1.6672,414.8876023,None,None,1,414.8876023,None,,P045,FENCOG,1,Post,2022_May_30_1153,N-Back (New Version 2021),2021.1.4,120.7741138
,,,,Conditions/Version_1/oneback(1)_v1.xlsx,New rule: Press 'space' when you see 1-back (i.e. the same letter as the one that appeared 1 letter ago.),M,space,,,,,,,,,0,1,1,1,0,3,3,3,,,,,,,,,,,,,,,,,,,,,,,,,,,,,,,,,,,,,,,,,,,,,,,,,,,,,,,,,,,,,,,,,,,,,1.4378,418.3283053,None,space,1,418.3283053,None,0.8576101,P045,FENCOG,1,Post,2022_May_30_1153,N-Back (New Version 2021),2021.1.4,120.7741138
,,,,Conditions/Version_1/oneback(1)_v1.xlsx,New rule: Press 'space' when you see 1-back (i.e. the same letter as the one that appeared 1 letter ago.),n,None,,,,,,,,,0,1,1,1,0,4,4,4,,,,,,,,,,,,,,,,,,,,,,,,,,,,,,,,,,,,,,,,,,,,,,,,,,,,,,,,,,,,,,,,,,,,,1.7974,422.1269127,None,None,1,422.1269127,None,,P045,FENCOG,1,Post,2022_May_30_1153,N-Back (New Version 2021),2021.1.4,120.7741138
,,,,Conditions/Version_1/oneback(1)_v1.xlsx,New rule: Press 'space' when you see 1-back (i.e. the same letter as the one that appeared 1 letter ago.),g,None,,,,,,,,,0,1,1,1,0,5,5,5,,,,,,,,,,,,,,,,,,,,,,,,,,,,,,,,,,,,,,,,,,,,,,,,,,,,,,,,,,,,,,,,,,,,,1.2146,425.3437038,None,None,1,425.3437038,None,,P045,FENCOG,1,Post,2022_May_30_1153,N-Back (New Version 2021),2021.1.4,120.7741138
,,,,Conditions/Version_1/oneback(1)_v1.xlsx,New rule: Press 'space' when you see 1-back (i.e. the same letter as the one that appeared 1 letter ago.),P,None,,,,,,,,,0,1,1,1,0,6,6,6,,,,,,,,,,,,,,,,,,,,,,,,,,,,,,,,,,,,,,,,,,,,,,,,,,,,,,,,,,,,,,,,,,,,,1.1898,428.5417209,None,None,1,428.5417209,None,,P045,FENCOG,1,Post,2022_May_30_1153,N-Back (New Version 2021),2021.1.4,120.7741138
,,,,Conditions/Version_1/oneback(1)_v1.xlsx,New rule: Press 'space' when you see 1-back (i.e. the same letter as the one that appeared 1 letter ago.),o,None,,,,,,,,,0,1,1,1,0,7,7,7,,,,,,,,,,,,,,,,,,,,,,,,,,,,,,,,,,,,,,,,,,,,,,,,,,,,,,,,,,,,,,,,,,,,,1.661,432.2086192,None,None,1,432.2086192,None,,P045,FENCOG,1,Post,2022_May_30_1153,N-Back (New Version 2021),2021.1.4,120.7741138
,,,,Conditions/Version_1/oneback(1)_v1.xlsx,New rule: Press 'space' when you see 1-back (i.e. the same letter as the one that appeared 1 letter ago.),f,None,,,,,,,,,0,1,1,1,0,8,8,8,,,,,,,,,,,,,,,,,,,,,,,,,,,,,,,,,,,,,,,,,,,,,,,,,,,,,,,,,,,,,,,,,,,,,1.0286,435.2498759,None,None,1,435.2498759,None,,P045,FENCOG,1,Post,2022_May_30_1153,N-Back (New Version 2021),2021.1.4,120.7741138
,,,,Conditions/Version_1/oneback(1)_v1.xlsx,New rule: Press 'space' when you see 1-back (i.e. the same letter as the one that appeared 1 letter ago.),F,space,,,,,,,,,0,1,1,1,0,9,9,9,,,,,,,,,,,,,,,,,,,,,,,,,,,,,,,,,,,,,,,,,,,,,,,,,,,,,,,,,,,,,,,,,,,,,1.2332,438.4906144,None,space,1,438.4906144,None,1.3270205,P045,FENCOG,1,Post,2022_May_30_1153,N-Back (New Version 2021),2021.1.4,120.7741138
,,,,Conditions/Version_1/oneback(1)_v1.xlsx,New rule: Press 'space' when you see 1-back (i.e. the same letter as the one that appeared 1 letter ago.),,,,,,,,,,,0,1,1,1,,,,,,,,,,,,,,,,,,,,,,,,,,,,,,,,,,,,,,,,,,,,,,,,,,,,,,,,,,,,,,,,,,,,,,,,,,,,,,,,,P045,FENCOG,1,Post,2022_May_30_1153,N-Back (New Version 2021),2021.1.4,120.7741138
,,,,Conditions/Version_1/twoback(1)_v1.xlsx,New rule: Press 'space' when you see 2-back (i.e. the same letter as the one that appeared 2 letters ago.),b,None,,,,,,,,,0,2,2,2,0,0,0,0,,,,,,,,,,,,,,,,,,,,,,,,,,,,,,,,,,,,,,,,,,,,,,,,,,,,,,,,,,,440.5194117,None,443.5063641,None,space,1.7115622,443.5063641,None,440.5194117,None,1.1898,446.4529264,None,None,1,446.4529264,None,,P045,FENCOG,1,Post,2022_May_30_1153,N-Back (New Version 2021),2021.1.4,120.7741138
,,,,Conditions/Version_1/twoback(1)_v1.xlsx,New rule: Press 'space' when you see 2-back (i.e. the same letter as the one that appeared 2 letters ago.),h,None,,,,,,,,,0,2,2,2,0,1,1,1,,,,,,,,,,,,,,,,,,,,,,,,,,,,,,,,,,,,,,,,,,,,,,,,,,,,,,,,,,,,,,,,,,,,,1.5308,449.986478,None,None,1,449.986478,None,,P045,FENCOG,1,Post,2022_May_30_1153,N-Back (New Version 2021),2021.1.4,120.7741138
,,,,Conditions/Version_1/twoback(1)_v1.xlsx,New rule: Press 'space' when you see 2-back (i.e. the same letter as the one that appeared 2 letters ago.),j,None,,,,,,,,,0,2,2,2,0,2,2,2,,,,,,,,,,,,,,,,,,,,,,,,,,,,,,,,,,,,,,,,,,,,,,,,,,,,,,,,,,,,,,,,,,,,,1.7416,453.7374072,None,None,1,453.7374072,None,,P045,FENCOG,1,Post,2022_May_30_1153,N-Back (New Version 2021),2021.1.4,120.7741138
,,,,Conditions/Version_1/twoback(1)_v1.xlsx,New rule: Press 'space' when you see 2-back (i.e. the same letter as the one that appeared 2 letters ago.),H,space,,,,,,,,,0,2,2,2,0,3,3,3,,,,,,,,,,,,,,,,,,,,,,,,,,,,,,,,,,,,,,,,,,,,,,,,,,,,,,,,,,,,,,,,,,,,,1.7168,457.4611428,None,space,1,457.4611428,None,0.9006256,P045,FENCOG,1,Post,2022_May_30_1153,N-Back (New Version 2021),2021.1.4,120.7741138
,,,,Conditions/Version_1/twoback(1)_v1.xlsx,New rule: Press 'space' when you see 2-back (i.e. the same letter as the one that appeared 2 letters ago.),p,None,,,,,,,,,0,2,2,2,0,4,4,4,,,,,,,,,,,,,,,,,,,,,,,,,,,,,,,,,,,,,,,,,,,,,,,,,,,,,,,,,,,,,,,,,,,,,1.8532,461.3237612,None,None,1,461.3237612,None,,P045,FENCOG,1,Post,2022_May_30_1153,N-Back (New Version 2021),2021.1.4,120.7741138
,,,,Conditions/Version_1/twoback(1)_v1.xlsx,New rule: Press 'space' when you see 2-back (i.e. the same letter as the one that appeared 2 letters ago.),p,None,,,,,,,,,0,2,2,2,0,5,5,5,,,,,,,,,,,,,,,,,,,,,,,,,,,,,,,,,,,,,,,,,,,,,,,,,,,,,,,,,,,,,,,,,,,,,1.289,464.6146215,None,None,1,464.6146215,None,,P045,FENCOG,1,Post,2022_May_30_1153,N-Back (New Version 2021),2021.1.4,120.7741138
,,,,Conditions/Version_1/twoback(1)_v1.xlsx,New rule: Press 'space' when you see 2-back (i.e. the same letter as the one that appeared 2 letters ago.),w,None,,,,,,,,,0,2,2,2,0,6,6,6,,,,,,,,,,,,,,,,,,,,,,,,,,,,,,,,,,,,,,,,,,,,,,,,,,,,,,,,,,,,,,,,,,,,,1.692,468.3049913,None,None,1,468.3049913,None,,P045,FENCOG,1,Post,2022_May_30_1153,N-Back (New Version 2021),2021.1.4,120.7741138
,,,,Conditions/Version_1/twoback(1)_v1.xlsx,New rule: Press 'space' when you see 2-back (i.e. the same letter as the one that appeared 2 letters ago.),R,None,,,,,,,,,0,2,2,2,0,7,7,7,,,,,,,,,,,,,,,,,,,,,,,,,,,,,,,,,,,,,,,,,,,,,,,,,,,,,,,,,,,,,,,,,,,,,1.2084,471.5133565,None,None,1,471.5133565,None,,P045,FENCOG,1,Post,2022_May_30_1153,N-Back (New Version 2021),2021.1.4,120.7741138
,,,,Conditions/Version_1/twoback(1)_v1.xlsx,New rule: Press 'space' when you see 2-back (i.e. the same letter as the one that appeared 2 letters ago.),a,None,,,,,,,,,0,2,2,2,0,8,8,8,,,,,,,,,,,,,,,,,,,,,,,,,,,,,,,,,,,,,,,,,,,,,,,,,,,,,,,,,,,,,,,,,,,,,1.8966,475.4206341,None,None,1,475.4206341,None,,P045,FENCOG,1,Post,2022_May_30_1153,N-Back (New Version 2021),2021.1.4,120.7741138
,,,,Conditions/Version_1/twoback(1)_v1.xlsx,New rule: Press 'space' when you see 2-back (i.e. the same letter as the one that appeared 2 letters ago.),r,space,,,,,,,,,0,2,2,2,0,9,9,9,,,,,,,,,,,,,,,,,,,,,,,,,,,,,,,,,,,,,,,,,,,,,,,,,,,,,,,,,,,,,,,,,,,,,1.8718,479.3017129,None,space,1,479.3017129,None,0.8121213,P045,FENCOG,1,Post,2022_May_30_1153,N-Back (New Version 2021),2021.1.4,120.7741138
,,,,Conditions/Version_1/twoback(1)_v1.xlsx,New rule: Press 'space' when you see 2-back (i.e. the same letter as the one that appeared 2 letters ago.),,,,,,,,,,,0,2,2,2,,,,,,,,,,,,,,,,,,,,,,,,,,,,,,,,,,,,,,,,,,,,,,,,,,,,,,,,,,,,,,,,,,,,,,,,,,,,,,,,,P045,FENCOG,1,Post,2022_May_30_1153,N-Back (New Version 2021),2021.1.4,120.7741138
,,,,Conditions/Version_1/threeback(1)_v1.xlsx,New rule: Press 'space' when you see 3-back (i.e. the same letter as the one that appeared 3 letters ago.),r,None,,,,,,,,,0,3,3,3,0,0,0,0,,,,,,,,,,,,,,,,,,,,,,,,,,,,,,,,,,,,,,,,,,,,,,,,,,,,,,,,,,,481.3266308,None,484.3110463,None,space,1.3787059,484.3110463,None,481.3266308,None,1.3696,487.0996566,None,None,1,487.0996566,None,,P045,FENCOG,1,Post,2022_May_30_1153,N-Back (New Version 2021),2021.1.4,120.7741138
,,,,Conditions/Version_1/threeback(1)_v1.xlsx,New rule: Press 'space' when you see 3-back (i.e. the same letter as the one that appeared 3 letters ago.),o,None,,,,,,,,,0,3,3,3,0,1,1,1,,,,,,,,,,,,,,,,,,,,,,,,,,,,,,,,,,,,,,,,,,,,,,,,,,,,,,,,,,,,,,,,,,,,,1.847,490.959184,None,None,1,490.959184,None,,P045,FENCOG,1,Post,2022_May_30_1153,N-Back (New Version 2021),2021.1.4,120.7741138
,,,,Conditions/Version_1/threeback(1)_v1.xlsx,New rule: Press 'space' when you see 3-back (i.e. the same letter as the one that appeared 3 letters ago.),P,None,,,,,,,,,0,3,3,3,0,2,2,2,,,,,,,,,,,,,,,,,,,,,,,,,,,,,,,,,,,,,,,,,,,,,,,,,,,,,,,,,,,,,,,,,,,,,1.9462,494.9147751,None,None,1,494.9147751,None,,P045,FENCOG,1,Post,2022_May_30_1153,N-Back (New Version 2021),2021.1.4,120.7741138
,,,,Conditions/Version_1/threeback(1)_v1.xlsx,New rule: Press 'space' when you see 3-back (i.e. the same letter as the one that appeared 3 letters ago.),R,space,,,,,,,,,0,3,3,3,0,3,3,3,,,,,,,,,,,,,,,,,,,,,,,,,,,,,,,,,,,,,,,,,,,,,,,,,,,,,,,,,,,,,,,,,,,,,1.3138,498.2378007,None,space,1,498.2378007,None,1.3079435,P045,FENCOG,1,Post,2022_May_30_1153,N-Back (New Version 2021),2021.1.4,120.7741138
,,,,Conditions/Version_1/threeback(1)_v1.xlsx,New rule: Press 'space' when you see 3-back (i.e. the same letter as the one that appeared 3 letters ago.),p,None,,,,,,,,,0,3,3,3,0,4,4,4,,,,,,,,,,,,,,,,,,,,,,,,,,,,,,,,,,,,,,,,,,,,,,,,,,,,,,,,,,,,,,,,,,,,,1.2766,501.5201428,None,None,1,501.5201428,None,,P045,FENCOG,1,Post,2022_May_30_1153,N-Back (New Version 2021),2021.1.4,120.7741138
,,,,Conditions/Version_1/threeback(1)_v1.xlsx,New rule: Press 'space' when you see 3-back (i.e. the same letter as the one that appeared 3 letters ago.),E,None,,,,,,,,,0,3,3,3,0,5,5,5,,,,,,,,,,,,,,,,,,,,,,,,,,,,,,,,,,,,,,,,,,,,,,,,,,,,,,,,,,,,,,,,,,,,,1.7726,505.2951813,None,None,1,505.2951813,None,,P045,FENCOG,1,Post,2022_May_30_1153,N-Back (New Version 2021),2021.1.4,120.7741138
,,,,Conditions/Version_1/threeback(1)_v1.xlsx,New rule: Press 'space' when you see 3-back (i.e. the same letter as the one that appeared 3 letters ago.),e,None,,,,,,,,,0,3,3,3,0,6,6,6,,,,,,,,,,,,,,,,,,,,,,,,,,,,,,,,,,,,,,,,,,,,,,,,,,,,,,,,,,,,,,,,,,,,,1.5122,508.8180068,None,None,1,508.8180068,None,,P045,FENCOG,1,Post,2022_May_30_1153,N-Back (New Version 2021),2021.1.4,120.7741138
,,,,Conditions/Version_1/threeback(1)_v1.xlsx,New rule: Press 'space' when you see 3-back (i.e. the same letter as the one that appeared 3 letters ago.),m,None,,,,,,,,,0,3,3,3,0,7,7,7,,,,,,,,,,,,,,,,,,,,,,,,,,,,,,,,,,,,,,,,,,,,,,,,,,,,,,,,,,,,,,,,,,,,,1.692,512.5193032,None,None,1,512.5193032,None,,P045,FENCOG,1,Post,2022_May_30_1153,N-Back (New Version 2021),2021.1.4,120.7741138
,,,,Conditions/Version_1/threeback(1)_v1.xlsx,New rule: Press 'space' when you see 3-back (i.e. the same letter as the one that appeared 3 letters ago.),n,None,,,,,,,,,0,3,3,3,0,8,8,8,,,,,,,,,,,,,,,,,,,,,,,,,,,,,,,,,,,,,,,,,,,,,,,,,,,,,,,,,,,,,,,,,,,,,1.6176,516.1503795,None,None,1,516.1503795,None,,P045,FENCOG,1,Post,2022_May_30_1153,N-Back (New Version 2021),2021.1.4,120.7741138
,,,,Conditions/Version_1/threeback(1)_v1.xlsx,New rule: Press 'space' when you see 3-back (i.e. the same letter as the one that appeared 3 letters ago.),e,space,,,,,,,,,0,3,3,3,0,9,9,9,,,,,,,,,,,,,,,,,,,,,,,,,,,,,,,,,,,,,,,,,,,,,,,,,,,,,,,,,,,,,,,,,,,,,1.4812,519.6398687,None,space,1,519.6398687,None,1.1614859,P045,FENCOG,1,Post,2022_May_30_1153,N-Back (New Version 2021),2021.1.4,120.7741138
,,,,Conditions/Version_1/threeback(1)_v1.xlsx,New rule: Press 'space' when you see 3-back (i.e. the same letter as the one that appeared 3 letters ago.),,,,,,,,,,,0,3,3,3,,,,,,,,,,,,,,,,,,,,,,,,,,,,,,,,,,,,,,,,,,,,,,,,,,,,,,,,,,,,,,,,,,,,,,,,,,,,,,,,,P045,FENCOG,1,Post,2022_May_30_1153,N-Back (New Version 2021),2021.1.4,120.7741138
,,,,Conditions/Version_1/oneback(2)_v1.xlsx,New rule: Press 'space' when you see 1-back (i.e. the same letter as the one that appeared 1 letter ago.),q,None,,,,,,,,,0,4,4,4,0,0,0,0,,,,,,,,,,,,,,,,,,,,,,,,,,,,,,,,,,,,,,,,,,,,,,,,,,,,,,,,,,,521.6589277,None,524.6479987,None,space,1.5776119,524.6479987,None,521.6589277,None,1.8408,528.0954488,None,None,1,528.0954488,None,,P045,FENCOG,1,Post,2022_May_30_1153,N-Back (New Version 2021),2021.1.4,120.7741138
,,,,Conditions/Version_1/oneback(2)_v1.xlsx,New rule: Press 'space' when you see 1-back (i.e. the same letter as the one that appeared 1 letter ago.),Q,space,,,,,,,,,0,4,4,4,0,1,1,1,,,,,,,,,,,,,,,,,,,,,,,,,,,,,,,,,,,,,,,,,,,,,,,,,,,,,,,,,,,,,,,,,,,,,1.0782,531.1780777,None,space,1,531.1780777,None,0.9592921,P045,FENCOG,1,Post,2022_May_30_1153,N-Back (New Version 2021),2021.1.4,120.7741138
,,,,Conditions/Version_1/oneback(2)_v1.xlsx,New rule: Press 'space' when you see 1-back (i.e. the same letter as the one that appeared 1 letter ago.),P,None,,,,,,,,,0,4,4,4,0,2,2,2,,,,,,,,,,,,,,,,,,,,,,,,,,,,,,,,,,,,,,,,,,,,,,,,,,,,,,,,,,,,,,,,,,,,,1.4502,534.6267876,None,None,1,534.6267876,None,,P045,FENCOG,1,Post,2022_May_30_1153,N-Back (New Version 2021),2021.1.4,120.7741138
,,,,Conditions/Version_1/oneback(2)_v1.xlsx,New rule: Press 'space' when you see 1-back (i.e. the same letter as the one that appeared 1 letter ago.),o,None,,,,,,,,,0,4,4,4,0,3,3,3,,,,,,,,,,,,,,,,,,,,,,,,,,,,,,,,,,,,,,,,,,,,,,,,,,,,,,,,,,,,,,,,,,,,,1.3696,538.0007912,None,None,1,538.0007912,None,,P045,FENCOG,1,Post,2022_May_30_1153,N-Back (New Version 2021),2021.1.4,120.7741138
,,,,Conditions/Version_1/oneback(2)_v1.xlsx,New rule: Press 'space' when you see 1-back (i.e. the same letter as the one that appeared 1 letter ago.),m,None,,,,,,,,,0,4,4,4,0,4,4,4,,,,,,,,,,,,,,,,,,,,,,,,,,,,,,,,,,,,,,,,,,,,,,,,,,,,,,,,,,,,,,,,,,,,,1.8656,541.8664091,None,None,1,541.8664091,None,,P045,FENCOG,1,Post,2022_May_30_1153,N-Back (New Version 2021),2021.1.4,120.7741138
,,,,Conditions/Version_1/oneback(2)_v1.xlsx,New rule: Press 'space' when you see 1-back (i.e. the same letter as the one that appeared 1 letter ago.),Z,None,,,,,,,,,0,4,4,4,0,5,5,5,,,,,,,,,,,,,,,,,,,,,,,,,,,,,,,,,,,,,,,,,,,,,,,,,,,,,,,,,,,,,,,,,,,,,1.9214,545.790166,None,None,1,545.790166,None,,P045,FENCOG,1,Post,2022_May_30_1153,N-Back (New Version 2021),2021.1.4,120.7741138
,,,,Conditions/Version_1/oneback(2)_v1.xlsx,New rule: Press 'space' when you see 1-back (i.e. the same letter as the one that appeared 1 letter ago.),c,None,,,,,,,,,0,4,4,4,0,6,6,6,,,,,,,,,,,,,,,,,,,,,,,,,,,,,,,,,,,,,,,,,,,,,,,,,,,,,,,,,,,,,,,,,,,,,1.754,549.5475076,None,None,1,549.5475076,None,,P045,FENCOG,1,Post,2022_May_30_1153,N-Back (New Version 2021),2021.1.4,120.7741138
,,,,Conditions/Version_1/oneback(2)_v1.xlsx,New rule: Press 'space' when you see 1-back (i.e. the same letter as the one that appeared 1 letter ago.),c,space,,,,,,,,,0,4,4,4,0,7,7,7,,,,,,,,,,,,,,,,,,,,,,,,,,,,,,,,,,,,,,,,,,,,,,,,,,,,,,,,,,,,,,,,,,,,,1.8284,553.3796023,None,space,1,553.3796023,None,1.0297816,P045,FENCOG,1,Post,2022_May_30_1153,N-Back (New Version 2021),2021.1.4,120.7741138
,,,,Conditions/Version_1/oneback(2)_v1.xlsx,New rule: Press 'space' when you see 1-back (i.e. the same letter as the one that appeared 1 letter ago.),P,None,,,,,,,,,0,4,4,4,0,8,8,8,,,,,,,,,,,,,,,,,,,,,,,,,,,,,,,,,,,,,,,,,,,,,,,,,,,,,,,,,,,,,,,,,,,,,1.1526,556.5372725,None,None,1,556.5372725,None,,P045,FENCOG,1,Post,2022_May_30_1153,N-Back (New Version 2021),2021.1.4,120.7741138
,,,,Conditions/Version_1/oneback(2)_v1.xlsx,New rule: Press 'space' when you see 1-back (i.e. the same letter as the one that appeared 1 letter ago.),p,space,,,,,,,,,0,4,4,4,0,9,9,9,,,,,,,,,,,,,,,,,,,,,,,,,,,,,,,,,,,,,,,,,,,,,,,,,,,,,,,,,,,,,,,,,,,,,1.3944,559.9361585,None,space,1,559.9361585,None,1.3696202,P045,FENCOG,1,Post,2022_May_30_1153,N-Back (New Version 2021),2021.1.4,120.7741138
,,,,Conditions/Version_1/oneback(2)_v1.xlsx,New rule: Press 'space' when you see 1-back (i.e. the same letter as the one that appeared 1 letter ago.),,,,,,,,,,,0,4,4,4,,,,,,,,,,,,,,,,,,,,,,,,,,,,,,,,,,,,,,,,,,,,,,,,,,,,,,,,,,,,,,,,,,,,,,,,,,,,,,,,,P045,FENCOG,1,Post,2022_May_30_1153,N-Back (New Version 2021),2021.1.4,120.7741138
,,,,Conditions/Version_1/zeroback(2)_v1.xlsx,New rule: Press 'space' when you see the letter 'x' or 'X'.,p,None,,,,,,,,,0,5,5,5,0,0,0,0,,,,,,,,,,,,,,,,,,,,,,,,,,,,,,,,,,,,,,,,,,,,,,,,,,,,,,,,,,,561.9541785,None,564.9454208,None,space,0.5123396,564.9454208,None,561.9541785,None,1.165,566.659489,None,None,1,566.659489,None,,P045,FENCOG,1,Post,2022_May_30_1153,N-Back (New Version 2021),2021.1.4,120.7741138
,,,,Conditions/Version_1/zeroback(2)_v1.xlsx,New rule: Press 'space' when you see the letter 'x' or 'X'.,L,None,,,,,,,,,0,5,5,5,0,1,1,1,,,,,,,,,,,,,,,,,,,,,,,,,,,,,,,,,,,,,,,,,,,,,,,,,,,,,,,,,,,,,,,,,,,,,1.599,570.2581783,None,None,1,570.2581783,None,,P045,FENCOG,1,Post,2022_May_30_1153,N-Back (New Version 2021),2021.1.4,120.7741138
,,,,Conditions/Version_1/zeroback(2)_v1.xlsx,New rule: Press 'space' when you see the letter 'x' or 'X'.,G,None,,,,,,,,,0,5,5,5,0,2,2,2,,,,,,,,,,,,,,,,,,,,,,,,,,,,,,,,,,,,,,,,,,,,,,,,,,,,,,,,,,,,,,,,,,,,,1.258,573.5155708,None,None,1,573.5155708,None,,P045,FENCOG,1,Post,2022_May_30_1153,N-Back (New Version 2021),2021.1.4,120.7741138
,,,,Conditions/Version_1/zeroback(2)_v1.xlsx,New rule: Press 'space' when you see the letter 'x' or 'X'.,y,None,,,,,,,,,0,5,5,5,0,3,3,3,,,,,,,,,,,,,,,,,,,,,,,,,,,,,,,,,,,,,,,,,,,,,,,,,,,,,,,,,,,,,,,,,,,,,1.4688,576.9963669,None,None,1,576.9963669,None,,P045,FENCOG,1,Post,2022_May_30_1153,N-Back (New Version 2021),2021.1.4,120.7741138
,,,,Conditions/Version_1/zeroback(2)_v1.xlsx,New rule: Press 'space' when you see the letter 'x' or 'X'.,Y,None,,,,,,,,,0,5,5,5,0,4,4,4,,,,,,,,,,,,,,,,,,,,,,,,,,,,,,,,,,,,,,,,,,,,,,,,,,,,,,,,,,,,,,,,,,,,,1.5866,580.5896019,None,None,1,580.5896019,None,,P045,FENCOG,1,Post,2022_May_30_1153,N-Back (New Version 2021),2021.1.4,120.7741138
,,,,Conditions/Version_1/zeroback(2)_v1.xlsx,New rule: Press 'space' when you see the letter 'x' or 'X'.,W,None,,,,,,,,,0,5,5,5,0,5,5,5,,,,,,,,,,,,,,,,,,,,,,,,,,,,,,,,,,,,,,,,,,,,,,,,,,,,,,,,,,,,,,,,,,,,,1.878,584.4819343,None,None,1,584.4819343,None,,P045,FENCOG,1,Post,2022_May_30_1153,N-Back (New Version 2021),2021.1.4,120.7741138
,,,,Conditions/Version_1/zeroback(2)_v1.xlsx,New rule: Press 'space' when you see the letter 'x' or 'X'.,x,space,,,,,,,,,0,5,5,5,0,6,6,6,,,,,,,,,,,,,,,,,,,,,,,,,,,,,,,,,,,,,,,,,,,,,,,,,,,,,,,,,,,,,,,,,,,,,1.3882,587.8800338,None,space,1,587.8800338,None,0.6897072,P045,FENCOG,1,Post,2022_May_30_1153,N-Back (New Version 2021),2021.1.4,120.7741138
,,,,Conditions/Version_1/zeroback(2)_v1.xlsx,New rule: Press 'space' when you see the letter 'x' or 'X'.,X,space,,,,,,,,,0,5,5,5,0,7,7,7,,,,,,,,,,,,,,,,,,,,,,,,,,,,,,,,,,,,,,,,,,,,,,,,,,,,,,,,,,,,,,,,,,,,,1.9586,591.843319,None,space,1,591.843319,None,0.7985409,P045,FENCOG,1,Post,2022_May_30_1153,N-Back (New Version 2021),2021.1.4,120.7741138
,,,,Conditions/Version_1/zeroback(2)_v1.xlsx,New rule: Press 'space' when you see the letter 'x' or 'X'.,p,None,,,,,,,,,0,5,5,5,0,8,8,8,,,,,,,,,,,,,,,,,,,,,,,,,,,,,,,,,,,,,,,,,,,,,,,,,,,,,,,,,,,,,,,,,,,,,1.2952,595.1449754,None,None,1,595.1449754,None,,P045,FENCOG,1,Post,2022_May_30_1153,N-Back (New Version 2021),2021.1.4,120.7741138
,,,,Conditions/Version_1/zeroback(2)_v1.xlsx,New rule: Press 'space' when you see the letter 'x' or 'X'.,h,None,,,,,,,,,0,5,5,5,0,9,9,9,,,,,,,,,,,,,,,,,,,,,,,,,,,,,,,,,,,,,,,,,,,,,,,,,,,,,,,,,,,,,,,,,,,,,1.6238,598.7831986,None,None,1,598.7831986,None,,P045,FENCOG,1,Post,2022_May_30_1153,N-Back (New Version 2021),2021.1.4,120.7741138
,,,,Conditions/Version_1/zeroback(2)_v1.xlsx,New rule: Press 'space' when you see the letter 'x' or 'X'.,,,,,,,,,,,0,5,5,5,,,,,,,,,,,,,,,,,,,,,,,,,,,,,,,,,,,,,,,,,,,,,,,,,,,,,,,,,,,,,,,,,,,,,,,,,,,,,,,,,P045,FENCOG,1,Post,2022_May_30_1153,N-Back (New Version 2021),2021.1.4,120.7741138
,,,,Conditions/Version_1/threeback(2)_v1.xlsx,New rule: Press 'space' when you see 3-back (i.e. the same letter as the one that appeared 3 letters ago.),q,None,,,,,,,,,0,6,6,6,0,0,0,0,,,,,,,,,,,,,,,,,,,,,,,,,,,,,,,,,,,,,,,,,,,,,,,,,,,,,,,,,,,600.809538,None,603.7920791,None,space,9.4895807,603.7920791,None,600.809538,None,1.1774,614.4954681,None,None,1,614.4954681,None,,P045,FENCOG,1,Post,2022_May_30_1153,N-Back (New Version 2021),2021.1.4,120.7741138
,,,,Conditions/Version_1/threeback(2)_v1.xlsx,New rule: Press 'space' when you see 3-back (i.e. the same letter as the one that appeared 3 letters ago.),Y,None,,,,,,,,,0,6,6,6,0,1,1,1,,,,,,,,,,,,,,,,,,,,,,,,,,,,,,,,,,,,,,,,,,,,,,,,,,,,,,,,,,,,,,,,,,,,,1.5494,618.0451393,None,None,1,618.0451393,None,,P045,FENCOG,1,Post,2022_May_30_1153,N-Back (New Version 2021),2021.1.4,120.7741138
,,,,Conditions/Version_1/threeback(2)_v1.xlsx,New rule: Press 'space' when you see 3-back (i.e. the same letter as the one that appeared 3 letters ago.),p,None,,,,,,,,,0,6,6,6,0,2,2,2,,,,,,,,,,,,,,,,,,,,,,,,,,,,,,,,,,,,,,,,,,,,,,,,,,,,,,,,,,,,,,,,,,,,,1.5556,621.6108307,None,None,1,621.6108307,None,,P045,FENCOG,1,Post,2022_May_30_1153,N-Back (New Version 2021),2021.1.4,120.7741138
,,,,Conditions/Version_1/threeback(2)_v1.xlsx,New rule: Press 'space' when you see 3-back (i.e. the same letter as the one that appeared 3 letters ago.),p,None,,,,,,,,,0,6,6,6,0,3,3,3,,,,,,,,,,,,,,,,,,,,,,,,,,,,,,,,,,,,,,,,,,,,,,,,,,,,,,,,,,,,,,,,,,,,,1.0658,624.6838003,None,None,1,624.6838003,None,,P045,FENCOG,1,Post,2022_May_30_1153,N-Back (New Version 2021),2021.1.4,120.7741138
,,,,Conditions/Version_1/threeback(2)_v1.xlsx,New rule: Press 'space' when you see 3-back (i.e. the same letter as the one that appeared 3 letters ago.),y,space,,,,,,,,,0,6,6,6,0,4,4,4,,,,,,,,,,,,,,,,,,,,,,,,,,,,,,,,,,,,,,,,,,,,,,,,,,,,,,,,,,,,,,,,,,,,,1.8718,628.5577183,None,space,1,628.5577183,None,1.1477889,P045,FENCOG,1,Post,2022_May_30_1153,N-Back (New Version 2021),2021.1.4,120.7741138
,,,,Conditions/Version_1/threeback(2)_v1.xlsx,New rule: Press 'space' when you see 3-back (i.e. the same letter as the one that appeared 3 letters ago.),u,None,,,,,,,,,0,6,6,6,0,5,5,5,,,,,,,,,,,,,,,,,,,,,,,,,,,,,,,,,,,,,,,,,,,,,,,,,,,,,,,,,,,,,,,,,,,,,1.0968,631.6588413,None,None,1,631.6588413,None,,P045,FENCOG,1,Post,2022_May_30_1153,N-Back (New Version 2021),2021.1.4,120.7741138
,,,,Conditions/Version_1/threeback(2)_v1.xlsx,New rule: Press 'space' when you see 3-back (i.e. the same letter as the one that appeared 3 letters ago.),P,space,,,,,,,,,0,6,6,6,0,6,6,6,,,,,,,,,,,,,,,,,,,,,,,,,,,,,,,,,,,,,,,,,,,,,,,,,,,,,,,,,,,,,,,,,,,,,1.971,635.6400366,None,None,0,635.6400366,None,,P045,FENCOG,1,Post,2022_May_30_1153,N-Back (New Version 2021),2021.1.4,120.7741138
,,,,Conditions/Version_1/threeback(2)_v1.xlsx,New rule: Press 'space' when you see 3-back (i.e. the same letter as the one that appeared 3 letters ago.),a,None,,,,,,,,,0,6,6,6,0,7,7,7,,,,,,,,,,,,,,,,,,,,,,,,,,,,,,,,,,,,,,,,,,,,,,,,,,,,,,,,,,,,,,,,,,,,,1.9958,639.6461156,None,None,1,639.6461156,None,,P045,FENCOG,1,Post,2022_May_30_1153,N-Back (New Version 2021),2021.1.4,120.7741138
,,,,Conditions/Version_1/threeback(2)_v1.xlsx,New rule: Press 'space' when you see 3-back (i.e. the same letter as the one that appeared 3 letters ago.),U,space,,,,,,,,,0,6,6,6,0,8,8,8,,,,,,,,,,,,,,,,,,,,,,,,,,,,,,,,,,,,,,,,,,,,,,,,,,,,,,,,,,,,,,,,,,,,,1.6114,643.2646096,None,space,1,643.2646096,None,1.5369197,P045,FENCOG,1,Post,2022_May_30_1153,N-Back (New Version 2021),2021.1.4,120.7741138
,,,,Conditions/Version_1/threeback(2)_v1.xlsx,New rule: Press 'space' when you see 3-back (i.e. the same letter as the one that appeared 3 letters ago.),q,None,,,,,,,,,0,6,6,6,0,9,9,9,,,,,,,,,,,,,,,,,,,,,,,,,,,,,,,,,,,,,,,,,,,,,,,,,,,,,,,,,,,,,,,,,,,,,1.0162,646.2857069,None,None,1,646.2857069,None,,P045,FENCOG,1,Post,2022_May_30_1153,N-Back (New Version 2021),2021.1.4,120.7741138
,,,,Conditions/Version_1/threeback(2)_v1.xlsx,New rule: Press 'space' when you see 3-back (i.e. the same letter as the one that appeared 3 letters ago.),,,,,,,,,,,0,6,6,6,,,,,,,,,,,,,,,,,,,,,,,,,,,,,,,,,,,,,,,,,,,,,,,,,,,,,,,,,,,,,,,,,,,,,,,,,,,,,,,,,P045,FENCOG,1,Post,2022_May_30_1153,N-Back (New Version 2021),2021.1.4,120.7741138
,,,,Conditions/Version_1/twoback(2)_v1.xlsx,New rule: Press 'space' when you see 2-back (i.e. the same letter as the one that appeared 2 letters ago.),q,None,,,,,,,,,0,7,7,7,0,0,0,0,,,,,,,,,,,,,,,,,,,,,,,,,,,,,,,,,,,,,,,,,,,,,,,,,,,,,,,,,,,648.3109166,None,651.2949633,None,space,1.5463998,651.2949633,None,648.3109166,None,1.3944,654.2751168,None,None,1,654.2751168,None,,P045,FENCOG,1,Post,2022_May_30_1153,N-Back (New Version 2021),2021.1.4,120.7741138
,,,,Conditions/Version_1/twoback(2)_v1.xlsx,New rule: Press 'space' when you see 2-back (i.e. the same letter as the one that appeared 2 letters ago.),r,None,,,,,,,,,0,7,7,7,0,1,1,1,,,,,,,,,,,,,,,,,,,,,,,,,,,,,,,,,,,,,,,,,,,,,,,,,,,,,,,,,,,,,,,,,,,,,1.9214,658.2047272,None,None,1,658.2047272,None,,P045,FENCOG,1,Post,2022_May_30_1153,N-Back (New Version 2021),2021.1.4,120.7741138
,,,,Conditions/Version_1/twoback(2)_v1.xlsx,New rule: Press 'space' when you see 2-back (i.e. the same letter as the one that appeared 2 letters ago.),q,space,,,,,,,,,0,7,7,7,0,2,2,2,,,,,,,,,,,,,,,,,,,,,,,,,,,,,,,,,,,,,,,,,,,,,,,,,,,,,,,,,,,,,,,,,,,,,1.0844,661.3000326,None,space,1,661.3000326,None,0.8294574,P045,FENCOG,1,Post,2022_May_30_1153,N-Back (New Version 2021),2021.1.4,120.7741138
,,,,Conditions/Version_1/twoback(2)_v1.xlsx,New rule: Press 'space' when you see 2-back (i.e. the same letter as the one that appeared 2 letters ago.),P,None,,,,,,,,,0,7,7,7,0,3,3,3,,,,,,,,,,,,,,,,,,,,,,,,,,,,,,,,,,,,,,,,,,,,,,,,,,,,,,,,,,,,,,,,,,,,,1.1092,664.4220874,None,None,1,664.4220874,None,,P045,FENCOG,1,Post,2022_May_30_1153,N-Back (New Version 2021),2021.1.4,120.7741138
,,,,Conditions/Version_1/twoback(2)_v1.xlsx,New rule: Press 'space' when you see 2-back (i.e. the same letter as the one that appeared 2 letters ago.),p,None,,,,,,,,,0,7,7,7,0,4,4,4,,,,,,,,,,,,,,,,,,,,,,,,,,,,,,,,,,,,,,,,,,,,,,,,,,,,,,,,,,,,,,,,,,,,,1.5432,667.976313,None,None,1,667.976313,None,,P045,FENCOG,1,Post,2022_May_30_1153,N-Back (New Version 2021),2021.1.4,120.7741138
,,,,Conditions/Version_1/twoback(2)_v1.xlsx,New rule: Press 'space' when you see 2-back (i.e. the same letter as the one that appeared 2 letters ago.),H,None,,,,,,,,,0,7,7,7,0,5,5,5,,,,,,,,,,,,,,,,,,,,,,,,,,,,,,,,,,,,,,,,,,,,,,,,,,,,,,,,,,,,,,,,,,,,,1.165,671.1460794,None,None,1,671.1460794,None,,P045,FENCOG,1,Post,2022_May_30_1153,N-Back (New Version 2021),2021.1.4,120.7741138
,,,,Conditions/Version_1/twoback(2)_v1.xlsx,New rule: Press 'space' when you see 2-back (i.e. the same letter as the one that appeared 2 letters ago.),g,None,,,,,,,,,0,7,7,7,0,6,6,6,,,,,,,,,,,,,,,,,,,,,,,,,,,,,,,,,,,,,,,,,,,,,,,,,,,,,,,,,,,,,,,,,,,,,1.6672,674.8194648,None,None,1,674.8194648,None,,P045,FENCOG,1,Post,2022_May_30_1153,N-Back (New Version 2021),2021.1.4,120.7741138
,,,,Conditions/Version_1/twoback(2)_v1.xlsx,New rule: Press 'space' when you see 2-back (i.e. the same letter as the one that appeared 2 letters ago.),j,None,,,,,,,,,0,7,7,7,0,7,7,7,,,,,,,,,,,,,,,,,,,,,,,,,,,,,,,,,,,,,,,,,,,,,,,,,,,,,,,,,,,,,,,,,,,,,1.4874,678.317902,None,None,1,678.317902,None,,P045,FENCOG,1,Post,2022_May_30_1153,N-Back (New Version 2021),2021.1.4,120.7741138
,,,,Conditions/Version_1/twoback(2)_v1.xlsx,New rule: Press 'space' when you see 2-back (i.e. the same letter as the one that appeared 2 letters ago.),g,space,,,,,,,,,0,7,7,7,0,8,8,8,,,,,,,,,,,,,,,,,,,,,,,,,,,,,,,,,,,,,,,,,,,,,,,,,,,,,,,,,,,,,,,,,,,,,1.5494,681.8687996,None,space,1,681.8687996,None,1.1487964,P045,FENCOG,1,Post,2022_May_30_1153,N-Back (New Version 2021),2021.1.4,120.7741138
,,,,Conditions/Version_1/twoback(2)_v1.xlsx,New rule: Press 'space' when you see 2-back (i.e. the same letter as the one that appeared 2 letters ago.),G,None,,,,,,,,,0,7,7,7,0,9,9,9,,,,,,,,,,,,,,,,,,,,,,,,,,,,,,,,,,,,,,,,,,,,,,,,,,,,,,,,,,,,,,,,,,,,,1.7912,685.6671796,None,None,1,685.6671796,None,,P045,FENCOG,1,Post,2022_May_30_1153,N-Back (New Version 2021),2021.1.4,120.7741138
,,,,Conditions/Version_1/twoback(2)_v1.xlsx,New rule: Press 'space' when you see 2-back (i.e. the same letter as the one that appeared 2 letters ago.),,,,,,,,,,,0,7,7,7,,,,,,,,,,,,,,,,,,,,,,,,,,,,,,,,,,,,,,,,,,,,,,,,,,,,,,,,,,,,,,,,,,,,,,,,,,,,,,,,,P045,FENCOG,1,Post,2022_May_30_1153,N-Back (New Version 2021),2021.1.4,120.7741138
,,,,Conditions/Version_1/threeback(3)_v1.xlsx,New rule: Press 'space' when you see 3-back (i.e. the same letter as the one that appeared 3 letters ago.),w,None,,,,,,,,,0,8,8,8,0,0,0,0,,,,,,,,,,,,,,,,,,,,,,,,,,,,,,,,,,,,,,,,,,,,,,,,,,,,,,,,,,,687.6942502,None,690.6827642,None,space,1.8145899,690.6827642,None,687.6942502,None,1.8036,694.3392477,None,None,1,694.3392477,None,,P045,FENCOG,1,Post,2022_May_30_1153,N-Back (New Version 2021),2021.1.4,120.7741138
,,,,Conditions/Version_1/threeback(3)_v1.xlsx,New rule: Press 'space' when you see 3-back (i.e. the same letter as the one that appeared 3 letters ago.),p,None,,,,,,,,,0,8,8,8,0,1,1,1,,,,,,,,,,,,,,,,,,,,,,,,,,,,,,,,,,,,,,,,,,,,,,,,,,,,,,,,,,,,,,,,,,,,,1.3386,697.6870357,None,None,1,697.6870357,None,,P045,FENCOG,1,Post,2022_May_30_1153,N-Back (New Version 2021),2021.1.4,120.7741138
,,,,Conditions/Version_1/threeback(3)_v1.xlsx,New rule: Press 'space' when you see 3-back (i.e. the same letter as the one that appeared 3 letters ago.),P,None,,,,,,,,,0,8,8,8,0,2,2,2,,,,,,,,,,,,,,,,,,,,,,,,,,,,,,,,,,,,,,,,,,,,,,,,,,,,,,,,,,,,,,,,,,,,,1.8842,701.5777601,None,None,1,701.5777601,None,,P045,FENCOG,1,Post,2022_May_30_1153,N-Back (New Version 2021),2021.1.4,120.7741138
,,,,Conditions/Version_1/threeback(3)_v1.xlsx,New rule: Press 'space' when you see 3-back (i.e. the same letter as the one that appeared 3 letters ago.),i,None,,,,,,,,,0,8,8,8,0,3,3,3,,,,,,,,,,,,,,,,,,,,,,,,,,,,,,,,,,,,,,,,,,,,,,,,,,,,,,,,,,,,,,,,,,,,,1.0534,704.6370518,None,None,1,704.6370518,None,,P045,FENCOG,1,Post,2022_May_30_1153,N-Back (New Version 2021),2021.1.4,120.7741138
,,,,Conditions/Version_1/threeback(3)_v1.xlsx,New rule: Press 'space' when you see 3-back (i.e. the same letter as the one that appeared 3 letters ago.),f,None,,,,,,,,,0,8,8,8,0,4,4,4,,,,,,,,,,,,,,,,,,,,,,,,,,,,,,,,,,,,,,,,,,,,,,,,,,,,,,,,,,,,,,,,,,,,,1.3634,708.0104762,None,None,1,708.0104762,None,,P045,FENCOG,1,Post,2022_May_30_1153,N-Back (New Version 2021),2021.1.4,120.7741138
,,,,Conditions/Version_1/threeback(3)_v1.xlsx,New rule: Press 'space' when you see 3-back (i.e. the same letter as the one that appeared 3 letters ago.),o,None,,,,,,,,,0,8,8,8,0,5,5,5,,,,,,,,,,,,,,,,,,,,,,,,,,,,,,,,,,,,,,,,,,,,,,,,,,,,,,,,,,,,,,,,,,,,,1.506,711.5249939,None,None,1,711.5249939,None,,P045,FENCOG,1,Post,2022_May_30_1153,N-Back (New Version 2021),2021.1.4,120.7741138
,,,,Conditions/Version_1/threeback(3)_v1.xlsx,New rule: Press 'space' when you see 3-back (i.e. the same letter as the one that appeared 3 letters ago.),w,None,,,,,,,,,0,8,8,8,0,6,6,6,,,,,,,,,,,,,,,,,,,,,,,,,,,,,,,,,,,,,,,,,,,,,,,,,,,,,,,,,,,,,,,,,,,,,1.4502,714.9750302,None,None,1,714.9750302,None,,P045,FENCOG,1,Post,2022_May_30_1153,N-Back (New Version 2021),2021.1.4,120.7741138
,,,,Conditions/Version_1/threeback(3)_v1.xlsx,New rule: Press 'space' when you see 3-back (i.e. the same letter as the one that appeared 3 letters ago.),F,space,,,,,,,,,0,8,8,8,0,7,7,7,,,,,,,,,,,,,,,,,,,,,,,,,,,,,,,,,,,,,,,,,,,,,,,,,,,,,,,,,,,,,,,,,,,,,1.6858,718.6726785,None,None,0,718.6726785,None,,P045,FENCOG,1,Post,2022_May_30_1153,N-Back (New Version 2021),2021.1.4,120.7741138
,,,,Conditions/Version_1/threeback(3)_v1.xlsx,New rule: Press 'space' when you see 3-back (i.e. the same letter as the one that appeared 3 letters ago.),p,None,,,,,,,,,0,8,8,8,0,8,8,8,,,,,,,,,,,,,,,,,,,,,,,,,,,,,,,,,,,,,,,,,,,,,,,,,,,,,,,,,,,,,,,,,,,,,1.8284,722.5055707,None,None,1,722.5055707,None,,P045,FENCOG,1,Post,2022_May_30_1153,N-Back (New Version 2021),2021.1.4,120.7741138
,,,,Conditions/Version_1/threeback(3)_v1.xlsx,New rule: Press 'space' when you see 3-back (i.e. the same letter as the one that appeared 3 letters ago.),W,space,,,,,,,,,0,8,8,8,0,9,9,9,,,,,,,,,,,,,,,,,,,,,,,,,,,,,,,,,,,,,,,,,,,,,,,,,,,,,,,,,,,,,,,,,,,,,1.9958,726.5121183,None,space,1,726.5121183,None,1.5373141,P045,FENCOG,1,Post,2022_May_30_1153,N-Back (New Version 2021),2021.1.4,120.7741138
,,,,Conditions/Version_1/threeback(3)_v1.xlsx,New rule: Press 'space' when you see 3-back (i.e. the same letter as the one that appeared 3 letters ago.),,,,,,,,,,,0,8,8,8,,,,,,,,,,,,,,,,,,,,,,,,,,,,,,,,,,,,,,,,,,,,,,,,,,,,,,,,,,,,,,,,,,,,,,,,,,,,,,,,,P045,FENCOG,1,Post,2022_May_30_1153,N-Back (New Version 2021),2021.1.4,120.7741138
,,,,Conditions/Version_1/zeroback(3)_v1.xlsx,New rule: Press 'space' when you see the letter 'x' or 'X'.,X,space,,,,,,,,,0,9,9,9,0,0,0,0,,,,,,,,,,,,,,,,,,,,,,,,,,,,,,,,,,,,,,,,,,,,,,,,,,,,,,,,,,,728.5329838,None,731.5201984,None,space,2.5133313,731.5201984,None,728.5329838,None,1.475,735.5448046,None,space,1,735.5448046,None,0.9847984,P045,FENCOG,1,Post,2022_May_30_1153,N-Back (New Version 2021),2021.1.4,120.7741138
,,,,Conditions/Version_1/zeroback(3)_v1.xlsx,New rule: Press 'space' when you see the letter 'x' or 'X'.,B,None,,,,,,,,,0,9,9,9,0,1,1,1,,,,,,,,,,,,,,,,,,,,,,,,,,,,,,,,,,,,,,,,,,,,,,,,,,,,,,,,,,,,,,,,,,,,,1.568,739.1267055,None,None,1,739.1267055,None,,P045,FENCOG,1,Post,2022_May_30_1153,N-Back (New Version 2021),2021.1.4,120.7741138
,,,,Conditions/Version_1/zeroback(3)_v1.xlsx,New rule: Press 'space' when you see the letter 'x' or 'X'.,m,None,,,,,,,,,0,9,9,9,0,2,2,2,,,,,,,,,,,,,,,,,,,,,,,,,,,,,,,,,,,,,,,,,,,,,,,,,,,,,,,,,,,,,,,,,,,,,1.7912,742.9260756,None,None,1,742.9260756,None,,P045,FENCOG,1,Post,2022_May_30_1153,N-Back (New Version 2021),2021.1.4,120.7741138
,,,,Conditions/Version_1/zeroback(3)_v1.xlsx,New rule: Press 'space' when you see the letter 'x' or 'X'.,m,None,,,,,,,,,0,9,9,9,0,3,3,3,,,,,,,,,,,,,,,,,,,,,,,,,,,,,,,,,,,,,,,,,,,,,,,,,,,,,,,,,,,,,,,,,,,,,1.2394,746.1727134,None,None,1,746.1727134,None,,P045,FENCOG,1,Post,2022_May_30_1153,N-Back (New Version 2021),2021.1.4,120.7741138
,,,,Conditions/Version_1/zeroback(3)_v1.xlsx,New rule: Press 'space' when you see the letter 'x' or 'X'.,o,None,,,,,,,,,0,9,9,9,0,4,4,4,,,,,,,,,,,,,,,,,,,,,,,,,,,,,,,,,,,,,,,,,,,,,,,,,,,,,,,,,,,,,,,,,,,,,1.227,749.4051037,None,None,1,749.4051037,None,,P045,FENCOG,1,Post,2022_May_30_1153,N-Back (New Version 2021),2021.1.4,120.7741138
,,,,Conditions/Version_1/zeroback(3)_v1.xlsx,New rule: Press 'space' when you see the letter 'x' or 'X'.,p,None,,,,,,,,,0,9,9,9,0,5,5,5,,,,,,,,,,,,,,,,,,,,,,,,,,,,,,,,,,,,,,,,,,,,,,,,,,,,,,,,,,,,,,,,,,,,,1.0906,752.4959916,None,None,1,752.4959916,None,,P045,FENCOG,1,Post,2022_May_30_1153,N-Back (New Version 2021),2021.1.4,120.7741138
,,,,Conditions/Version_1/zeroback(3)_v1.xlsx,New rule: Press 'space' when you see the letter 'x' or 'X'.,G,None,,,,,,,,,0,9,9,9,0,6,6,6,,,,,,,,,,,,,,,,,,,,,,,,,,,,,,,,,,,,,,,,,,,,,,,,,,,,,,,,,,,,,,,,,,,,,1.3138,755.8123155,None,None,1,755.8123155,None,,P045,FENCOG,1,Post,2022_May_30_1153,N-Back (New Version 2021),2021.1.4,120.7741138
,,,,Conditions/Version_1/zeroback(3)_v1.xlsx,New rule: Press 'space' when you see the letter 'x' or 'X'.,X,space,,,,,,,,,0,9,9,9,0,7,7,7,,,,,,,,,,,,,,,,,,,,,,,,,,,,,,,,,,,,,,,,,,,,,,,,,,,,,,,,,,,,,,,,,,,,,1.9462,759.7628625,None,space,1,759.7628625,None,1.9829841,P045,FENCOG,1,Post,2022_May_30_1153,N-Back (New Version 2021),2021.1.4,120.7741138
,,,,Conditions/Version_1/zeroback(3)_v1.xlsx,New rule: Press 'space' when you see the letter 'x' or 'X'.,p,None,,,,,,,,,0,9,9,9,0,8,8,8,,,,,,,,,,,,,,,,,,,,,,,,,,,,,,,,,,,,,,,,,,,,,,,,,,,,,,,,,,,,,,,,,,,,,1.661,763.4347889,None,None,1,763.4347889,None,,P045,FENCOG,1,Post,2022_May_30_1153,N-Back (New Version 2021),2021.1.4,120.7741138
,,,,Conditions/Version_1/zeroback(3)_v1.xlsx,New rule: Press 'space' when you see the letter 'x' or 'X'.,x,space,,,,,,,,,0,9,9,9,0,9,9,9,,,,,,,,,,,,,,,,,,,,,,,,,,,,,,,,,,,,,,,,,,,,,,,,,,,,,,,,,,,,,,,,,,,,,1.6176,767.05841,None,None,0,767.05841,None,,P045,FENCOG,1,Post,2022_May_30_1153,N-Back (New Version 2021),2021.1.4,120.7741138
,,,,Conditions/Version_1/zeroback(3)_v1.xlsx,New rule: Press 'space' when you see the letter 'x' or 'X'.,,,,,,,,,,,0,9,9,9,,,,,,,,,,,,,,,,,,,,,,,,,,,,,,,,,,,,,,,,,,,,,,,,,,,,,,,,,,,,,,,,,,,,,,,,,,,,,,,,,P045,FENCOG,1,Post,2022_May_30_1153,N-Back (New Version 2021),2021.1.4,120.7741138
,,,,Conditions/Version_1/twoback(3)_v1.xlsx,New rule: Press 'space' when you see 2-back (i.e. the same letter as the one that appeared 2 letters ago.),e,None,,,,,,,,,0,10,10,10,0,0,0,0,,,,,,,,,,,,,,,,,,,,,,,,,,,,,,,,,,,,,,,,,,,,,,,,,,,,,,,,,,,769.0808654,None,772.0685534,None,space,6.7408426,772.0685534,None,769.0808654,None,1.5494,780.3888619,None,None,1,780.3888619,None,,P045,FENCOG,1,Post,2022_May_30_1153,N-Back (New Version 2021),2021.1.4,120.7741138
,,,,Conditions/Version_1/twoback(3)_v1.xlsx,New rule: Press 'space' when you see 2-back (i.e. the same letter as the one that appeared 2 letters ago.),o,None,,,,,,,,,0,10,10,10,0,1,1,1,,,,,,,,,,,,,,,,,,,,,,,,,,,,,,,,,,,,,,,,,,,,,,,,,,,,,,,,,,,,,,,,,,,,,1.7664,784.16331,None,None,1,784.16331,None,,P045,FENCOG,1,Post,2022_May_30_1153,N-Back (New Version 2021),2021.1.4,120.7741138
,,,,Conditions/Version_1/twoback(3)_v1.xlsx,New rule: Press 'space' when you see 2-back (i.e. the same letter as the one that appeared 2 letters ago.),P,None,,,,,,,,,0,10,10,10,0,2,2,2,,,,,,,,,,,,,,,,,,,,,,,,,,,,,,,,,,,,,,,,,,,,,,,,,,,,,,,,,,,,,,,,,,,,,1.9028,788.0785853,None,None,1,788.0785853,None,,P045,FENCOG,1,Post,2022_May_30_1153,N-Back (New Version 2021),2021.1.4,120.7741138
,,,,Conditions/Version_1/twoback(3)_v1.xlsx,New rule: Press 'space' when you see 2-back (i.e. the same letter as the one that appeared 2 letters ago.),z,None,,,,,,,,,0,10,10,10,0,3,3,3,,,,,,,,,,,,,,,,,,,,,,,,,,,,,,,,,,,,,,,,,,,,,,,,,,,,,,,,,,,,,,,,,,,,,1.1526,791.2453448,None,None,1,791.2453448,None,,P045,FENCOG,1,Post,2022_May_30_1153,N-Back (New Version 2021),2021.1.4,120.7741138
,,,,Conditions/Version_1/twoback(3)_v1.xlsx,New rule: Press 'space' when you see 2-back (i.e. the same letter as the one that appeared 2 letters ago.),X,None,,,,,,,,,0,10,10,10,0,4,4,4,,,,,,,,,,,,,,,,,,,,,,,,,,,,,,,,,,,,,,,,,,,,,,,,,,,,,,,,,,,,,,,,,,,,,1.6858,794.9431065,None,None,1,794.9431065,None,,P045,FENCOG,1,Post,2022_May_30_1153,N-Back (New Version 2021),2021.1.4,120.7741138
,,,,Conditions/Version_1/twoback(3)_v1.xlsx,New rule: Press 'space' when you see 2-back (i.e. the same letter as the one that appeared 2 letters ago.),z,space,,,,,,,,,0,10,10,10,0,5,5,5,,,,,,,,,,,,,,,,,,,,,,,,,,,,,,,,,,,,,,,,,,,,,,,,,,,,,,,,,,,,,,,,,,,,,1.4316,798.3824395,None,space,1,798.3824395,None,1.5072122,P045,FENCOG,1,Post,2022_May_30_1153,N-Back (New Version 2021),2021.1.4,120.7741138
,,,,Conditions/Version_1/twoback(3)_v1.xlsx,New rule: Press 'space' when you see 2-back (i.e. the same letter as the one that appeared 2 letters ago.),x,space,,,,,,,,,0,10,10,10,0,6,6,6,,,,,,,,,,,,,,,,,,,,,,,,,,,,,,,,,,,,,,,,,,,,,,,,,,,,,,,,,,,,,,,,,,,,,1.9338,802.325325,None,None,0,802.325325,None,,P045,FENCOG,1,Post,2022_May_30_1153,N-Back (New Version 2021),2021.1.4,120.7741138
,,,,Conditions/Version_1/twoback(3)_v1.xlsx,New rule: Press 'space' when you see 2-back (i.e. the same letter as the one that appeared 2 letters ago.),c,None,,,,,,,,,0,10,10,10,0,7,7,7,,,,,,,,,,,,,,,,,,,,,,,,,,,,,,,,,,,,,,,,,,,,,,,,,,,,,,,,,,,,,,,,,,,,,1.8842,806.2218359,None,None,1,806.2218359,None,,P045,FENCOG,1,Post,2022_May_30_1153,N-Back (New Version 2021),2021.1.4,120.7741138
,,,,Conditions/Version_1/twoback(3)_v1.xlsx,New rule: Press 'space' when you see 2-back (i.e. the same letter as the one that appeared 2 letters ago.),i,None,,,,,,,,,0,10,10,10,0,8,8,8,,,,,,,,,,,,,,,,,,,,,,,,,,,,,,,,,,,,,,,,,,,,,,,,,,,,,,,,,,,,,,,,,,,,,1.6486,809.8705441,None,None,1,809.8705441,None,,P045,FENCOG,1,Post,2022_May_30_1153,N-Back (New Version 2021),2021.1.4,120.7741138
,,,,Conditions/Version_1/twoback(3)_v1.xlsx,New rule: Press 'space' when you see 2-back (i.e. the same letter as the one that appeared 2 letters ago.),C,space,,,,,,,,,0,10,10,10,0,9,9,9,,,,,,,,,,,,,,,,,,,,,,,,,,,,,,,,,,,,,,,,,,,,,,,,,,,,,,,,,,,,,,,,,,,,,1.7168,813.5863211,None,None,0,813.5863211,None,,P045,FENCOG,1,Post,2022_May_30_1153,N-Back (New Version 2021),2021.1.4,120.7741138
,,,,Conditions/Version_1/twoback(3)_v1.xlsx,New rule: Press 'space' when you see 2-back (i.e. the same letter as the one that appeared 2 letters ago.),,,,,,,,,,,0,10,10,10,,,,,,,,,,,,,,,,,,,,,,,,,,,,,,,,,,,,,,,,,,,,,,,,,,,,,,,,,,,,,,,,,,,,,,,,,,,,,,,,,P045,FENCOG,1,Post,2022_May_30_1153,N-Back (New Version 2021),2021.1.4,120.7741138
,,,,Conditions/Version_1/oneback(3)_v1.xlsx,New rule: Press 'space' when you see 1-back (i.e. the same letter as the one that appeared 1 letter ago.),o,None,,,,,,,,,0,11,11,11,0,0,0,0,,,,,,,,,,,,,,,,,,,,,,,,,,,,,,,,,,,,,,,,,,,,,,,,,,,,,,,,,,,815.6086227,None,818.5955732,None,space,2.0537086,818.5955732,None,815.6086227,None,1.4564,822.142267,None,None,1,822.142267,None,,P045,FENCOG,1,Post,2022_May_30_1153,N-Back (New Version 2021),2021.1.4,120.7741138
,,,,Conditions/Version_1/oneback(3)_v1.xlsx,New rule: Press 'space' when you see 1-back (i.e. the same letter as the one that appeared 1 letter ago.),O,space,,,,,,,,,0,11,11,11,0,1,1,1,,,,,,,,,,,,,,,,,,,,,,,,,,,,,,,,,,,,,,,,,,,,,,,,,,,,,,,,,,,,,,,,,,,,,1.0224,825.168716,None,space,1,825.168716,None,0.4248968,P045,FENCOG,1,Post,2022_May_30_1153,N-Back (New Version 2021),2021.1.4,120.7741138
,,,,Conditions/Version_1/oneback(3)_v1.xlsx,New rule: Press 'space' when you see 1-back (i.e. the same letter as the one that appeared 1 letter ago.),h,None,,,,,,,,,0,11,11,11,0,2,2,2,,,,,,,,,,,,,,,,,,,,,,,,,,,,,,,,,,,,,,,,,,,,,,,,,,,,,,,,,,,,,,,,,,,,,1.3386,828.5152532,None,None,1,828.5152532,None,,P045,FENCOG,1,Post,2022_May_30_1153,N-Back (New Version 2021),2021.1.4,120.7741138
,,,,Conditions/Version_1/oneback(3)_v1.xlsx,New rule: Press 'space' when you see 1-back (i.e. the same letter as the one that appeared 1 letter ago.),g,None,,,,,,,,,0,11,11,11,0,3,3,3,,,,,,,,,,,,,,,,,,,,,,,,,,,,,,,,,,,,,,,,,,,,,,,,,,,,,,,,,,,,,,,,,,,,,1.2394,831.7561419,None,None,1,831.7561419,None,,P045,FENCOG,1,Post,2022_May_30_1153,N-Back (New Version 2021),2021.1.4,120.7741138
,,,,Conditions/Version_1/oneback(3)_v1.xlsx,New rule: Press 'space' when you see 1-back (i.e. the same letter as the one that appeared 1 letter ago.),n,None,,,,,,,,,0,11,11,11,0,4,4,4,,,,,,,,,,,,,,,,,,,,,,,,,,,,,,,,,,,,,,,,,,,,,,,,,,,,,,,,,,,,,,,,,,,,,1.4812,835.240054,None,None,1,835.240054,None,,P045,FENCOG,1,Post,2022_May_30_1153,N-Back (New Version 2021),2021.1.4,120.7741138
,,,,Conditions/Version_1/oneback(3)_v1.xlsx,New rule: Press 'space' when you see 1-back (i.e. the same letter as the one that appeared 1 letter ago.),z,None,,,,,,,,,0,11,11,11,0,5,5,5,,,,,,,,,,,,,,,,,,,,,,,,,,,,,,,,,,,,,,,,,,,,,,,,,,,,,,,,,,,,,,,,,,,,,1.041,838.2892258,None,None,1,838.2892258,None,,P045,FENCOG,1,Post,2022_May_30_1153,N-Back (New Version 2021),2021.1.4,120.7741138
,,,,Conditions/Version_1/oneback(3)_v1.xlsx,New rule: Press 'space' when you see 1-back (i.e. the same letter as the one that appeared 1 letter ago.),X,None,,,,,,,,,0,11,11,11,0,6,6,6,,,,,,,,,,,,,,,,,,,,,,,,,,,,,,,,,,,,,,,,,,,,,,,,,,,,,,,,,,,,,,,,,,,,,1.1526,841.4550471,None,None,1,841.4550471,None,,P045,FENCOG,1,Post,2022_May_30_1153,N-Back (New Version 2021),2021.1.4,120.7741138
,,,,Conditions/Version_1/oneback(3)_v1.xlsx,New rule: Press 'space' when you see 1-back (i.e. the same letter as the one that appeared 1 letter ago.),r,None,,,,,,,,,0,11,11,11,0,7,7,7,,,,,,,,,,,,,,,,,,,,,,,,,,,,,,,,,,,,,,,,,,,,,,,,,,,,,,,,,,,,,,,,,,,,,1.413,844.8783389,None,None,1,844.8783389,None,,P045,FENCOG,1,Post,2022_May_30_1153,N-Back (New Version 2021),2021.1.4,120.7741138
,,,,Conditions/Version_1/oneback(3)_v1.xlsx,New rule: Press 'space' when you see 1-back (i.e. the same letter as the one that appeared 1 letter ago.),r,space,,,,,,,,,0,11,11,11,0,8,8,8,,,,,,,,,,,,,,,,,,,,,,,,,,,,,,,,,,,,,,,,,,,,,,,,,,,,,,,,,,,,,,,,,,,,,1.6362,848.5261253,None,space,1,848.5261253,None,0.5792452,P045,FENCOG,1,Post,2022_May_30_1153,N-Back (New Version 2021),2021.1.4,120.7741138
,,,,Conditions/Version_1/oneback(3)_v1.xlsx,New rule: Press 'space' when you see 1-back (i.e. the same letter as the one that appeared 1 letter ago.),P,None,,,,,,,,,0,11,11,11,0,9,9,9,,,,,,,,,,,,,,,,,,,,,,,,,,,,,,,,,,,,,,,,,,,,,,,,,,,,,,,,,,,,,,,,,,,,,1.7664,852.2919171,None,None,1,852.2919171,None,,P045,FENCOG,1,Post,2022_May_30_1153,N-Back (New Version 2021),2021.1.4,120.7741138
,,,,Conditions/Version_1/oneback(3)_v1.xlsx,New rule: Press 'space' when you see 1-back (i.e. the same letter as the one that appeared 1 letter ago.),,,,,,,,,,,0,11,11,11,,,,,,,,,,,,,,,,,,,,,,,,,,,,,,,,,,,,,,,,,,,,,,,,,,,,,,,,,,,,,,,,,,,,,,,,,,,,,,,,,P045,FENCOG,1,Post,2022_May_30_1153,N-Back (New Version 2021),2021.1.4,120.7741138
,,,,Conditions/Version_1/twoback(4)_v1.xlsx,New rule: Press 'space' when you see 2-back (i.e. the same letter as the one that appeared 2 letters ago.),r,None,,,,,,,,,0,12,12,12,0,0,0,0,,,,,,,,,,,,,,,,,,,,,,,,,,,,,,,,,,,,,,,,,,,,,,,,,,,,,,,,,,,854.3177441,None,857.3010773,None,space,6.1084595,857.3010773,None,854.3177441,None,1.9338,865.4127463,None,None,1,865.4127463,None,,P045,FENCOG,1,Post,2022_May_30_1153,N-Back (New Version 2021),2021.1.4,120.7741138
,,,,Conditions/Version_1/twoback(4)_v1.xlsx,New rule: Press 'space' when you see 2-back (i.e. the same letter as the one that appeared 2 letters ago.),T,None,,,,,,,,,0,12,12,12,0,1,1,1,,,,,,,,,,,,,,,,,,,,,,,,,,,,,,,,,,,,,,,,,,,,,,,,,,,,,,,,,,,,,,,,,,,,,1.4688,868.8883224,None,None,1,868.8883224,None,,P045,FENCOG,1,Post,2022_May_30_1153,N-Back (New Version 2021),2021.1.4,120.7741138
,,,,Conditions/Version_1/twoback(4)_v1.xlsx,New rule: Press 'space' when you see 2-back (i.e. the same letter as the one that appeared 2 letters ago.),o,None,,,,,,,,,0,12,12,12,0,2,2,2,,,,,,,,,,,,,,,,,,,,,,,,,,,,,,,,,,,,,,,,,,,,,,,,,,,,,,,,,,,,,,,,,,,,,1.3076,872.2023665,None,None,1,872.2023665,None,,P045,FENCOG,1,Post,2022_May_30_1153,N-Back (New Version 2021),2021.1.4,120.7741138
,,,,Conditions/Version_1/twoback(4)_v1.xlsx,New rule: Press 'space' when you see 2-back (i.e. the same letter as the one that appeared 2 letters ago.),p,None,,,,,,,,,0,12,12,12,0,3,3,3,,,,,,,,,,,,,,,,,,,,,,,,,,,,,,,,,,,,,,,,,,,,,,,,,,,,,,,,,,,,,,,,,,,,,1.351,875.560794,None,None,1,875.560794,None,,P045,FENCOG,1,Post,2022_May_30_1153,N-Back (New Version 2021),2021.1.4,120.7741138
,,,,Conditions/Version_1/twoback(4)_v1.xlsx,New rule: Press 'space' when you see 2-back (i.e. the same letter as the one that appeared 2 letters ago.),p,None,,,,,,,,,0,12,12,12,0,4,4,4,,,,,,,,,,,,,,,,,,,,,,,,,,,,,,,,,,,,,,,,,,,,,,,,,,,,,,,,,,,,,,,,,,,,,1.6858,879.2585567,None,None,1,879.2585567,None,,P045,FENCOG,1,Post,2022_May_30_1153,N-Back (New Version 2021),2021.1.4,120.7741138
,,,,Conditions/Version_1/twoback(4)_v1.xlsx,New rule: Press 'space' when you see 2-back (i.e. the same letter as the one that appeared 2 letters ago.),y,None,,,,,,,,,0,12,12,12,0,5,5,5,,,,,,,,,,,,,,,,,,,,,,,,,,,,,,,,,,,,,,,,,,,,,,,,,,,,,,,,,,,,,,,,,,,,,1.9834,883.240773,None,None,1,883.240773,None,,P045,FENCOG,1,Post,2022_May_30_1153,N-Back (New Version 2021),2021.1.4,120.7741138
,,,,Conditions/Version_1/twoback(4)_v1.xlsx,New rule: Press 'space' when you see 2-back (i.e. the same letter as the one that appeared 2 letters ago.),P,space,,,,,,,,,0,12,12,12,0,6,6,6,,,,,,,,,,,,,,,,,,,,,,,,,,,,,,,,,,,,,,,,,,,,,,,,,,,,,,,,,,,,,,,,,,,,,1.5494,886.7908013,None,None,0,886.7908013,None,,P045,FENCOG,1,Post,2022_May_30_1153,N-Back (New Version 2021),2021.1.4,120.7741138
,,,,Conditions/Version_1/twoback(4)_v1.xlsx,New rule: Press 'space' when you see 2-back (i.e. the same letter as the one that appeared 2 letters ago.),y,None,,,,,,,,,0,12,12,12,0,7,7,7,,,,,,,,,,,,,,,,,,,,,,,,,,,,,,,,,,,,,,,,,,,,,,,,,,,,,,,,,,,,,,,,,,,,,1.7912,890.5885348,None,space,0,890.5885348,None,1.0608364,P045,FENCOG,1,Post,2022_May_30_1153,N-Back (New Version 2021),2021.1.4,120.7741138
,,,,Conditions/Version_1/twoback(4)_v1.xlsx,New rule: Press 'space' when you see 2-back (i.e. the same letter as the one that appeared 2 letters ago.),y,space,,,,,,,,,0,12,12,12,0,8,8,8,,,,,,,,,,,,,,,,,,,,,,,,,,,,,,,,,,,,,,,,,,,,,,,,,,,,,,,,,,,,,,,,,,,,,1.7664,894.3540588,None,None,0,894.3540588,None,,P045,FENCOG,1,Post,2022_May_30_1153,N-Back (New Version 2021),2021.1.4,120.7741138
,,,,Conditions/Version_1/twoback(4)_v1.xlsx,New rule: Press 'space' when you see 2-back (i.e. the same letter as the one that appeared 2 letters ago.),,,,,,,,,,,0,12,12,12,,,,,,,,,,,,,,,,,,,,,,,,,,,,,,,,,,,,,,,,,,,,,,,,,,,,,,,,,,,,,,,,,,,,,,,,,,,,,,,,,P045,FENCOG,1,Post,2022_May_30_1153,N-Back (New Version 2021),2021.1.4,120.7741138
,,,,Conditions/Version_1/zeroback(4)_v1.xlsx,New rule: Press 'space' when you see the letter 'x' or 'X'.,o,None,,,,,,,,,0,13,13,13,0,0,0,0,,,,,,,,,,,,,,,,,,,,,,,,,,,,,,,,,,,,,,,,,,,,,,,,,,,,,,,,,,,896.3826869,None,899.3632646,None,space,1.8382943,899.3632646,None,896.3826869,None,1.7912,903.0284509,None,None,1,903.0284509,None,,P045,FENCOG,1,Post,2022_May_30_1153,N-Back (New Version 2021),2021.1.4,120.7741138
,,,,Conditions/Version_1/zeroback(4)_v1.xlsx,New rule: Press 'space' when you see the letter 'x' or 'X'.,X,space,,,,,,,,,0,13,13,13,0,1,1,1,,,,,,,,,,,,,,,,,,,,,,,,,,,,,,,,,,,,,,,,,,,,,,,,,,,,,,,,,,,,,,,,,,,,,1.506,906.5434303,None,space,1,906.5434303,None,0.5218395,P045,FENCOG,1,Post,2022_May_30_1153,N-Back (New Version 2021),2021.1.4,120.7741138
,,,,Conditions/Version_1/zeroback(4)_v1.xlsx,New rule: Press 'space' when you see the letter 'x' or 'X'.,p,None,,,,,,,,,0,13,13,13,0,2,2,2,,,,,,,,,,,,,,,,,,,,,,,,,,,,,,,,,,,,,,,,,,,,,,,,,,,,,,,,,,,,,,,,,,,,,1.1402,909.6916424,None,None,1,909.6916424,None,,P045,FENCOG,1,Post,2022_May_30_1153,N-Back (New Version 2021),2021.1.4,120.7741138
,,,,Conditions/Version_1/zeroback(4)_v1.xlsx,New rule: Press 'space' when you see the letter 'x' or 'X'.,m,None,,,,,,,,,0,13,13,13,0,3,3,3,,,,,,,,,,,,,,,,,,,,,,,,,,,,,,,,,,,,,,,,,,,,,,,,,,,,,,,,,,,,,,,,,,,,,1.4812,913.1739053,None,None,1,913.1739053,None,,P045,FENCOG,1,Post,2022_May_30_1153,N-Back (New Version 2021),2021.1.4,120.7741138
,,,,Conditions/Version_1/zeroback(4)_v1.xlsx,New rule: Press 'space' when you see the letter 'x' or 'X'.,n,None,,,,,,,,,0,13,13,13,0,4,4,4,,,,,,,,,,,,,,,,,,,,,,,,,,,,,,,,,,,,,,,,,,,,,,,,,,,,,,,,,,,,,,,,,,,,,1.8036,916.9807435,None,None,1,916.9807435,None,,P045,FENCOG,1,Post,2022_May_30_1153,N-Back (New Version 2021),2021.1.4,120.7741138
,,,,Conditions/Version_1/zeroback(4)_v1.xlsx,New rule: Press 'space' when you see the letter 'x' or 'X'.,m,None,,,,,,,,,0,13,13,13,0,5,5,5,,,,,,,,,,,,,,,,,,,,,,,,,,,,,,,,,,,,,,,,,,,,,,,,,,,,,,,,,,,,,,,,,,,,,1.5184,920.5054529,None,None,1,920.5054529,None,,P045,FENCOG,1,Post,2022_May_30_1153,N-Back (New Version 2021),2021.1.4,120.7741138
,,,,Conditions/Version_1/zeroback(4)_v1.xlsx,New rule: Press 'space' when you see the letter 'x' or 'X'.,C,None,,,,,,,,,0,13,13,13,0,6,6,6,,,,,,,,,,,,,,,,,,,,,,,,,,,,,,,,,,,,,,,,,,,,,,,,,,,,,,,,,,,,,,,,,,,,,1.6114,924.1307886,None,None,1,924.1307886,None,,P045,FENCOG,1,Post,2022_May_30_1153,N-Back (New Version 2021),2021.1.4,120.7741138
,,,,Conditions/Version_1/zeroback(4)_v1.xlsx,New rule: Press 'space' when you see the letter 'x' or 'X'.,m,None,,,,,,,,,0,13,13,13,0,7,7,7,,,,,,,,,,,,,,,,,,,,,,,,,,,,,,,,,,,,,,,,,,,,,,,,,,,,,,,,,,,,,,,,,,,,,1.5432,927.6870887,None,None,1,927.6870887,None,,P045,FENCOG,1,Post,2022_May_30_1153,N-Back (New Version 2021),2021.1.4,120.7741138
,,,,Conditions/Version_1/zeroback(4)_v1.xlsx,New rule: Press 'space' when you see the letter 'x' or 'X'.,p,None,,,,,,,,,0,13,13,13,0,8,8,8,,,,,,,,,,,,,,,,,,,,,,,,,,,,,,,,,,,,,,,,,,,,,,,,,,,,,,,,,,,,,,,,,,,,,1.2084,930.901487,None,None,1,930.901487,None,,P045,FENCOG,1,Post,2022_May_30_1153,N-Back (New Version 2021),2021.1.4,120.7741138
,,,,Conditions/Version_1/zeroback(4)_v1.xlsx,New rule: Press 'space' when you see the letter 'x' or 'X'.,X,space,,,,,,,,,0,13,13,13,0,9,9,9,,,,,,,,,,,,,,,,,,,,,,,,,,,,,,,,,,,,,,,,,,,,,,,,,,,,,,,,,,,,,,,,,,,,,1.6176,934.5256254,None,space,1,934.5256254,None,0.5078398,P045,FENCOG,1,Post,2022_May_30_1153,N-Back (New Version 2021),2021.1.4,120.7741138
,,,,Conditions/Version_1/zeroback(4)_v1.xlsx,New rule: Press 'space' when you see the letter 'x' or 'X'.,,,,,,,,,,,0,13,13,13,,,,,,,,,,,,,,,,,,,,,,,,,,,,,,,,,,,,,,,,,,,,,,,,,,,,,,,,,,,,,,,,,,,,,,,,,,,,,,,,,P045,FENCOG,1,Post,2022_May_30_1153,N-Back (New Version 2021),2021.1.4,120.7741138
,,,,Conditions/Version_1/oneback(4)_v1.xlsx,New rule: Press 'space' when you see 1-back (i.e. the same letter as the one that appeared 1 letter ago.),w,None,,,,,,,,,0,14,14,14,0,0,0,0,,,,,,,,,,,,,,,,,,,,,,,,,,,,,,,,,,,,,,,,,,,,,,,,,,,,,,,,,,,936.5478176,None,939.5358891,None,space,2.0894618,939.5358891,None,936.5478176,None,1.4812,943.1407731,None,None,1,943.1407731,None,,P045,FENCOG,1,Post,2022_May_30_1153,N-Back (New Version 2021),2021.1.4,120.7741138
,,,,Conditions/Version_1/oneback(4)_v1.xlsx,New rule: Press 'space' when you see 1-back (i.e. the same letter as the one that appeared 1 letter ago.),q,None,,,,,,,,,0,14,14,14,0,1,1,1,,,,,,,,,,,,,,,,,,,,,,,,,,,,,,,,,,,,,,,,,,,,,,,,,,,,,,,,,,,,,,,,,,,,,1.1278,946.2823281,None,None,1,946.2823281,None,,P045,FENCOG,1,Post,2022_May_30_1153,N-Back (New Version 2021),2021.1.4,120.7741138
,,,,Conditions/Version_1/oneback(4)_v1.xlsx,New rule: Press 'space' when you see 1-back (i.e. the same letter as the one that appeared 1 letter ago.),i,None,,,,,,,,,0,14,14,14,0,2,2,2,,,,,,,,,,,,,,,,,,,,,,,,,,,,,,,,,,,,,,,,,,,,,,,,,,,,,,,,,,,,,,,,,,,,,1.94,950.2292874,None,None,1,950.2292874,None,,P045,FENCOG,1,Post,2022_May_30_1153,N-Back (New Version 2021),2021.1.4,120.7741138
,,,,Conditions/Version_1/oneback(4)_v1.xlsx,New rule: Press 'space' when you see 1-back (i.e. the same letter as the one that appeared 1 letter ago.),t,None,,,,,,,,,0,14,14,14,0,3,3,3,,,,,,,,,,,,,,,,,,,,,,,,,,,,,,,,,,,,,,,,,,,,,,,,,,,,,,,,,,,,,,,,,,,,,1.6486,953.8805599,None,None,1,953.8805599,None,,P045,FENCOG,1,Post,2022_May_30_1153,N-Back (New Version 2021),2021.1.4,120.7741138
,,,,Conditions/Version_1/oneback(4)_v1.xlsx,New rule: Press 'space' when you see 1-back (i.e. the same letter as the one that appeared 1 letter ago.),v,None,,,,,,,,,0,14,14,14,0,4,4,4,,,,,,,,,,,,,,,,,,,,,,,,,,,,,,,,,,,,,,,,,,,,,,,,,,,,,,,,,,,,,,,,,,,,,1.785,957.6790961,None,None,1,957.6790961,None,,P045,FENCOG,1,Post,2022_May_30_1153,N-Back (New Version 2021),2021.1.4,120.7741138
,,,,Conditions/Version_1/oneback(4)_v1.xlsx,New rule: Press 'space' when you see 1-back (i.e. the same letter as the one that appeared 1 letter ago.),V,space,,,,,,,,,0,14,14,14,0,5,5,5,,,,,,,,,,,,,,,,,,,,,,,,,,,,,,,,,,,,,,,,,,,,,,,,,,,,,,,,,,,,,,,,,,,,,1.2022,960.8961991,None,None,0,960.8961991,None,,P045,FENCOG,1,Post,2022_May_30_1153,N-Back (New Version 2021),2021.1.4,120.7741138
,,,,Conditions/Version_1/oneback(4)_v1.xlsx,New rule: Press 'space' when you see 1-back (i.e. the same letter as the one that appeared 1 letter ago.),v,space,,,,,,,,,0,14,14,14,0,6,6,6,,,,,,,,,,,,,,,,,,,,,,,,,,,,,,,,,,,,,,,,,,,,,,,,,,,,,,,,,,,,,,,,,,,,,1.9028,964.8092456,None,space,1,964.8092456,None,1.2080376,P045,FENCOG,1,Post,2022_May_30_1153,N-Back (New Version 2021),2021.1.4,120.7741138
,,,,Conditions/Version_1/oneback(4)_v1.xlsx,New rule: Press 'space' when you see 1-back (i.e. the same letter as the one that appeared 1 letter ago.),p,None,,,,,,,,,0,14,14,14,0,7,7,7,,,,,,,,,,,,,,,,,,,,,,,,,,,,,,,,,,,,,,,,,,,,,,,,,,,,,,,,,,,,,,,,,,,,,1.4626,968.2832836,None,None,1,968.2832836,None,,P045,FENCOG,1,Post,2022_May_30_1153,N-Back (New Version 2021),2021.1.4,120.7741138
,,,,Conditions/Version_1/oneback(4)_v1.xlsx,New rule: Press 'space' when you see 1-back (i.e. the same letter as the one that appeared 1 letter ago.),w,None,,,,,,,,,0,14,14,14,0,8,8,8,,,,,,,,,,,,,,,,,,,,,,,,,,,,,,,,,,,,,,,,,,,,,,,,,,,,,,,,,,,,,,,,,,,,,1.8036,972.098369,None,None,1,972.098369,None,,P045,FENCOG,1,Post,2022_May_30_1153,N-Back (New Version 2021),2021.1.4,120.7741138
,,,,Conditions/Version_1/oneback(4)_v1.xlsx,New rule: Press 'space' when you see 1-back (i.e. the same letter as the one that appeared 1 letter ago.),W,space,,,,,,,,,0,14,14,14,0,9,9,9,,,,,,,,,,,,,,,,,,,,,,,,,,,,,,,,,,,,,,,,,,,,,,,,,,,,,,,,,,,,,,,,,,,,,1.6982,975.7990872,None,space,1,975.7990872,None,1.1622258,P045,FENCOG,1,Post,2022_May_30_1153,N-Back (New Version 2021),2021.1.4,120.7741138
,,,,Conditions/Version_1/oneback(4)_v1.xlsx,New rule: Press 'space' when you see 1-back (i.e. the same letter as the one that appeared 1 letter ago.),,,,,,,,,,,0,14,14,14,,,,,,,,,,,,,,,,,,,,,,,,,,,,,,,,,,,,,,,,,,,,,,,,,,,,,,,,,,,,,,,,,,,,,,,,,,,,,,,,,P045,FENCOG,1,Post,2022_May_30_1153,N-Back (New Version 2021),2021.1.4,120.7741138
,,,,Conditions/Version_1/threeback(4)_v1.xlsx,New rule: Press 'space' when you see 3-back (i.e. the same letter as the one that appeared 3 letters ago.),A,None,,,,,,,,,0,15,15,15,0,0,0,0,,,,,,,,,,,,,,,,,,,,,,,,,,,,,,,,,,,,,,,,,,,,,,,,,,,,,,,,,,,977.8278548,None,980.8136473,None,space,17.1716525,980.8136473,None,977.8278548,None,1.4316,999.4480545,None,None,1,999.4480545,None,,P045,FENCOG,1,Post,2022_May_30_1153,N-Back (New Version 2021),2021.1.4,120.7741138
,,,,Conditions/Version_1/threeback(4)_v1.xlsx,New rule: Press 'space' when you see 3-back (i.e. the same letter as the one that appeared 3 letters ago.),n,None,,,,,,,,,0,15,15,15,0,1,1,1,,,,,,,,,,,,,,,,,,,,,,,,,,,,,,,,,,,,,,,,,,,,,,,,,,,,,,,,,,,,,,,,,,,,,1.4068,1002.855689,None,None,1,1002.855689,None,,P045,FENCOG,1,Post,2022_May_30_1153,N-Back (New Version 2021),2021.1.4,120.7741138
,,,,Conditions/Version_1/threeback(4)_v1.xlsx,New rule: Press 'space' when you see 3-back (i.e. the same letter as the one that appeared 3 letters ago.),g,None,,,,,,,,,0,15,15,15,0,2,2,2,,,,,,,,,,,,,,,,,,,,,,,,,,,,,,,,,,,,,,,,,,,,,,,,,,,,,,,,,,,,,,,,,,,,,1.7292,1006.588606,None,None,1,1006.588606,None,,P045,FENCOG,1,Post,2022_May_30_1153,N-Back (New Version 2021),2021.1.4,120.7741138
,,,,Conditions/Version_1/threeback(4)_v1.xlsx,New rule: Press 'space' when you see 3-back (i.e. the same letter as the one that appeared 3 letters ago.),A,space,,,,,,,,,0,15,15,15,0,3,3,3,,,,,,,,,,,,,,,,,,,,,,,,,,,,,,,,,,,,,,,,,,,,,,,,,,,,,,,,,,,,,,,,,,,,,1.5432,1010.138556,None,space,1,1010.138556,None,1.6146666,P045,FENCOG,1,Post,2022_May_30_1153,N-Back (New Version 2021),2021.1.4,120.7741138
,,,,Conditions/Version_1/threeback(4)_v1.xlsx,New rule: Press 'space' when you see 3-back (i.e. the same letter as the one that appeared 3 letters ago.),p,None,,,,,,,,,0,15,15,15,0,4,4,4,,,,,,,,,,,,,,,,,,,,,,,,,,,,,,,,,,,,,,,,,,,,,,,,,,,,,,,,,,,,,,,,,,,,,1.2208,1013.36876,None,None,1,1013.36876,None,,P045,FENCOG,1,Post,2022_May_30_1153,N-Back (New Version 2021),2021.1.4,120.7741138
,,,,Conditions/Version_1/threeback(4)_v1.xlsx,New rule: Press 'space' when you see 3-back (i.e. the same letter as the one that appeared 3 letters ago.),O,None,,,,,,,,,0,15,15,15,0,5,5,5,,,,,,,,,,,,,,,,,,,,,,,,,,,,,,,,,,,,,,,,,,,,,,,,,,,,,,,,,,,,,,,,,,,,,1.8904,1017.261837,None,None,1,1017.261837,None,,P045,FENCOG,1,Post,2022_May_30_1153,N-Back (New Version 2021),2021.1.4,120.7741138
,,,,Conditions/Version_1/threeback(4)_v1.xlsx,New rule: Press 'space' when you see 3-back (i.e. the same letter as the one that appeared 3 letters ago.),a,space,,,,,,,,,0,15,15,15,0,6,6,6,,,,,,,,,,,,,,,,,,,,,,,,,,,,,,,,,,,,,,,,,,,,,,,,,,,,,,,,,,,,,,,,,,,,,1.1898,1020.458756,None,space,1,1020.458756,None,0.9588183,P045,FENCOG,1,Post,2022_May_30_1153,N-Back (New Version 2021),2021.1.4,120.7741138
,,,,Conditions/Version_1/threeback(4)_v1.xlsx,New rule: Press 'space' when you see 3-back (i.e. the same letter as the one that appeared 3 letters ago.),p,space,,,,,,,,,0,15,15,15,0,7,7,7,,,,,,,,,,,,,,,,,,,,,,,,,,,,,,,,,,,,,,,,,,,,,,,,,,,,,,,,,,,,,,,,,,,,,1.816,1024.275256,None,space,1,1024.275256,None,1.2619627,P045,FENCOG,1,Post,2022_May_30_1153,N-Back (New Version 2021),2021.1.4,120.7741138
,,,,Conditions/Version_1/threeback(4)_v1.xlsx,New rule: Press 'space' when you see 3-back (i.e. the same letter as the one that appeared 3 letters ago.),x,None,,,,,,,,,0,15,15,15,0,8,8,8,,,,,,,,,,,,,,,,,,,,,,,,,,,,,,,,,,,,,,,,,,,,,,,,,,,,,,,,,,,,,,,,,,,,,1.134,1027.423188,None,None,1,1027.423188,None,,P045,FENCOG,1,Post,2022_May_30_1153,N-Back (New Version 2021),2021.1.4,120.7741138
,,,,Conditions/Version_1/threeback(4)_v1.xlsx,New rule: Press 'space' when you see 3-back (i.e. the same letter as the one that appeared 3 letters ago.),X,None,,,,,,,,,0,15,15,15,0,9,9,9,,,,,,,,,,,,,,,,,,,,,,,,,,,,,,,,,,,,,,,,,,,,,,,,,,,,,,,,,,,,,,,,,,,,,1.5928,1031.02398,None,None,1,1031.02398,None,,P045,FENCOG,1,Post,2022_May_30_1153,N-Back (New Version 2021),2021.1.4,120.7741138
,,,,Conditions/Version_1/threeback(4)_v1.xlsx,New rule: Press 'space' when you see 3-back (i.e. the same letter as the one that appeared 3 letters ago.),,,,,,,,,,,0,15,15,15,,,,,,,,,,,,,,,,,,,,,,,,,,,,,,,,,,,,,,,,,,,,,,,,,,,,,,,,,,,,,,,,,,,,,,,,,,,,,,,,,P045,FENCOG,1,Post,2022_May_30_1153,N-Back (New Version 2021),2021.1.4,120.7741138
