CondFileP,InstructionsP,LettersDisplayedP,CorrectnessP,CondFile,Instructions,LettersDisplayed,Correctness,practicetrials.thisRepN,practicetrials.thisTrialN,practicetrials.thisN,practicetrials.thisIndex,InnerLoopPractice.thisRepN,InnerLoopPractice.thisTrialN,InnerLoopPractice.thisN,InnerLoopPractice.thisIndex,trials.thisRepN,trials.thisTrialN,trials.thisN,trials.thisIndex,InnerLoop.thisRepN,InnerLoop.thisTrialN,InnerLoop.thisN,InnerLoop.thisIndex,TaskVersionText.started,TaskVersionText.stopped,InstrKey1.keys,InstrKey1.rt,InstrKey1.started,InstrKey1.stopped,text.started,text.stopped,key_resp_4.keys,key_resp_4.rt,key_resp_4.started,key_resp_4.stopped,text_2.started,text_2.stopped,key_resp_3.keys,key_resp_3.rt,key_resp_3.started,key_resp_3.stopped,text_3.started,text_3.stopped,key_resp_2.keys,key_resp_2.rt,key_resp_2.started,key_resp_2.stopped,PractIn1.started,PractIn1.stopped,PractIn2.started,PractIn2.stopped,PractInstructionPass.keys,PractInstructionPass.rt,PractInstructionPass.started,PractInstructionPass.stopped,PractBlock1.started,PractBlock1.stopped,ISIjitterPractice,ISI_Pract_Fixation.started,ISI_Pract_Fixation.stopped,N_backP.started,N_backP.stopped,KeyPractice.keys,KeyPractice.corr,KeyPractice.rt,KeyPractice.started,KeyPractice.stopped,text_4.started,text_4.stopped,TransitionText.started,TransitionText.stopped,key_resp_6.keys,key_resp_6.rt,key_resp_6.started,key_resp_6.stopped,text_5.started,text_5.stopped,key_resp_5.keys,key_resp_5.rt,key_resp_5.started,key_resp_5.stopped,MainInt1.started,MainInt1.stopped,MainInt2.started,MainInt2.stopped,InstructionPass.keys,InstructionPass.rt,InstructionPass.started,InstructionPass.stopped,Blocks1.started,Blocks1.stopped,ISIjitter,N_backD.started,N_backD.stopped,key_resp.keys,key_resp.corr,key_resp.started,key_resp.stopped,key_resp.rt,participant,Study Name,Task Version (required to run),PRE/POST,date,expName,psychopyVersion,frameRate,
,,,,,,,,,,,,,,,,,,,,,,,,26.612619700000323,None,space,366.06209880000006,27.108073800000057,None,,,,,,,,,,,,,,,,,,,,,,,,,,,,,,,,,,,,,,,,,,,,,,,,,,,,,,,,,,,,,,,,,,,,,,,P046,fencog,2,Pre,2022_May_24_1115,N-Back (New Version 2021),2021.1.4,120.12517042713247,
,,,,,,,,,,,,,,,,,,,,,,,,,,,,,,393.2057101999999,None,space,6.414560500000334,393.6918015000001,None,,,,,,,,,,,,,,,,,,,,,,,,,,,,,,,,,,,,,,,,,,,,,,,,,,,,,,,,,,,,,,,,,P046,fencog,2,Pre,2022_May_24_1115,N-Back (New Version 2021),2021.1.4,120.12517042713247,
,,,,,,,,,,,,,,,,,,,,,,,,,,,,,,,,,,,,400.1413407,None,space,14.826693899999555,400.6315527000006,None,,,,,,,,,,,,,,,,,,,,,,,,,,,,,,,,,,,,,,,,,,,,,,,,,,,,,,,,,,,P046,fencog,2,Pre,2022_May_24_1115,N-Back (New Version 2021),2021.1.4,120.12517042713247,
,,,,,,,,,,,,,,,,,,,,,,,,,,,,,,,,,,,,,,,,,,415.4874792999999,None,space,7.01715029999923,415.9770687,None,,,,,,,,,,,,,,,,,,,,,,,,,,,,,,,,,,,,,,,,,,,,,,,,,,,,,P046,fencog,2,Pre,2022_May_24_1115,N-Back (New Version 2021),2021.1.4,120.12517042713247,
Conditions/Version_2Pr/zeroback(1)_v2.xlsx,Rule: Press 'space' when you see the letter 'x' or 'X'.,x,space,,,,,0,0,0,0,0,0,0,0,,,,,,,,,,,,,,,,,,,,,,,,,,,,,,,,,424.37579470000037,None,427.3594436000003,None,space,0.7148272999993424,427.3594436000003,None,424.37579470000037,None,1.115,428.10659080000005,None,429.23482090000016,None,space,1,0.3435258999998041,429.23482090000016,None,429.5934713000006,None,,,,,,,,,,,,,,,,,,,,,,,,,,,,,,,P046,fencog,2,Pre,2022_May_24_1115,N-Back (New Version 2021),2021.1.4,120.12517042713247,
Conditions/Version_2Pr/zeroback(1)_v2.xlsx,Rule: Press 'space' when you see the letter 'x' or 'X'.,R,None,,,,,0,0,0,0,0,1,1,1,,,,,,,,,,,,,,,,,,,,,,,,,,,,,,,,,,,,,,,,,,,1.19,431.0965898000004,None,432.2998703000003,None,None,1,,432.2998703000003,None,434.2958159,None,,,,,,,,,,,,,,,,,,,,,,,,,,,,,,,P046,fencog,2,Pre,2022_May_24_1115,N-Back (New Version 2021),2021.1.4,120.12517042713247,
Conditions/Version_2Pr/zeroback(1)_v2.xlsx,Rule: Press 'space' when you see the letter 'x' or 'X'.,p,None,,,,,0,0,0,0,0,2,2,2,,,,,,,,,,,,,,,,,,,,,,,,,,,,,,,,,,,,,,,,,,,1.49,435.7953951999998,None,437.2871178000005,None,None,1,,437.2871178000005,None,439.2943083,None,,,,,,,,,,,,,,,,,,,,,,,,,,,,,,,P046,fencog,2,Pre,2022_May_24_1115,N-Back (New Version 2021),2021.1.4,120.12517042713247,
Conditions/Version_2Pr/zeroback(1)_v2.xlsx,Rule: Press 'space' when you see the letter 'x' or 'X'.,O,None,,,,,0,0,0,0,0,3,3,3,,,,,,,,,,,,,,,,,,,,,,,,,,,,,,,,,,,,,,,,,,,1.79,440.7939683000004,None,442.5866337000007,None,None,1,,442.5866337000007,None,444.59274430000005,None,,,,,,,,,,,,,,,,,,,,,,,,,,,,,,,P046,fencog,2,Pre,2022_May_24_1115,N-Back (New Version 2021),2021.1.4,120.12517042713247,
Conditions/Version_2Pr/zeroback(1)_v2.xlsx,Rule: Press 'space' when you see the letter 'x' or 'X'.,i,None,,,,,0,0,0,0,0,4,4,4,,,,,,,,,,,,,,,,,,,,,,,,,,,,,,,,,,,,,,,,,,,1.39,446.09237630000007,None,447.48508519999996,None,None,1,,447.48508519999996,None,449.49507970000013,None,,,,,,,,,,,,,,,,,,,,,,,,,,,,,,,P046,fencog,2,Pre,2022_May_24_1115,N-Back (New Version 2021),2021.1.4,120.12517042713247,
Conditions/Version_2Pr/zeroback(1)_v2.xlsx,Rule: Press 'space' when you see the letter 'x' or 'X'.,U,None,,,,,0,0,0,0,0,5,5,5,,,,,,,,,,,,,,,,,,,,,,,,,,,,,,,,,,,,,,,,,,,1.54,450.99061580000034,None,452.53255309999986,None,None,1,,452.53255309999986,None,454.53154429999995,None,,,,,,,,,,,,,,,,,,,,,,,,,,,,,,,P046,fencog,2,Pre,2022_May_24_1115,N-Back (New Version 2021),2021.1.4,120.12517042713247,
Conditions/Version_2Pr/zeroback(1)_v2.xlsx,Rule: Press 'space' when you see the letter 'x' or 'X'.,N,None,,,,,0,0,0,0,0,6,6,6,,,,,,,,,,,,,,,,,,,,,,,,,,,,,,,,,,,,,,,,,,,1.815,456.0310623000005,None,457.8529438000005,None,None,1,,457.8529438000005,None,459.85501569999997,None,,,,,,,,,,,,,,,,,,,,,,,,,,,,,,,P046,fencog,2,Pre,2022_May_24_1115,N-Back (New Version 2021),2021.1.4,120.12517042713247,
Conditions/Version_2Pr/zeroback(1)_v2.xlsx,Rule: Press 'space' when you see the letter 'x' or 'X'.,m,None,,,,,0,0,0,0,0,7,7,7,,,,,,,,,,,,,,,,,,,,,,,,,,,,,,,,,,,,,,,,,,,1.09,461.35455439999987,None,462.4473654000003,None,None,1,,462.4473654000003,None,464.4536979000004,None,,,,,,,,,,,,,,,,,,,,,,,,,,,,,,,P046,fencog,2,Pre,2022_May_24_1115,N-Back (New Version 2021),2021.1.4,120.12517042713247,
Conditions/Version_2Pr/zeroback(1)_v2.xlsx,Rule: Press 'space' when you see the letter 'x' or 'X'.,x,space,,,,,0,0,0,0,0,8,8,8,,,,,,,,,,,,,,,,,,,,,,,,,,,,,,,,,,,,,,,,,,,1.74,465.9531469000003,None,467.6950316000002,None,space,1,0.4190880999994988,467.6950316000002,None,468.1280940000006,None,,,,,,,,,,,,,,,,,,,,,,,,,,,,,,,P046,fencog,2,Pre,2022_May_24_1115,N-Back (New Version 2021),2021.1.4,120.12517042713247,
Conditions/Version_2Pr/zeroback(1)_v2.xlsx,Rule: Press 'space' when you see the letter 'x' or 'X'.,X,space,,,,,0,0,0,0,0,9,9,9,,,,,,,,,,,,,,,,,,,,,,,,,,,,,,,,,,,,,,,,,,,1.64,469.6270723000007,None,471.27143140000044,None,space,1,0.4748234999997294,471.27143140000044,None,471.7611053999999,None,,,,,,,,,,,,,,,,,,,,,,,,,,,,,,,P046,fencog,2,Pre,2022_May_24_1115,N-Back (New Version 2021),2021.1.4,120.12517042713247,
Conditions/Version_2Pr/zeroback(1)_v2.xlsx,Rule: Press 'space' when you see the letter 'x' or 'X'.,,,,,,,0,0,0,0,,,,,,,,,,,,,,,,,,,,,,,,,,,,,,,,,,,,,,,,,,,,,,,,,,,,,,,,,,,,,,,,,,,,,,,,,,,,,,,,,,,,,,,,,P046,fencog,2,Pre,2022_May_24_1115,N-Back (New Version 2021),2021.1.4,120.12517042713247,
Conditions/Version_2Pr/oneback(1)_v2.xlsx,New rule: Press 'space' when you see 1-back (i.e. the same letter as the one that appeared 1 letter ago.),r,None,,,,,0,1,1,1,0,0,0,0,,,,,,,,,,,,,,,,,,,,,,,,,,,,,,,,,473.2910859000003,None,476.27724579999995,None,space,4.885062500000458,476.27724579999995,None,473.2910859000003,None,1.14,481.1935076,None,482.34102170000006,None,None,1,,482.34102170000006,None,484.34770070000013,None,,,,,,,,,,,,,,,,,,,,,,,,,,,,,,,P046,fencog,2,Pre,2022_May_24_1115,N-Back (New Version 2021),2021.1.4,120.12517042713247,
Conditions/Version_2Pr/oneback(1)_v2.xlsx,New rule: Press 'space' when you see 1-back (i.e. the same letter as the one that appeared 1 letter ago.),t,None,,,,,0,1,1,1,0,1,1,1,,,,,,,,,,,,,,,,,,,,,,,,,,,,,,,,,,,,,,,,,,,1.74,485.84730410000066,None,487.5884014000003,None,None,1,,487.5884014000003,None,489.58773440000004,None,,,,,,,,,,,,,,,,,,,,,,,,,,,,,,,P046,fencog,2,Pre,2022_May_24_1115,N-Back (New Version 2021),2021.1.4,120.12517042713247,
Conditions/Version_2Pr/oneback(1)_v2.xlsx,New rule: Press 'space' when you see 1-back (i.e. the same letter as the one that appeared 1 letter ago.),Y,None,,,,,0,1,1,1,0,2,2,2,,,,,,,,,,,,,,,,,,,,,,,,,,,,,,,,,,,,,,,,,,,1.115,491.08744260000003,None,492.2058121,None,None,1,,492.2058121,None,494.2115091000005,None,,,,,,,,,,,,,,,,,,,,,,,,,,,,,,,P046,fencog,2,Pre,2022_May_24_1115,N-Back (New Version 2021),2021.1.4,120.12517042713247,
Conditions/Version_2Pr/oneback(1)_v2.xlsx,New rule: Press 'space' when you see 1-back (i.e. the same letter as the one that appeared 1 letter ago.),y,space,,,,,0,1,1,1,0,3,3,3,,,,,,,,,,,,,,,,,,,,,,,,,,,,,,,,,,,,,,,,,,,1.24,495.71104430000014,None,496.9538958000003,None,space,1,0.4482352999993964,496.9538958000003,None,497.4129524,None,,,,,,,,,,,,,,,,,,,,,,,,,,,,,,,P046,fencog,2,Pre,2022_May_24_1115,N-Back (New Version 2021),2021.1.4,120.12517042713247,
Conditions/Version_2Pr/oneback(1)_v2.xlsx,New rule: Press 'space' when you see 1-back (i.e. the same letter as the one that appeared 1 letter ago.),p,None,,,,,0,1,1,1,0,4,4,4,,,,,,,,,,,,,,,,,,,,,,,,,,,,,,,,,,,,,,,,,,,1.465,498.9184144000001,None,500.3849074999998,None,None,1,,500.3849074999998,None,502.38394270000026,None,,,,,,,,,,,,,,,,,,,,,,,,,,,,,,,P046,fencog,2,Pre,2022_May_24_1115,N-Back (New Version 2021),2021.1.4,120.12517042713247,
Conditions/Version_2Pr/oneback(1)_v2.xlsx,New rule: Press 'space' when you see 1-back (i.e. the same letter as the one that appeared 1 letter ago.),P,space,,,,,0,1,1,1,0,5,5,5,,,,,,,,,,,,,,,,,,,,,,,,,,,,,,,,,,,,,,,,,,,1.49,503.88342509999984,None,505.3763211000005,None,space,1,0.4819794999993974,505.3763211000005,None,505.86735790000057,None,,,,,,,,,,,,,,,,,,,,,,,,,,,,,,,P046,fencog,2,Pre,2022_May_24_1115,N-Back (New Version 2021),2021.1.4,120.12517042713247,
Conditions/Version_2Pr/oneback(1)_v2.xlsx,New rule: Press 'space' when you see 1-back (i.e. the same letter as the one that appeared 1 letter ago.),e,None,,,,,0,1,1,1,0,6,6,6,,,,,,,,,,,,,,,,,,,,,,,,,,,,,,,,,,,,,,,,,,,1.765,507.3740262000001,None,509.14232549999997,None,None,1,,509.14232549999997,None,511.1481702000001,None,,,,,,,,,,,,,,,,,,,,,,,,,,,,,,,P046,fencog,2,Pre,2022_May_24_1115,N-Back (New Version 2021),2021.1.4,120.12517042713247,
Conditions/Version_2Pr/oneback(1)_v2.xlsx,New rule: Press 'space' when you see 1-back (i.e. the same letter as the one that appeared 1 letter ago.),r,None,,,,,0,1,1,1,0,7,7,7,,,,,,,,,,,,,,,,,,,,,,,,,,,,,,,,,,,,,,,,,,,1.415,512.6474324999999,None,514.0656275000001,None,None,1,,514.0656275000001,None,516.0716569000006,None,,,,,,,,,,,,,,,,,,,,,,,,,,,,,,,P046,fencog,2,Pre,2022_May_24_1115,N-Back (New Version 2021),2021.1.4,120.12517042713247,
Conditions/Version_2Pr/oneback(1)_v2.xlsx,New rule: Press 'space' when you see 1-back (i.e. the same letter as the one that appeared 1 letter ago.),R,space,,,,,0,1,1,1,0,8,8,8,,,,,,,,,,,,,,,,,,,,,,,,,,,,,,,,,,,,,,,,,,,1.94,517.5711799999999,None,519.5130794000006,None,space,1,0.4330629999994926,519.5130794000006,None,519.956502,None,,,,,,,,,,,,,,,,,,,,,,,,,,,,,,,P046,fencog,2,Pre,2022_May_24_1115,N-Back (New Version 2021),2021.1.4,120.12517042713247,
Conditions/Version_2Pr/oneback(1)_v2.xlsx,New rule: Press 'space' when you see 1-back (i.e. the same letter as the one that appeared 1 letter ago.),p,None,,,,,0,1,1,1,0,9,9,9,,,,,,,,,,,,,,,,,,,,,,,,,,,,,,,,,,,,,,,,,,,1.315,521.4616861000004,None,522.7803586999999,None,None,1,,522.7803586999999,None,524.7858133,None,,,,,,,,,,,,,,,,,,,,,,,,,,,,,,,P046,fencog,2,Pre,2022_May_24_1115,N-Back (New Version 2021),2021.1.4,120.12517042713247,
Conditions/Version_2Pr/oneback(1)_v2.xlsx,New rule: Press 'space' when you see 1-back (i.e. the same letter as the one that appeared 1 letter ago.),,,,,,,0,1,1,1,,,,,,,,,,,,,,,,,,,,,,,,,,,,,,,,,,,,,,,,,,,,,,,,,,,,,,,,,,,,,,,,,,,,,,,,,,,,,,,,,,,,,,,,,P046,fencog,2,Pre,2022_May_24_1115,N-Back (New Version 2021),2021.1.4,120.12517042713247,
Conditions/Version_2Pr/twoback(1)_v2.xlsx,New rule: Press 'space' when you see 2-back (i.e. the same letter as the one that appeared 2 letters ago.),r,None,,,,,0,2,2,2,0,0,0,0,,,,,,,,,,,,,,,,,,,,,,,,,,,,,,,,,526.3086680000006,None,529.2949010000002,None,space,0.5872391000002608,529.2949010000002,None,526.3086680000006,None,1.365,529.9106534000002,None,531.2765518000006,None,None,1,,531.2765518000006,None,533.2833369,None,,,,,,,,,,,,,,,,,,,,,,,,,,,,,,,P046,fencog,2,Pre,2022_May_24_1115,N-Back (New Version 2021),2021.1.4,120.12517042713247,
Conditions/Version_2Pr/twoback(1)_v2.xlsx,New rule: Press 'space' when you see 2-back (i.e. the same letter as the one that appeared 2 letters ago.),P,None,,,,,0,2,2,2,0,1,1,1,,,,,,,,,,,,,,,,,,,,,,,,,,,,,,,,,,,,,,,,,,,1.115,534.7828620999999,None,535.9001591000006,None,None,1,,535.9001591000006,None,537.9069663999999,None,,,,,,,,,,,,,,,,,,,,,,,,,,,,,,,P046,fencog,2,Pre,2022_May_24_1115,N-Back (New Version 2021),2021.1.4,120.12517042713247,
Conditions/Version_2Pr/twoback(1)_v2.xlsx,New rule: Press 'space' when you see 2-back (i.e. the same letter as the one that appeared 2 letters ago.),o,None,,,,,0,2,2,2,0,2,2,2,,,,,,,,,,,,,,,,,,,,,,,,,,,,,,,,,,,,,,,,,,,1.74,539.4064968000002,None,541.1497337000001,None,None,1,,541.1497337000001,None,543.1553787000003,None,,,,,,,,,,,,,,,,,,,,,,,,,,,,,,,P046,fencog,2,Pre,2022_May_24_1115,N-Back (New Version 2021),2021.1.4,120.12517042713247,
Conditions/Version_2Pr/twoback(1)_v2.xlsx,New rule: Press 'space' when you see 2-back (i.e. the same letter as the one that appeared 2 letters ago.),p,space,,,,,0,2,2,2,0,3,3,3,,,,,,,,,,,,,,,,,,,,,,,,,,,,,,,,,,,,,,,,,,,1.965,544.6549036000006,None,546.6226375000006,None,space,1,0.3713433000002624,546.6226375000006,None,547.0057002000003,None,,,,,,,,,,,,,,,,,,,,,,,,,,,,,,,P046,fencog,2,Pre,2022_May_24_1115,N-Back (New Version 2021),2021.1.4,120.12517042713247,
Conditions/Version_2Pr/twoback(1)_v2.xlsx,New rule: Press 'space' when you see 2-back (i.e. the same letter as the one that appeared 2 letters ago.),Y,None,,,,,0,2,2,2,0,4,4,4,,,,,,,,,,,,,,,,,,,,,,,,,,,,,,,,,,,,,,,,,,,1.24,548.5121739000006,None,549.7536125000006,None,None,1,,549.7536125000006,None,551.7518593000004,None,,,,,,,,,,,,,,,,,,,,,,,,,,,,,,,P046,fencog,2,Pre,2022_May_24_1115,N-Back (New Version 2021),2021.1.4,120.12517042713247,
Conditions/Version_2Pr/twoback(1)_v2.xlsx,New rule: Press 'space' when you see 2-back (i.e. the same letter as the one that appeared 2 letters ago.),q,None,,,,,0,2,2,2,0,5,5,5,,,,,,,,,,,,,,,,,,,,,,,,,,,,,,,,,,,,,,,,,,,1.34,553.2534155000003,None,554.5939156000004,None,None,1,,554.5939156000004,None,556.5928060000006,None,,,,,,,,,,,,,,,,,,,,,,,,,,,,,,,P046,fencog,2,Pre,2022_May_24_1115,N-Back (New Version 2021),2021.1.4,120.12517042713247,
Conditions/Version_2Pr/twoback(1)_v2.xlsx,New rule: Press 'space' when you see 2-back (i.e. the same letter as the one that appeared 2 letters ago.),m,None,,,,,0,2,2,2,0,6,6,6,,,,,,,,,,,,,,,,,,,,,,,,,,,,,,,,,,,,,,,,,,,1.09,558.0923600000006,None,559.1837562999999,None,None,1,,559.1837562999999,None,561.1833775000005,None,,,,,,,,,,,,,,,,,,,,,,,,,,,,,,,P046,fencog,2,Pre,2022_May_24_1115,N-Back (New Version 2021),2021.1.4,120.12517042713247,
Conditions/Version_2Pr/twoback(1)_v2.xlsx,New rule: Press 'space' when you see 2-back (i.e. the same letter as the one that appeared 2 letters ago.),Q,space,,,,,0,2,2,2,0,7,7,7,,,,,,,,,,,,,,,,,,,,,,,,,,,,,,,,,,,,,,,,,,,1.94,562.6828931999999,None,564.6254776000005,None,space,1,0.5205715000001874,564.6254776000005,None,565.1587196999999,None,,,,,,,,,,,,,,,,,,,,,,,,,,,,,,,P046,fencog,2,Pre,2022_May_24_1115,N-Back (New Version 2021),2021.1.4,120.12517042713247,
Conditions/Version_2Pr/twoback(1)_v2.xlsx,New rule: Press 'space' when you see 2-back (i.e. the same letter as the one that appeared 2 letters ago.),L,None,,,,,0,2,2,2,0,8,8,8,,,,,,,,,,,,,,,,,,,,,,,,,,,,,,,,,,,,,,,,,,,1.69,566.6651093999999,None,568.3591203000005,None,None,1,,568.3591203000005,None,570.3639266,None,,,,,,,,,,,,,,,,,,,,,,,,,,,,,,,P046,fencog,2,Pre,2022_May_24_1115,N-Back (New Version 2021),2021.1.4,120.12517042713247,
Conditions/Version_2Pr/twoback(1)_v2.xlsx,New rule: Press 'space' when you see 2-back (i.e. the same letter as the one that appeared 2 letters ago.),q,space,,,,,0,2,2,2,0,9,9,9,,,,,,,,,,,,,,,,,,,,,,,,,,,,,,,,,,,,,,,,,,,1.84,571.8635740999998,None,573.7046080999999,None,space,1,0.4175265000003492,573.7046080999999,None,574.1321550000002,None,,,,,,,,,,,,,,,,,,,,,,,,,,,,,,,P046,fencog,2,Pre,2022_May_24_1115,N-Back (New Version 2021),2021.1.4,120.12517042713247,
Conditions/Version_2Pr/twoback(1)_v2.xlsx,New rule: Press 'space' when you see 2-back (i.e. the same letter as the one that appeared 2 letters ago.),,,,,,,0,2,2,2,,,,,,,,,,,,,,,,,,,,,,,,,,,,,,,,,,,,,,,,,,,,,,,,,,,,,,,,,,,,,,,,,,,,,,,,,,,,,,,,,,,,,,,,,P046,fencog,2,Pre,2022_May_24_1115,N-Back (New Version 2021),2021.1.4,120.12517042713247,
Conditions/Version_2Pr/threeback(1)_v2.xlsx,New rule: Press 'space' when you see 3-back (i.e. the same letter as the one that appeared 3 letters ago.),u,None,,,,,0,3,3,3,0,0,0,0,,,,,,,,,,,,,,,,,,,,,,,,,,,,,,,,,575.6602865000004,None,578.6476729000005,None,space,0.5063887000005707,578.6476729000005,None,575.6602865000004,None,1.415,579.1862588000004,None,580.6052528,None,None,1,,580.6052528,None,582.6103706000004,None,,,,,,,,,,,,,,,,,,,,,,,,,,,,,,,P046,fencog,2,Pre,2022_May_24_1115,N-Back (New Version 2021),2021.1.4,120.12517042713247,
Conditions/Version_2Pr/threeback(1)_v2.xlsx,New rule: Press 'space' when you see 3-back (i.e. the same letter as the one that appeared 3 letters ago.),U,None,,,,,0,3,3,3,0,1,1,1,,,,,,,,,,,,,,,,,,,,,,,,,,,,,,,,,,,,,,,,,,,1.04,584.1099906999998,None,585.1513218,None,space,0,0.7548319999996238,585.1513218,None,585.9239691000002,None,,,,,,,,,,,,,,,,,,,,,,,,,,,,,,,P046,fencog,2,Pre,2022_May_24_1115,N-Back (New Version 2021),2021.1.4,120.12517042713247,
Conditions/Version_2Pr/threeback(1)_v2.xlsx,New rule: Press 'space' when you see 3-back (i.e. the same letter as the one that appeared 3 letters ago.),p,None,,,,,0,3,3,3,0,2,2,2,,,,,,,,,,,,,,,,,,,,,,,,,,,,,,,,,,,,,,,,,,,1.74,587.4255456999999,None,589.1665469,None,None,1,,589.1665469,None,591.1690560000006,None,,,,,,,,,,,,,,,,,,,,,,,,,,,,,,,P046,fencog,2,Pre,2022_May_24_1115,N-Back (New Version 2021),2021.1.4,120.12517042713247,
Conditions/Version_2Pr/threeback(1)_v2.xlsx,New rule: Press 'space' when you see 3-back (i.e. the same letter as the one that appeared 3 letters ago.),U,space,,,,,0,3,3,3,0,3,3,3,,,,,,,,,,,,,,,,,,,,,,,,,,,,,,,,,,,,,,,,,,,1.315,592.6740132000004,None,593.9914193000004,None,space,1,0.7306951000000481,593.9914193000004,None,594.7333145000002,None,,,,,,,,,,,,,,,,,,,,,,,,,,,,,,,P046,fencog,2,Pre,2022_May_24_1115,N-Back (New Version 2021),2021.1.4,120.12517042713247,
Conditions/Version_2Pr/threeback(1)_v2.xlsx,New rule: Press 'space' when you see 3-back (i.e. the same letter as the one that appeared 3 letters ago.),e,None,,,,,0,3,3,3,0,4,4,4,,,,,,,,,,,,,,,,,,,,,,,,,,,,,,,,,,,,,,,,,,,1.615,596.2396533000001,None,597.8567981000006,None,None,1,,597.8567981000006,None,599.8635874000001,None,,,,,,,,,,,,,,,,,,,,,,,,,,,,,,,P046,fencog,2,Pre,2022_May_24_1115,N-Back (New Version 2021),2021.1.4,120.12517042713247,
Conditions/Version_2Pr/threeback(1)_v2.xlsx,New rule: Press 'space' when you see 3-back (i.e. the same letter as the one that appeared 3 letters ago.),R,None,,,,,0,3,3,3,0,5,5,5,,,,,,,,,,,,,,,,,,,,,,,,,,,,,,,,,,,,,,,,,,,1.99,601.3629434000004,None,603.3578011999998,None,None,1,,603.3578011999998,None,605.3619250000002,None,,,,,,,,,,,,,,,,,,,,,,,,,,,,,,,P046,fencog,2,Pre,2022_May_24_1115,N-Back (New Version 2021),2021.1.4,120.12517042713247,
Conditions/Version_2Pr/threeback(1)_v2.xlsx,New rule: Press 'space' when you see 3-back (i.e. the same letter as the one that appeared 3 letters ago.),p,None,,,,,0,3,3,3,0,6,6,6,,,,,,,,,,,,,,,,,,,,,,,,,,,,,,,,,,,,,,,,,,,1.665,606.8615821000003,None,608.5284687000003,None,None,1,,608.5284687000003,None,610.5275650000003,None,,,,,,,,,,,,,,,,,,,,,,,,,,,,,,,P046,fencog,2,Pre,2022_May_24_1115,N-Back (New Version 2021),2021.1.4,120.12517042713247,
Conditions/Version_2Pr/threeback(1)_v2.xlsx,New rule: Press 'space' when you see 3-back (i.e. the same letter as the one that appeared 3 letters ago.),E,space,,,,,0,3,3,3,0,7,7,7,,,,,,,,,,,,,,,,,,,,,,,,,,,,,,,,,,,,,,,,,,,1.29,612.0266478000003,None,613.3195153000006,None,space,1,0.7065460000003441,613.3195153000006,None,614.0373405999999,None,,,,,,,,,,,,,,,,,,,,,,,,,,,,,,,P046,fencog,2,Pre,2022_May_24_1115,N-Back (New Version 2021),2021.1.4,120.12517042713247,
Conditions/Version_2Pr/threeback(1)_v2.xlsx,New rule: Press 'space' when you see 3-back (i.e. the same letter as the one that appeared 3 letters ago.),k,None,,,,,0,3,3,3,0,8,8,8,,,,,,,,,,,,,,,,,,,,,,,,,,,,,,,,,,,,,,,,,,,1.64,615.5422880000006,None,617.1881008,None,None,1,,617.1881008,None,619.1933084000002,None,,,,,,,,,,,,,,,,,,,,,,,,,,,,,,,P046,fencog,2,Pre,2022_May_24_1115,N-Back (New Version 2021),2021.1.4,120.12517042713247,
Conditions/Version_2Pr/threeback(1)_v2.xlsx,New rule: Press 'space' when you see 3-back (i.e. the same letter as the one that appeared 3 letters ago.),m,None,,,,,0,3,3,3,0,9,9,9,,,,,,,,,,,,,,,,,,,,,,,,,,,,,,,,,,,,,,,,,,,1.39,620.6908000000003,None,622.0829060000005,None,None,1,,622.0829060000005,None,624.0855355000003,None,,,,,,,,,,,,,,,,,,,,,,,,,,,,,,,P046,fencog,2,Pre,2022_May_24_1115,N-Back (New Version 2021),2021.1.4,120.12517042713247,
Conditions/Version_2Pr/threeback(1)_v2.xlsx,New rule: Press 'space' when you see 3-back (i.e. the same letter as the one that appeared 3 letters ago.),,,,,,,0,3,3,3,,,,,,,,,,,,,,,,,,,,,,,,,,,,,,,,,,,,,,,,,,,,,,,,,,,,,,,,,,,,,,,,,,,,,,,,,,,,,,,,,,,,,,,,,P046,fencog,2,Pre,2022_May_24_1115,N-Back (New Version 2021),2021.1.4,120.12517042713247,
,,,,,,,,,,,,,,,,,,,,,,,,,,,,,,,,,,,,,,,,,,,,,,,,,,,,,,,,,,,,,,,,,,,,,,625.5977428000006,None,space,2.976431400000365,626.0894830000007,None,,,,,,,,,,,,,,,,,,,,,,,,,P046,fencog,2,Pre,2022_May_24_1115,N-Back (New Version 2021),2021.1.4,120.12517042713247,
,,,,,,,,,,,,,,,,,,,,,,,,,,,,,,,,,,,,,,,,,,,,,,,,,,,,,,,,,,,,,,,,,,,,,,,,,,,,629.0951429000006,None,space,6.757536600000094,629.5886859000002,None,,,,,,,,,,,,,,,,,,,P046,fencog,2,Pre,2022_May_24_1115,N-Back (New Version 2021),2021.1.4,120.12517042713247,
,,,,Conditions/Version_1/zeroback(1)_v1.xlsx,Rule: Press 'space' when you see the letter 'x' or 'X'.,b,None,,,,,,,,,0,0,0,0,0,0,0,0,,,,,,,,,,,,,,,,,,,,,,,,,,,,,,,,,,,,,,,,,,,,,,,,,,,,,,,,,,,636.4548905000001,None,639.4373664000004,None,space,120.86059829999977,639.4373664000004,None,636.4548905000001,None,1.2456,761.5767826000001,None,None,1,761.5767826000001,None,,P046,fencog,2,Pre,2022_May_24_1115,N-Back (New Version 2021),2021.1.4,120.12517042713247,
,,,,Conditions/Version_1/zeroback(1)_v1.xlsx,Rule: Press 'space' when you see the letter 'x' or 'X'.,T,None,,,,,,,,,0,0,0,0,0,1,1,1,,,,,,,,,,,,,,,,,,,,,,,,,,,,,,,,,,,,,,,,,,,,,,,,,,,,,,,,,,,,,,,,,,,,,1.9524,765.5405853000002,None,None,1,765.5405853000002,None,,P046,fencog,2,Pre,2022_May_24_1115,N-Back (New Version 2021),2021.1.4,120.12517042713247,
,,,,Conditions/Version_1/zeroback(1)_v1.xlsx,Rule: Press 'space' when you see the letter 'x' or 'X'.,L,None,,,,,,,,,0,0,0,0,0,2,2,2,,,,,,,,,,,,,,,,,,,,,,,,,,,,,,,,,,,,,,,,,,,,,,,,,,,,,,,,,,,,,,,,,,,,,1.7044,769.2553715000004,None,None,1,769.2553715000004,None,,P046,fencog,2,Pre,2022_May_24_1115,N-Back (New Version 2021),2021.1.4,120.12517042713247,
,,,,Conditions/Version_1/zeroback(1)_v1.xlsx,Rule: Press 'space' when you see the letter 'x' or 'X'.,x,space,,,,,,,,,0,0,0,0,0,3,3,3,,,,,,,,,,,,,,,,,,,,,,,,,,,,,,,,,,,,,,,,,,,,,,,,,,,,,,,,,,,,,,,,,,,,,1.9834,773.2385414999999,None,space,1,773.2385414999999,None,0.33146600000054605,P046,fencog,2,Pre,2022_May_24_1115,N-Back (New Version 2021),2021.1.4,120.12517042713247,
,,,,Conditions/Version_1/zeroback(1)_v1.xlsx,Rule: Press 'space' when you see the letter 'x' or 'X'.,o,None,,,,,,,,,0,0,0,0,0,4,4,4,,,,,,,,,,,,,,,,,,,,,,,,,,,,,,,,,,,,,,,,,,,,,,,,,,,,,,,,,,,,,,,,,,,,,1.4564,776.7037301999999,None,None,1,776.7037301999999,None,,P046,fencog,2,Pre,2022_May_24_1115,N-Back (New Version 2021),2021.1.4,120.12517042713247,
,,,,Conditions/Version_1/zeroback(1)_v1.xlsx,Rule: Press 'space' when you see the letter 'x' or 'X'.,P,None,,,,,,,,,0,0,0,0,0,5,5,5,,,,,,,,,,,,,,,,,,,,,,,,,,,,,,,,,,,,,,,,,,,,,,,,,,,,,,,,,,,,,,,,,,,,,1.5184,780.2350640000004,None,None,1,780.2350640000004,None,,P046,fencog,2,Pre,2022_May_24_1115,N-Back (New Version 2021),2021.1.4,120.12517042713247,
,,,,Conditions/Version_1/zeroback(1)_v1.xlsx,Rule: Press 'space' when you see the letter 'x' or 'X'.,X,space,,,,,,,,,0,0,0,0,0,6,6,6,,,,,,,,,,,,,,,,,,,,,,,,,,,,,,,,,,,,,,,,,,,,,,,,,,,,,,,,,,,,,,,,,,,,,1.041,783.2758382000002,None,space,1,783.2758382000002,None,0.36611200000061217,P046,fencog,2,Pre,2022_May_24_1115,N-Back (New Version 2021),2021.1.4,120.12517042713247,
,,,,Conditions/Version_1/zeroback(1)_v1.xlsx,Rule: Press 'space' when you see the letter 'x' or 'X'.,n,None,,,,,,,,,0,0,0,0,0,7,7,7,,,,,,,,,,,,,,,,,,,,,,,,,,,,,,,,,,,,,,,,,,,,,,,,,,,,,,,,,,,,,,,,,,,,,1.506,786.7895724999998,None,None,1,786.7895724999998,None,,P046,fencog,2,Pre,2022_May_24_1115,N-Back (New Version 2021),2021.1.4,120.12517042713247,
,,,,Conditions/Version_1/zeroback(1)_v1.xlsx,Rule: Press 'space' when you see the letter 'x' or 'X'.,M,None,,,,,,,,,0,0,0,0,0,8,8,8,,,,,,,,,,,,,,,,,,,,,,,,,,,,,,,,,,,,,,,,,,,,,,,,,,,,,,,,,,,,,,,,,,,,,1.1092,789.9106504000001,None,None,1,789.9106504000001,None,,P046,fencog,2,Pre,2022_May_24_1115,N-Back (New Version 2021),2021.1.4,120.12517042713247,
,,,,Conditions/Version_1/zeroback(1)_v1.xlsx,Rule: Press 'space' when you see the letter 'x' or 'X'.,a,None,,,,,,,,,0,0,0,0,0,9,9,9,,,,,,,,,,,,,,,,,,,,,,,,,,,,,,,,,,,,,,,,,,,,,,,,,,,,,,,,,,,,,,,,,,,,,1.8532,793.7749711000006,None,None,1,793.7749711000006,None,,P046,fencog,2,Pre,2022_May_24_1115,N-Back (New Version 2021),2021.1.4,120.12517042713247,
,,,,Conditions/Version_1/zeroback(1)_v1.xlsx,Rule: Press 'space' when you see the letter 'x' or 'X'.,,,,,,,,,,,0,0,0,0,,,,,,,,,,,,,,,,,,,,,,,,,,,,,,,,,,,,,,,,,,,,,,,,,,,,,,,,,,,,,,,,,,,,,,,,,,,,,,,,,P046,fencog,2,Pre,2022_May_24_1115,N-Back (New Version 2021),2021.1.4,120.12517042713247,
,,,,Conditions/Version_1/oneback(1)_v1.xlsx,New rule: Press 'space' when you see 1-back (i.e. the same letter as the one that appeared 1 letter ago.),b,None,,,,,,,,,0,1,1,1,0,0,0,0,,,,,,,,,,,,,,,,,,,,,,,,,,,,,,,,,,,,,,,,,,,,,,,,,,,,,,,,,,,795.8106870000001,None,798.7813870999998,None,space,1.2605985000000146,798.7813870999998,None,795.8106870000001,None,1.723,801.7964204,None,None,1,801.7964204,None,,P046,fencog,2,Pre,2022_May_24_1115,N-Back (New Version 2021),2021.1.4,120.12517042713247,
,,,,Conditions/Version_1/oneback(1)_v1.xlsx,New rule: Press 'space' when you see 1-back (i.e. the same letter as the one that appeared 1 letter ago.),p,None,,,,,,,,,0,1,1,1,0,1,1,1,,,,,,,,,,,,,,,,,,,,,,,,,,,,,,,,,,,,,,,,,,,,,,,,,,,,,,,,,,,,,,,,,,,,,1.6424,805.4443271,None,None,1,805.4443271,None,,P046,fencog,2,Pre,2022_May_24_1115,N-Back (New Version 2021),2021.1.4,120.12517042713247,
,,,,Conditions/Version_1/oneback(1)_v1.xlsx,New rule: Press 'space' when you see 1-back (i.e. the same letter as the one that appeared 1 letter ago.),M,None,,,,,,,,,0,1,1,1,0,2,2,2,,,,,,,,,,,,,,,,,,,,,,,,,,,,,,,,,,,,,,,,,,,,,,,,,,,,,,,,,,,,,,,,,,,,,1.692,809.1358748000002,None,None,1,809.1358748000002,None,,P046,fencog,2,Pre,2022_May_24_1115,N-Back (New Version 2021),2021.1.4,120.12517042713247,
,,,,Conditions/Version_1/oneback(1)_v1.xlsx,New rule: Press 'space' when you see 1-back (i.e. the same letter as the one that appeared 1 letter ago.),M,space,,,,,,,,,0,1,1,1,0,3,3,3,,,,,,,,,,,,,,,,,,,,,,,,,,,,,,,,,,,,,,,,,,,,,,,,,,,,,,,,,,,,,,,,,,,,,1.1464,812.2922660000004,None,space,1,812.2922660000004,None,0.44555289999971137,P046,fencog,2,Pre,2022_May_24_1115,N-Back (New Version 2021),2021.1.4,120.12517042713247,
,,,,Conditions/Version_1/oneback(1)_v1.xlsx,New rule: Press 'space' when you see 1-back (i.e. the same letter as the one that appeared 1 letter ago.),n,None,,,,,,,,,0,1,1,1,0,4,4,4,,,,,,,,,,,,,,,,,,,,,,,,,,,,,,,,,,,,,,,,,,,,,,,,,,,,,,,,,,,,,,,,,,,,,1.816,816.1098867999999,None,None,1,816.1098867999999,None,,P046,fencog,2,Pre,2022_May_24_1115,N-Back (New Version 2021),2021.1.4,120.12517042713247,
,,,,Conditions/Version_1/oneback(1)_v1.xlsx,New rule: Press 'space' when you see 1-back (i.e. the same letter as the one that appeared 1 letter ago.),g,None,,,,,,,,,0,1,1,1,0,5,5,5,,,,,,,,,,,,,,,,,,,,,,,,,,,,,,,,,,,,,,,,,,,,,,,,,,,,,,,,,,,,,,,,,,,,,1.2642,819.3832726999999,None,None,1,819.3832726999999,None,,P046,fencog,2,Pre,2022_May_24_1115,N-Back (New Version 2021),2021.1.4,120.12517042713247,
,,,,Conditions/Version_1/oneback(1)_v1.xlsx,New rule: Press 'space' when you see 1-back (i.e. the same letter as the one that appeared 1 letter ago.),P,None,,,,,,,,,0,1,1,1,0,6,6,6,,,,,,,,,,,,,,,,,,,,,,,,,,,,,,,,,,,,,,,,,,,,,,,,,,,,,,,,,,,,,,,,,,,,,1.4006,822.797423,None,None,1,822.797423,None,,P046,fencog,2,Pre,2022_May_24_1115,N-Back (New Version 2021),2021.1.4,120.12517042713247,
,,,,Conditions/Version_1/oneback(1)_v1.xlsx,New rule: Press 'space' when you see 1-back (i.e. the same letter as the one that appeared 1 letter ago.),o,None,,,,,,,,,0,1,1,1,0,7,7,7,,,,,,,,,,,,,,,,,,,,,,,,,,,,,,,,,,,,,,,,,,,,,,,,,,,,,,,,,,,,,,,,,,,,,1.01,825.8150362000006,None,None,1,825.8150362000006,None,,P046,fencog,2,Pre,2022_May_24_1115,N-Back (New Version 2021),2021.1.4,120.12517042713247,
,,,,Conditions/Version_1/oneback(1)_v1.xlsx,New rule: Press 'space' when you see 1-back (i.e. the same letter as the one that appeared 1 letter ago.),f,None,,,,,,,,,0,1,1,1,0,8,8,8,,,,,,,,,,,,,,,,,,,,,,,,,,,,,,,,,,,,,,,,,,,,,,,,,,,,,,,,,,,,,,,,,,,,,1.0286,828.8502905000005,None,None,1,828.8502905000005,None,,P046,fencog,2,Pre,2022_May_24_1115,N-Back (New Version 2021),2021.1.4,120.12517042713247,
,,,,Conditions/Version_1/oneback(1)_v1.xlsx,New rule: Press 'space' when you see 1-back (i.e. the same letter as the one that appeared 1 letter ago.),F,space,,,,,,,,,0,1,1,1,0,9,9,9,,,,,,,,,,,,,,,,,,,,,,,,,,,,,,,,,,,,,,,,,,,,,,,,,,,,,,,,,,,,,,,,,,,,,1.7974,832.6541940000006,None,space,1,832.6541940000006,None,0.4196559000001798,P046,fencog,2,Pre,2022_May_24_1115,N-Back (New Version 2021),2021.1.4,120.12517042713247,
,,,,Conditions/Version_1/oneback(1)_v1.xlsx,New rule: Press 'space' when you see 1-back (i.e. the same letter as the one that appeared 1 letter ago.),,,,,,,,,,,0,1,1,1,,,,,,,,,,,,,,,,,,,,,,,,,,,,,,,,,,,,,,,,,,,,,,,,,,,,,,,,,,,,,,,,,,,,,,,,,,,,,,,,,P046,fencog,2,Pre,2022_May_24_1115,N-Back (New Version 2021),2021.1.4,120.12517042713247,
,,,,Conditions/Version_1/twoback(1)_v1.xlsx,New rule: Press 'space' when you see 2-back (i.e. the same letter as the one that appeared 2 letters ago.),b,None,,,,,,,,,0,2,2,2,0,0,0,0,,,,,,,,,,,,,,,,,,,,,,,,,,,,,,,,,,,,,,,,,,,,,,,,,,,,,,,,,,,834.6826182000004,None,837.6704909,None,space,0.35547980000046664,837.6704909,None,834.6826182000004,None,1.7106,839.7676030000002,None,None,1,839.7676030000002,None,,P046,fencog,2,Pre,2022_May_24_1115,N-Back (New Version 2021),2021.1.4,120.12517042713247,
,,,,Conditions/Version_1/twoback(1)_v1.xlsx,New rule: Press 'space' when you see 2-back (i.e. the same letter as the one that appeared 2 letters ago.),h,None,,,,,,,,,0,2,2,2,0,1,1,1,,,,,,,,,,,,,,,,,,,,,,,,,,,,,,,,,,,,,,,,,,,,,,,,,,,,,,,,,,,,,,,,,,,,,1.9586,843.7265633000006,None,None,1,843.7265633000006,None,,P046,fencog,2,Pre,2022_May_24_1115,N-Back (New Version 2021),2021.1.4,120.12517042713247,
,,,,Conditions/Version_1/twoback(1)_v1.xlsx,New rule: Press 'space' when you see 2-back (i.e. the same letter as the one that appeared 2 letters ago.),j,None,,,,,,,,,0,2,2,2,0,2,2,2,,,,,,,,,,,,,,,,,,,,,,,,,,,,,,,,,,,,,,,,,,,,,,,,,,,,,,,,,,,,,,,,,,,,,1.723,847.4595276999999,None,None,1,847.4595276999999,None,,P046,fencog,2,Pre,2022_May_24_1115,N-Back (New Version 2021),2021.1.4,120.12517042713247,
,,,,Conditions/Version_1/twoback(1)_v1.xlsx,New rule: Press 'space' when you see 2-back (i.e. the same letter as the one that appeared 2 letters ago.),H,space,,,,,,,,,0,2,2,2,0,3,3,3,,,,,,,,,,,,,,,,,,,,,,,,,,,,,,,,,,,,,,,,,,,,,,,,,,,,,,,,,,,,,,,,,,,,,1.5122,850.9818257000006,None,space,1,850.9818257000006,None,0.4200205000006463,P046,fencog,2,Pre,2022_May_24_1115,N-Back (New Version 2021),2021.1.4,120.12517042713247,
,,,,Conditions/Version_1/twoback(1)_v1.xlsx,New rule: Press 'space' when you see 2-back (i.e. the same letter as the one that appeared 2 letters ago.),p,None,,,,,,,,,0,2,2,2,0,4,4,4,,,,,,,,,,,,,,,,,,,,,,,,,,,,,,,,,,,,,,,,,,,,,,,,,,,,,,,,,,,,,,,,,,,,,1.7974,854.7892019000001,None,None,1,854.7892019000001,None,,P046,fencog,2,Pre,2022_May_24_1115,N-Back (New Version 2021),2021.1.4,120.12517042713247,
,,,,Conditions/Version_1/twoback(1)_v1.xlsx,New rule: Press 'space' when you see 2-back (i.e. the same letter as the one that appeared 2 letters ago.),p,None,,,,,,,,,0,2,2,2,0,5,5,5,,,,,,,,,,,,,,,,,,,,,,,,,,,,,,,,,,,,,,,,,,,,,,,,,,,,,,,,,,,,,,,,,,,,,1.6486,858.4455347000003,None,None,1,858.4455347000003,None,,P046,fencog,2,Pre,2022_May_24_1115,N-Back (New Version 2021),2021.1.4,120.12517042713247,
,,,,Conditions/Version_1/twoback(1)_v1.xlsx,New rule: Press 'space' when you see 2-back (i.e. the same letter as the one that appeared 2 letters ago.),w,None,,,,,,,,,0,2,2,2,0,6,6,6,,,,,,,,,,,,,,,,,,,,,,,,,,,,,,,,,,,,,,,,,,,,,,,,,,,,,,,,,,,,,,,,,,,,,1.8594,862.3141872000006,None,None,1,862.3141872000006,None,,P046,fencog,2,Pre,2022_May_24_1115,N-Back (New Version 2021),2021.1.4,120.12517042713247,
,,,,Conditions/Version_1/twoback(1)_v1.xlsx,New rule: Press 'space' when you see 2-back (i.e. the same letter as the one that appeared 2 letters ago.),R,None,,,,,,,,,0,2,2,2,0,7,7,7,,,,,,,,,,,,,,,,,,,,,,,,,,,,,,,,,,,,,,,,,,,,,,,,,,,,,,,,,,,,,,,,,,,,,1.7168,866.0365898999999,None,None,1,866.0365898999999,None,,P046,fencog,2,Pre,2022_May_24_1115,N-Back (New Version 2021),2021.1.4,120.12517042713247,
,,,,Conditions/Version_1/twoback(1)_v1.xlsx,New rule: Press 'space' when you see 2-back (i.e. the same letter as the one that appeared 2 letters ago.),a,None,,,,,,,,,0,2,2,2,0,8,8,8,,,,,,,,,,,,,,,,,,,,,,,,,,,,,,,,,,,,,,,,,,,,,,,,,,,,,,,,,,,,,,,,,,,,,1.0162,869.0599220000004,None,None,1,869.0599220000004,None,,P046,fencog,2,Pre,2022_May_24_1115,N-Back (New Version 2021),2021.1.4,120.12517042713247,
,,,,Conditions/Version_1/twoback(1)_v1.xlsx,New rule: Press 'space' when you see 2-back (i.e. the same letter as the one that appeared 2 letters ago.),r,space,,,,,,,,,0,2,2,2,0,9,9,9,,,,,,,,,,,,,,,,,,,,,,,,,,,,,,,,,,,,,,,,,,,,,,,,,,,,,,,,,,,,,,,,,,,,,1.9648,873.0328322000005,None,space,1,873.0328322000005,None,0.44106079999983194,P046,fencog,2,Pre,2022_May_24_1115,N-Back (New Version 2021),2021.1.4,120.12517042713247,
,,,,Conditions/Version_1/twoback(1)_v1.xlsx,New rule: Press 'space' when you see 2-back (i.e. the same letter as the one that appeared 2 letters ago.),,,,,,,,,,,0,2,2,2,,,,,,,,,,,,,,,,,,,,,,,,,,,,,,,,,,,,,,,,,,,,,,,,,,,,,,,,,,,,,,,,,,,,,,,,,,,,,,,,,P046,fencog,2,Pre,2022_May_24_1115,N-Back (New Version 2021),2021.1.4,120.12517042713247,
,,,,Conditions/Version_1/threeback(1)_v1.xlsx,New rule: Press 'space' when you see 3-back (i.e. the same letter as the one that appeared 3 letters ago.),r,None,,,,,,,,,0,3,3,3,0,0,0,0,,,,,,,,,,,,,,,,,,,,,,,,,,,,,,,,,,,,,,,,,,,,,,,,,,,,,,,,,,,875.0544590999998,None,878.0417815000001,None,space,0.024087700000563927,878.0417815000001,None,875.0544590999998,None,1.3014,879.4060049,None,None,1,879.4060049,None,,P046,fencog,2,Pre,2022_May_24_1115,N-Back (New Version 2021),2021.1.4,120.12517042713247,
,,,,Conditions/Version_1/threeback(1)_v1.xlsx,New rule: Press 'space' when you see 3-back (i.e. the same letter as the one that appeared 3 letters ago.),o,None,,,,,,,,,0,3,3,3,0,1,1,1,,,,,,,,,,,,,,,,,,,,,,,,,,,,,,,,,,,,,,,,,,,,,,,,,,,,,,,,,,,,,,,,,,,,,1.475,882.8797609000003,None,None,1,882.8797609000003,None,,P046,fencog,2,Pre,2022_May_24_1115,N-Back (New Version 2021),2021.1.4,120.12517042713247,
,,,,Conditions/Version_1/threeback(1)_v1.xlsx,New rule: Press 'space' when you see 3-back (i.e. the same letter as the one that appeared 3 letters ago.),P,None,,,,,,,,,0,3,3,3,0,2,2,2,,,,,,,,,,,,,,,,,,,,,,,,,,,,,,,,,,,,,,,,,,,,,,,,,,,,,,,,,,,,,,,,,,,,,1.289,886.1706177000005,None,None,1,886.1706177000005,None,,P046,fencog,2,Pre,2022_May_24_1115,N-Back (New Version 2021),2021.1.4,120.12517042713247,
,,,,Conditions/Version_1/threeback(1)_v1.xlsx,New rule: Press 'space' when you see 3-back (i.e. the same letter as the one that appeared 3 letters ago.),R,space,,,,,,,,,0,3,3,3,0,3,3,3,,,,,,,,,,,,,,,,,,,,,,,,,,,,,,,,,,,,,,,,,,,,,,,,,,,,,,,,,,,,,,,,,,,,,1.0162,889.1932164999998,None,space,1,889.1932164999998,None,0.6006767999997464,P046,fencog,2,Pre,2022_May_24_1115,N-Back (New Version 2021),2021.1.4,120.12517042713247,
,,,,Conditions/Version_1/threeback(1)_v1.xlsx,New rule: Press 'space' when you see 3-back (i.e. the same letter as the one that appeared 3 letters ago.),p,None,,,,,,,,,0,3,3,3,0,4,4,4,,,,,,,,,,,,,,,,,,,,,,,,,,,,,,,,,,,,,,,,,,,,,,,,,,,,,,,,,,,,,,,,,,,,,1.6858,892.8850653,None,None,1,892.8850653,None,,P046,fencog,2,Pre,2022_May_24_1115,N-Back (New Version 2021),2021.1.4,120.12517042713247,
,,,,Conditions/Version_1/threeback(1)_v1.xlsx,New rule: Press 'space' when you see 3-back (i.e. the same letter as the one that appeared 3 letters ago.),E,None,,,,,,,,,0,3,3,3,0,5,5,5,,,,,,,,,,,,,,,,,,,,,,,,,,,,,,,,,,,,,,,,,,,,,,,,,,,,,,,,,,,,,,,,,,,,,1.6734,896.5637618999999,None,None,1,896.5637618999999,None,,P046,fencog,2,Pre,2022_May_24_1115,N-Back (New Version 2021),2021.1.4,120.12517042713247,
,,,,Conditions/Version_1/threeback(1)_v1.xlsx,New rule: Press 'space' when you see 3-back (i.e. the same letter as the one that appeared 3 letters ago.),e,None,,,,,,,,,0,3,3,3,0,6,6,6,,,,,,,,,,,,,,,,,,,,,,,,,,,,,,,,,,,,,,,,,,,,,,,,,,,,,,,,,,,,,,,,,,,,,1.2766,899.8534006,None,None,1,899.8534006,None,,P046,fencog,2,Pre,2022_May_24_1115,N-Back (New Version 2021),2021.1.4,120.12517042713247,
,,,,Conditions/Version_1/threeback(1)_v1.xlsx,New rule: Press 'space' when you see 3-back (i.e. the same letter as the one that appeared 3 letters ago.),m,None,,,,,,,,,0,3,3,3,0,7,7,7,,,,,,,,,,,,,,,,,,,,,,,,,,,,,,,,,,,,,,,,,,,,,,,,,,,,,,,,,,,,,,,,,,,,,1.2022,903.0666981000004,None,None,1,903.0666981000004,None,,P046,fencog,2,Pre,2022_May_24_1115,N-Back (New Version 2021),2021.1.4,120.12517042713247,
,,,,Conditions/Version_1/threeback(1)_v1.xlsx,New rule: Press 'space' when you see 3-back (i.e. the same letter as the one that appeared 3 letters ago.),n,None,,,,,,,,,0,3,3,3,0,8,8,8,,,,,,,,,,,,,,,,,,,,,,,,,,,,,,,,,,,,,,,,,,,,,,,,,,,,,,,,,,,,,,,,,,,,,1.0348,906.1063174999999,None,None,1,906.1063174999999,None,,P046,fencog,2,Pre,2022_May_24_1115,N-Back (New Version 2021),2021.1.4,120.12517042713247,
,,,,Conditions/Version_1/threeback(1)_v1.xlsx,New rule: Press 'space' when you see 3-back (i.e. the same letter as the one that appeared 3 letters ago.),e,space,,,,,,,,,0,3,3,3,0,9,9,9,,,,,,,,,,,,,,,,,,,,,,,,,,,,,,,,,,,,,,,,,,,,,,,,,,,,,,,,,,,,,,,,,,,,,1.8222,909.9311889999999,None,space,1,909.9311889999999,None,0.46249969999917084,P046,fencog,2,Pre,2022_May_24_1115,N-Back (New Version 2021),2021.1.4,120.12517042713247,
,,,,Conditions/Version_1/threeback(1)_v1.xlsx,New rule: Press 'space' when you see 3-back (i.e. the same letter as the one that appeared 3 letters ago.),,,,,,,,,,,0,3,3,3,,,,,,,,,,,,,,,,,,,,,,,,,,,,,,,,,,,,,,,,,,,,,,,,,,,,,,,,,,,,,,,,,,,,,,,,,,,,,,,,,P046,fencog,2,Pre,2022_May_24_1115,N-Back (New Version 2021),2021.1.4,120.12517042713247,
,,,,Conditions/Version_1/oneback(2)_v1.xlsx,New rule: Press 'space' when you see 1-back (i.e. the same letter as the one that appeared 1 letter ago.),q,None,,,,,,,,,0,4,4,4,0,0,0,0,,,,,,,,,,,,,,,,,,,,,,,,,,,,,,,,,,,,,,,,,,,,,,,,,,,,,,,,,,,911.9598236000002,None,914.9476798000005,None,space,1.4620781999992687,914.9476798000005,None,911.9598236000002,None,1.7602,918.2027713000007,None,None,1,918.2027713000007,None,,P046,fencog,2,Pre,2022_May_24_1115,N-Back (New Version 2021),2021.1.4,120.12517042713247,
,,,,Conditions/Version_1/oneback(2)_v1.xlsx,New rule: Press 'space' when you see 1-back (i.e. the same letter as the one that appeared 1 letter ago.),Q,space,,,,,,,,,0,4,4,4,0,1,1,1,,,,,,,,,,,,,,,,,,,,,,,,,,,,,,,,,,,,,,,,,,,,,,,,,,,,,,,,,,,,,,,,,,,,,1.289,921.4936842000006,None,space,1,921.4936842000006,None,0.9481773999996221,P046,fencog,2,Pre,2022_May_24_1115,N-Back (New Version 2021),2021.1.4,120.12517042713247,
,,,,Conditions/Version_1/oneback(2)_v1.xlsx,New rule: Press 'space' when you see 1-back (i.e. the same letter as the one that appeared 1 letter ago.),P,None,,,,,,,,,0,4,4,4,0,2,2,2,,,,,,,,,,,,,,,,,,,,,,,,,,,,,,,,,,,,,,,,,,,,,,,,,,,,,,,,,,,,,,,,,,,,,1.9276,925.4265357000004,None,None,1,925.4265357000004,None,,P046,fencog,2,Pre,2022_May_24_1115,N-Back (New Version 2021),2021.1.4,120.12517042713247,
,,,,Conditions/Version_1/oneback(2)_v1.xlsx,New rule: Press 'space' when you see 1-back (i.e. the same letter as the one that appeared 1 letter ago.),o,None,,,,,,,,,0,4,4,4,0,3,3,3,,,,,,,,,,,,,,,,,,,,,,,,,,,,,,,,,,,,,,,,,,,,,,,,,,,,,,,,,,,,,,,,,,,,,1.475,928.9079233000002,None,None,1,928.9079233000002,None,,P046,fencog,2,Pre,2022_May_24_1115,N-Back (New Version 2021),2021.1.4,120.12517042713247,
,,,,Conditions/Version_1/oneback(2)_v1.xlsx,New rule: Press 'space' when you see 1-back (i.e. the same letter as the one that appeared 1 letter ago.),m,None,,,,,,,,,0,4,4,4,0,4,4,4,,,,,,,,,,,,,,,,,,,,,,,,,,,,,,,,,,,,,,,,,,,,,,,,,,,,,,,,,,,,,,,,,,,,,1.8284,932.7400371000003,None,None,1,932.7400371000003,None,,P046,fencog,2,Pre,2022_May_24_1115,N-Back (New Version 2021),2021.1.4,120.12517042713247,
,,,,Conditions/Version_1/oneback(2)_v1.xlsx,New rule: Press 'space' when you see 1-back (i.e. the same letter as the one that appeared 1 letter ago.),Z,None,,,,,,,,,0,4,4,4,0,5,5,5,,,,,,,,,,,,,,,,,,,,,,,,,,,,,,,,,,,,,,,,,,,,,,,,,,,,,,,,,,,,,,,,,,,,,1.878,936.6231310000003,None,None,1,936.6231310000003,None,,P046,fencog,2,Pre,2022_May_24_1115,N-Back (New Version 2021),2021.1.4,120.12517042713247,
,,,,Conditions/Version_1/oneback(2)_v1.xlsx,New rule: Press 'space' when you see 1-back (i.e. the same letter as the one that appeared 1 letter ago.),c,None,,,,,,,,,0,4,4,4,0,6,6,6,,,,,,,,,,,,,,,,,,,,,,,,,,,,,,,,,,,,,,,,,,,,,,,,,,,,,,,,,,,,,,,,,,,,,1.4378,940.0731378,None,None,1,940.0731378,None,,P046,fencog,2,Pre,2022_May_24_1115,N-Back (New Version 2021),2021.1.4,120.12517042713247,
,,,,Conditions/Version_1/oneback(2)_v1.xlsx,New rule: Press 'space' when you see 1-back (i.e. the same letter as the one that appeared 1 letter ago.),c,space,,,,,,,,,0,4,4,4,0,7,7,7,,,,,,,,,,,,,,,,,,,,,,,,,,,,,,,,,,,,,,,,,,,,,,,,,,,,,,,,,,,,,,,,,,,,,1.1402,943.2205155000001,None,space,1,943.2205155000001,None,0.5413237000002482,P046,fencog,2,Pre,2022_May_24_1115,N-Back (New Version 2021),2021.1.4,120.12517042713247,
,,,,Conditions/Version_1/oneback(2)_v1.xlsx,New rule: Press 'space' when you see 1-back (i.e. the same letter as the one that appeared 1 letter ago.),P,None,,,,,,,,,0,4,4,4,0,8,8,8,,,,,,,,,,,,,,,,,,,,,,,,,,,,,,,,,,,,,,,,,,,,,,,,,,,,,,,,,,,,,,,,,,,,,1.816,947.0358827,None,None,1,947.0358827,None,,P046,fencog,2,Pre,2022_May_24_1115,N-Back (New Version 2021),2021.1.4,120.12517042713247,
,,,,Conditions/Version_1/oneback(2)_v1.xlsx,New rule: Press 'space' when you see 1-back (i.e. the same letter as the one that appeared 1 letter ago.),p,space,,,,,,,,,0,4,4,4,0,9,9,9,,,,,,,,,,,,,,,,,,,,,,,,,,,,,,,,,,,,,,,,,,,,,,,,,,,,,,,,,,,,,,,,,,,,,1.8966,950.9359190000005,None,space,1,950.9359190000005,None,0.3858073000001241,P046,fencog,2,Pre,2022_May_24_1115,N-Back (New Version 2021),2021.1.4,120.12517042713247,
,,,,Conditions/Version_1/oneback(2)_v1.xlsx,New rule: Press 'space' when you see 1-back (i.e. the same letter as the one that appeared 1 letter ago.),,,,,,,,,,,0,4,4,4,,,,,,,,,,,,,,,,,,,,,,,,,,,,,,,,,,,,,,,,,,,,,,,,,,,,,,,,,,,,,,,,,,,,,,,,,,,,,,,,,P046,fencog,2,Pre,2022_May_24_1115,N-Back (New Version 2021),2021.1.4,120.12517042713247,
,,,,Conditions/Version_1/zeroback(2)_v1.xlsx,New rule: Press 'space' when you see the letter 'x' or 'X'.,p,None,,,,,,,,,0,5,5,5,0,0,0,0,,,,,,,,,,,,,,,,,,,,,,,,,,,,,,,,,,,,,,,,,,,,,,,,,,,,,,,,,,,952.9624871000005,None,955.9517501999999,None,space,0.6579076999996687,955.9517501999999,None,952.9624871000005,None,1.661,958.3075439000004,None,None,1,958.3075439000004,None,,P046,fencog,2,Pre,2022_May_24_1115,N-Back (New Version 2021),2021.1.4,120.12517042713247,
,,,,Conditions/Version_1/zeroback(2)_v1.xlsx,New rule: Press 'space' when you see the letter 'x' or 'X'.,L,None,,,,,,,,,0,5,5,5,0,1,1,1,,,,,,,,,,,,,,,,,,,,,,,,,,,,,,,,,,,,,,,,,,,,,,,,,,,,,,,,,,,,,,,,,,,,,1.134,961.4500959000006,None,None,1,961.4500959000006,None,,P046,fencog,2,Pre,2022_May_24_1115,N-Back (New Version 2021),2021.1.4,120.12517042713247,
,,,,Conditions/Version_1/zeroback(2)_v1.xlsx,New rule: Press 'space' when you see the letter 'x' or 'X'.,G,None,,,,,,,,,0,5,5,5,0,2,2,2,,,,,,,,,,,,,,,,,,,,,,,,,,,,,,,,,,,,,,,,,,,,,,,,,,,,,,,,,,,,,,,,,,,,,1.041,964.5002184000004,None,None,1,964.5002184000004,None,,P046,fencog,2,Pre,2022_May_24_1115,N-Back (New Version 2021),2021.1.4,120.12517042713247,
,,,,Conditions/Version_1/zeroback(2)_v1.xlsx,New rule: Press 'space' when you see the letter 'x' or 'X'.,y,None,,,,,,,,,0,5,5,5,0,3,3,3,,,,,,,,,,,,,,,,,,,,,,,,,,,,,,,,,,,,,,,,,,,,,,,,,,,,,,,,,,,,,,,,,,,,,1.8284,968.3410687000005,None,None,1,968.3410687000005,None,,P046,fencog,2,Pre,2022_May_24_1115,N-Back (New Version 2021),2021.1.4,120.12517042713247,
,,,,Conditions/Version_1/zeroback(2)_v1.xlsx,New rule: Press 'space' when you see the letter 'x' or 'X'.,Y,None,,,,,,,,,0,5,5,5,0,4,4,4,,,,,,,,,,,,,,,,,,,,,,,,,,,,,,,,,,,,,,,,,,,,,,,,,,,,,,,,,,,,,,,,,,,,,1.3386,971.6869600999999,None,None,1,971.6869600999999,None,,P046,fencog,2,Pre,2022_May_24_1115,N-Back (New Version 2021),2021.1.4,120.12517042713247,
,,,,Conditions/Version_1/zeroback(2)_v1.xlsx,New rule: Press 'space' when you see the letter 'x' or 'X'.,W,None,,,,,,,,,0,5,5,5,0,5,5,5,,,,,,,,,,,,,,,,,,,,,,,,,,,,,,,,,,,,,,,,,,,,,,,,,,,,,,,,,,,,,,,,,,,,,1.6548,975.3457635000004,None,None,1,975.3457635000004,None,,P046,fencog,2,Pre,2022_May_24_1115,N-Back (New Version 2021),2021.1.4,120.12517042713247,
,,,,Conditions/Version_1/zeroback(2)_v1.xlsx,New rule: Press 'space' when you see the letter 'x' or 'X'.,x,space,,,,,,,,,0,5,5,5,0,6,6,6,,,,,,,,,,,,,,,,,,,,,,,,,,,,,,,,,,,,,,,,,,,,,,,,,,,,,,,,,,,,,,,,,,,,,1.9648,979.3179650000002,None,space,1,979.3179650000002,None,0.38786090000030526,P046,fencog,2,Pre,2022_May_24_1115,N-Back (New Version 2021),2021.1.4,120.12517042713247,
,,,,Conditions/Version_1/zeroback(2)_v1.xlsx,New rule: Press 'space' when you see the letter 'x' or 'X'.,X,space,,,,,,,,,0,5,5,5,0,7,7,7,,,,,,,,,,,,,,,,,,,,,,,,,,,,,,,,,,,,,,,,,,,,,,,,,,,,,,,,,,,,,,,,,,,,,1.6796,983.0022800000006,None,space,1,983.0022800000006,None,0.44752779999998893,P046,fencog,2,Pre,2022_May_24_1115,N-Back (New Version 2021),2021.1.4,120.12517042713247,
,,,,Conditions/Version_1/zeroback(2)_v1.xlsx,New rule: Press 'space' when you see the letter 'x' or 'X'.,p,None,,,,,,,,,0,5,5,5,0,8,8,8,,,,,,,,,,,,,,,,,,,,,,,,,,,,,,,,,,,,,,,,,,,,,,,,,,,,,,,,,,,,,,,,,,,,,1.1092,986.1254687,None,None,1,986.1254687,None,,P046,fencog,2,Pre,2022_May_24_1115,N-Back (New Version 2021),2021.1.4,120.12517042713247,
,,,,Conditions/Version_1/zeroback(2)_v1.xlsx,New rule: Press 'space' when you see the letter 'x' or 'X'.,h,None,,,,,,,,,0,5,5,5,0,9,9,9,,,,,,,,,,,,,,,,,,,,,,,,,,,,,,,,,,,,,,,,,,,,,,,,,,,,,,,,,,,,,,,,,,,,,1.8098,989.9481271000004,None,None,1,989.9481271000004,None,,P046,fencog,2,Pre,2022_May_24_1115,N-Back (New Version 2021),2021.1.4,120.12517042713247,
,,,,Conditions/Version_1/zeroback(2)_v1.xlsx,New rule: Press 'space' when you see the letter 'x' or 'X'.,,,,,,,,,,,0,5,5,5,,,,,,,,,,,,,,,,,,,,,,,,,,,,,,,,,,,,,,,,,,,,,,,,,,,,,,,,,,,,,,,,,,,,,,,,,,,,,,,,,P046,fencog,2,Pre,2022_May_24_1115,N-Back (New Version 2021),2021.1.4,120.12517042713247,
,,,,Conditions/Version_1/threeback(2)_v1.xlsx,New rule: Press 'space' when you see 3-back (i.e. the same letter as the one that appeared 3 letters ago.),q,None,,,,,,,,,0,6,6,6,0,0,0,0,,,,,,,,,,,,,,,,,,,,,,,,,,,,,,,,,,,,,,,,,,,,,,,,,,,,,,,,,,,991.9719151999998,None,994.9570908000005,None,space,1.4045330999997532,994.9570908000005,None,991.9719151999998,None,1.2208,997.6125756000001,None,None,1,997.6125756000001,None,,P046,fencog,2,Pre,2022_May_24_1115,N-Back (New Version 2021),2021.1.4,120.12517042713247,
,,,,Conditions/Version_1/threeback(2)_v1.xlsx,New rule: Press 'space' when you see 3-back (i.e. the same letter as the one that appeared 3 letters ago.),Y,None,,,,,,,,,0,6,6,6,0,1,1,1,,,,,,,,,,,,,,,,,,,,,,,,,,,,,,,,,,,,,,,,,,,,,,,,,,,,,,,,,,,,,,,,,,,,,1.7168,1001.3282005000001,None,None,1,1001.3282005000001,None,,P046,fencog,2,Pre,2022_May_24_1115,N-Back (New Version 2021),2021.1.4,120.12517042713247,
,,,,Conditions/Version_1/threeback(2)_v1.xlsx,New rule: Press 'space' when you see 3-back (i.e. the same letter as the one that appeared 3 letters ago.),p,None,,,,,,,,,0,6,6,6,0,2,2,2,,,,,,,,,,,,,,,,,,,,,,,,,,,,,,,,,,,,,,,,,,,,,,,,,,,,,,,,,,,,,,,,,,,,,1.1402,1004.4688141000006,None,None,1,1004.4688141000006,None,,P046,fencog,2,Pre,2022_May_24_1115,N-Back (New Version 2021),2021.1.4,120.12517042713247,
,,,,Conditions/Version_1/threeback(2)_v1.xlsx,New rule: Press 'space' when you see 3-back (i.e. the same letter as the one that appeared 3 letters ago.),p,None,,,,,,,,,0,6,6,6,0,3,3,3,,,,,,,,,,,,,,,,,,,,,,,,,,,,,,,,,,,,,,,,,,,,,,,,,,,,,,,,,,,,,,,,,,,,,1.2518,1007.7264378,None,None,1,1007.7264378,None,,P046,fencog,2,Pre,2022_May_24_1115,N-Back (New Version 2021),2021.1.4,120.12517042713247,
,,,,Conditions/Version_1/threeback(2)_v1.xlsx,New rule: Press 'space' when you see 3-back (i.e. the same letter as the one that appeared 3 letters ago.),y,space,,,,,,,,,0,6,6,6,0,4,4,4,,,,,,,,,,,,,,,,,,,,,,,,,,,,,,,,,,,,,,,,,,,,,,,,,,,,,,,,,,,,,,,,,,,,,1.2642,1011.0004374,None,space,1,1011.0004374,None,0.8413922999998249,P046,fencog,2,Pre,2022_May_24_1115,N-Back (New Version 2021),2021.1.4,120.12517042713247,
,,,,Conditions/Version_1/threeback(2)_v1.xlsx,New rule: Press 'space' when you see 3-back (i.e. the same letter as the one that appeared 3 letters ago.),u,None,,,,,,,,,0,6,6,6,0,5,5,5,,,,,,,,,,,,,,,,,,,,,,,,,,,,,,,,,,,,,,,,,,,,,,,,,,,,,,,,,,,,,,,,,,,,,1.0658,1014.0679550000004,None,None,1,1014.0679550000004,None,,P046,fencog,2,Pre,2022_May_24_1115,N-Back (New Version 2021),2021.1.4,120.12517042713247,
,,,,Conditions/Version_1/threeback(2)_v1.xlsx,New rule: Press 'space' when you see 3-back (i.e. the same letter as the one that appeared 3 letters ago.),P,space,,,,,,,,,0,6,6,6,0,6,6,6,,,,,,,,,,,,,,,,,,,,,,,,,,,,,,,,,,,,,,,,,,,,,,,,,,,,,,,,,,,,,,,,,,,,,1.9276,1018.0065353999998,None,space,1,1018.0065353999998,None,0.587068900000304,P046,fencog,2,Pre,2022_May_24_1115,N-Back (New Version 2021),2021.1.4,120.12517042713247,
,,,,Conditions/Version_1/threeback(2)_v1.xlsx,New rule: Press 'space' when you see 3-back (i.e. the same letter as the one that appeared 3 letters ago.),a,None,,,,,,,,,0,6,6,6,0,7,7,7,,,,,,,,,,,,,,,,,,,,,,,,,,,,,,,,,,,,,,,,,,,,,,,,,,,,,,,,,,,,,,,,,,,,,1.2394,1021.2483391000005,None,None,1,1021.2483391000005,None,,P046,fencog,2,Pre,2022_May_24_1115,N-Back (New Version 2021),2021.1.4,120.12517042713247,
,,,,Conditions/Version_1/threeback(2)_v1.xlsx,New rule: Press 'space' when you see 3-back (i.e. the same letter as the one that appeared 3 letters ago.),U,space,,,,,,,,,0,6,6,6,0,8,8,8,,,,,,,,,,,,,,,,,,,,,,,,,,,,,,,,,,,,,,,,,,,,,,,,,,,,,,,,,,,,,,,,,,,,,1.0286,1024.2922464000003,None,space,1,1024.2922464000003,None,0.44551959999989776,P046,fencog,2,Pre,2022_May_24_1115,N-Back (New Version 2021),2021.1.4,120.12517042713247,
,,,,Conditions/Version_1/threeback(2)_v1.xlsx,New rule: Press 'space' when you see 3-back (i.e. the same letter as the one that appeared 3 letters ago.),q,None,,,,,,,,,0,6,6,6,0,9,9,9,,,,,,,,,,,,,,,,,,,,,,,,,,,,,,,,,,,,,,,,,,,,,,,,,,,,,,,,,,,,,,,,,,,,,1.5742,1027.8737396000006,None,None,1,1027.8737396000006,None,,P046,fencog,2,Pre,2022_May_24_1115,N-Back (New Version 2021),2021.1.4,120.12517042713247,
,,,,Conditions/Version_1/threeback(2)_v1.xlsx,New rule: Press 'space' when you see 3-back (i.e. the same letter as the one that appeared 3 letters ago.),,,,,,,,,,,0,6,6,6,,,,,,,,,,,,,,,,,,,,,,,,,,,,,,,,,,,,,,,,,,,,,,,,,,,,,,,,,,,,,,,,,,,,,,,,,,,,,,,,,P046,fencog,2,Pre,2022_May_24_1115,N-Back (New Version 2021),2021.1.4,120.12517042713247,
,,,,Conditions/Version_1/twoback(2)_v1.xlsx,New rule: Press 'space' when you see 2-back (i.e. the same letter as the one that appeared 2 letters ago.),q,None,,,,,,,,,0,7,7,7,0,0,0,0,,,,,,,,,,,,,,,,,,,,,,,,,,,,,,,,,,,,,,,,,,,,,,,,,,,,,,,,,,,1029.9025935,None,1032.8806326000004,None,space,0.297236299999895,1032.8806326000004,None,1029.9025935,None,1.8036,1035.0183866000007,None,None,1,1035.0183866000007,None,,P046,fencog,2,Pre,2022_May_24_1115,N-Back (New Version 2021),2021.1.4,120.12517042713247,
,,,,Conditions/Version_1/twoback(2)_v1.xlsx,New rule: Press 'space' when you see 2-back (i.e. the same letter as the one that appeared 2 letters ago.),r,None,,,,,,,,,0,7,7,7,0,1,1,1,,,,,,,,,,,,,,,,,,,,,,,,,,,,,,,,,,,,,,,,,,,,,,,,,,,,,,,,,,,,,,,,,,,,,1.9772,1039.0054796000004,None,None,1,1039.0054796000004,None,,P046,fencog,2,Pre,2022_May_24_1115,N-Back (New Version 2021),2021.1.4,120.12517042713247,
,,,,Conditions/Version_1/twoback(2)_v1.xlsx,New rule: Press 'space' when you see 2-back (i.e. the same letter as the one that appeared 2 letters ago.),q,space,,,,,,,,,0,7,7,7,0,2,2,2,,,,,,,,,,,,,,,,,,,,,,,,,,,,,,,,,,,,,,,,,,,,,,,,,,,,,,,,,,,,,,,,,,,,,1.1898,1042.2006446000005,None,space,1,1042.2006446000005,None,0.49688680000053864,P046,fencog,2,Pre,2022_May_24_1115,N-Back (New Version 2021),2021.1.4,120.12517042713247,
,,,,Conditions/Version_1/twoback(2)_v1.xlsx,New rule: Press 'space' when you see 2-back (i.e. the same letter as the one that appeared 2 letters ago.),P,None,,,,,,,,,0,7,7,7,0,3,3,3,,,,,,,,,,,,,,,,,,,,,,,,,,,,,,,,,,,,,,,,,,,,,,,,,,,,,,,,,,,,,,,,,,,,,1.7354,1045.9484356000003,None,None,1,1045.9484356000003,None,,P046,fencog,2,Pre,2022_May_24_1115,N-Back (New Version 2021),2021.1.4,120.12517042713247,
,,,,Conditions/Version_1/twoback(2)_v1.xlsx,New rule: Press 'space' when you see 2-back (i.e. the same letter as the one that appeared 2 letters ago.),p,None,,,,,,,,,0,7,7,7,0,4,4,4,,,,,,,,,,,,,,,,,,,,,,,,,,,,,,,,,,,,,,,,,,,,,,,,,,,,,,,,,,,,,,,,,,,,,1.0286,1048.9806743,None,None,1,1048.9806743,None,,P046,fencog,2,Pre,2022_May_24_1115,N-Back (New Version 2021),2021.1.4,120.12517042713247,
,,,,Conditions/Version_1/twoback(2)_v1.xlsx,New rule: Press 'space' when you see 2-back (i.e. the same letter as the one that appeared 2 letters ago.),H,None,,,,,,,,,0,7,7,7,0,5,5,5,,,,,,,,,,,,,,,,,,,,,,,,,,,,,,,,,,,,,,,,,,,,,,,,,,,,,,,,,,,,,,,,,,,,,1.6424,1052.6323661000006,None,None,1,1052.6323661000006,None,,P046,fencog,2,Pre,2022_May_24_1115,N-Back (New Version 2021),2021.1.4,120.12517042713247,
,,,,Conditions/Version_1/twoback(2)_v1.xlsx,New rule: Press 'space' when you see 2-back (i.e. the same letter as the one that appeared 2 letters ago.),g,None,,,,,,,,,0,7,7,7,0,6,6,6,,,,,,,,,,,,,,,,,,,,,,,,,,,,,,,,,,,,,,,,,,,,,,,,,,,,,,,,,,,,,,,,,,,,,1.9028,1056.5451027,None,None,1,1056.5451027,None,,P046,fencog,2,Pre,2022_May_24_1115,N-Back (New Version 2021),2021.1.4,120.12517042713247,
,,,,Conditions/Version_1/twoback(2)_v1.xlsx,New rule: Press 'space' when you see 2-back (i.e. the same letter as the one that appeared 2 letters ago.),j,None,,,,,,,,,0,7,7,7,0,7,7,7,,,,,,,,,,,,,,,,,,,,,,,,,,,,,,,,,,,,,,,,,,,,,,,,,,,,,,,,,,,,,,,,,,,,,1.5618,1060.1120406,None,None,1,1060.1120406,None,,P046,fencog,2,Pre,2022_May_24_1115,N-Back (New Version 2021),2021.1.4,120.12517042713247,
,,,,Conditions/Version_1/twoback(2)_v1.xlsx,New rule: Press 'space' when you see 2-back (i.e. the same letter as the one that appeared 2 letters ago.),g,space,,,,,,,,,0,7,7,7,0,8,8,8,,,,,,,,,,,,,,,,,,,,,,,,,,,,,,,,,,,,,,,,,,,,,,,,,,,,,,,,,,,,,,,,,,,,,1.0472,1063.1682672000006,None,space,1,1063.1682672000006,None,0.44153709999955026,P046,fencog,2,Pre,2022_May_24_1115,N-Back (New Version 2021),2021.1.4,120.12517042713247,
,,,,Conditions/Version_1/twoback(2)_v1.xlsx,New rule: Press 'space' when you see 2-back (i.e. the same letter as the one that appeared 2 letters ago.),G,None,,,,,,,,,0,7,7,7,0,9,9,9,,,,,,,,,,,,,,,,,,,,,,,,,,,,,,,,,,,,,,,,,,,,,,,,,,,,,,,,,,,,,,,,,,,,,1.32,1066.4921673,None,None,1,1066.4921673,None,,P046,fencog,2,Pre,2022_May_24_1115,N-Back (New Version 2021),2021.1.4,120.12517042713247,
,,,,Conditions/Version_1/twoback(2)_v1.xlsx,New rule: Press 'space' when you see 2-back (i.e. the same letter as the one that appeared 2 letters ago.),,,,,,,,,,,0,7,7,7,,,,,,,,,,,,,,,,,,,,,,,,,,,,,,,,,,,,,,,,,,,,,,,,,,,,,,,,,,,,,,,,,,,,,,,,,,,,,,,,,P046,fencog,2,Pre,2022_May_24_1115,N-Back (New Version 2021),2021.1.4,120.12517042713247,
,,,,Conditions/Version_1/threeback(3)_v1.xlsx,New rule: Press 'space' when you see 3-back (i.e. the same letter as the one that appeared 3 letters ago.),w,None,,,,,,,,,0,8,8,8,0,0,0,0,,,,,,,,,,,,,,,,,,,,,,,,,,,,,,,,,,,,,,,,,,,,,,,,,,,,,,,,,,,1068.5156292000001,None,1071.5013970999998,None,space,1.7962014000004274,1071.5013970999998,None,1068.5156292000001,None,1.382,1074.7152397999998,None,None,1,1074.7152397999998,None,,P046,fencog,2,Pre,2022_May_24_1115,N-Back (New Version 2021),2021.1.4,120.12517042713247,
,,,,Conditions/Version_1/threeback(3)_v1.xlsx,New rule: Press 'space' when you see 3-back (i.e. the same letter as the one that appeared 3 letters ago.),p,None,,,,,,,,,0,8,8,8,0,1,1,1,,,,,,,,,,,,,,,,,,,,,,,,,,,,,,,,,,,,,,,,,,,,,,,,,,,,,,,,,,,,,,,,,,,,,1.0658,1077.7818392,None,None,1,1077.7818392,None,,P046,fencog,2,Pre,2022_May_24_1115,N-Back (New Version 2021),2021.1.4,120.12517042713247,
,,,,Conditions/Version_1/threeback(3)_v1.xlsx,New rule: Press 'space' when you see 3-back (i.e. the same letter as the one that appeared 3 letters ago.),P,None,,,,,,,,,0,8,8,8,0,2,2,2,,,,,,,,,,,,,,,,,,,,,,,,,,,,,,,,,,,,,,,,,,,,,,,,,,,,,,,,,,,,,,,,,,,,,1.01,1080.8049025,None,None,1,1080.8049025,None,,P046,fencog,2,Pre,2022_May_24_1115,N-Back (New Version 2021),2021.1.4,120.12517042713247,
,,,,Conditions/Version_1/threeback(3)_v1.xlsx,New rule: Press 'space' when you see 3-back (i.e. the same letter as the one that appeared 3 letters ago.),i,None,,,,,,,,,0,8,8,8,0,3,3,3,,,,,,,,,,,,,,,,,,,,,,,,,,,,,,,,,,,,,,,,,,,,,,,,,,,,,,,,,,,,,,,,,,,,,1.2828,1084.0881763000007,None,None,1,1084.0881763000007,None,,P046,fencog,2,Pre,2022_May_24_1115,N-Back (New Version 2021),2021.1.4,120.12517042713247,
,,,,Conditions/Version_1/threeback(3)_v1.xlsx,New rule: Press 'space' when you see 3-back (i.e. the same letter as the one that appeared 3 letters ago.),f,None,,,,,,,,,0,8,8,8,0,4,4,4,,,,,,,,,,,,,,,,,,,,,,,,,,,,,,,,,,,,,,,,,,,,,,,,,,,,,,,,,,,,,,,,,,,,,1.6858,1087.7860498999999,None,None,1,1087.7860498999999,None,,P046,fencog,2,Pre,2022_May_24_1115,N-Back (New Version 2021),2021.1.4,120.12517042713247,
,,,,Conditions/Version_1/threeback(3)_v1.xlsx,New rule: Press 'space' when you see 3-back (i.e. the same letter as the one that appeared 3 letters ago.),o,None,,,,,,,,,0,8,8,8,0,5,5,5,,,,,,,,,,,,,,,,,,,,,,,,,,,,,,,,,,,,,,,,,,,,,,,,,,,,,,,,,,,,,,,,,,,,,1.7478,1091.5347747000005,None,None,1,1091.5347747000005,None,,P046,fencog,2,Pre,2022_May_24_1115,N-Back (New Version 2021),2021.1.4,120.12517042713247,
,,,,Conditions/Version_1/threeback(3)_v1.xlsx,New rule: Press 'space' when you see 3-back (i.e. the same letter as the one that appeared 3 letters ago.),w,None,,,,,,,,,0,8,8,8,0,6,6,6,,,,,,,,,,,,,,,,,,,,,,,,,,,,,,,,,,,,,,,,,,,,,,,,,,,,,,,,,,,,,,,,,,,,,1.7788,1095.3176473000003,None,None,1,1095.3176473000003,None,,P046,fencog,2,Pre,2022_May_24_1115,N-Back (New Version 2021),2021.1.4,120.12517042713247,
,,,,Conditions/Version_1/threeback(3)_v1.xlsx,New rule: Press 'space' when you see 3-back (i.e. the same letter as the one that appeared 3 letters ago.),F,space,,,,,,,,,0,8,8,8,0,7,7,7,,,,,,,,,,,,,,,,,,,,,,,,,,,,,,,,,,,,,,,,,,,,,,,,,,,,,,,,,,,,,,,,,,,,,1.8098,1099.1408566,None,space,1,1099.1408566,None,0.43685749999986,P046,fencog,2,Pre,2022_May_24_1115,N-Back (New Version 2021),2021.1.4,120.12517042713247,
,,,,Conditions/Version_1/threeback(3)_v1.xlsx,New rule: Press 'space' when you see 3-back (i.e. the same letter as the one that appeared 3 letters ago.),p,None,,,,,,,,,0,8,8,8,0,8,8,8,,,,,,,,,,,,,,,,,,,,,,,,,,,,,,,,,,,,,,,,,,,,,,,,,,,,,,,,,,,,,,,,,,,,,1.8594,1103.0064742000004,None,None,1,1103.0064742000004,None,,P046,fencog,2,Pre,2022_May_24_1115,N-Back (New Version 2021),2021.1.4,120.12517042713247,
,,,,Conditions/Version_1/threeback(3)_v1.xlsx,New rule: Press 'space' when you see 3-back (i.e. the same letter as the one that appeared 3 letters ago.),W,space,,,,,,,,,0,8,8,8,0,9,9,9,,,,,,,,,,,,,,,,,,,,,,,,,,,,,,,,,,,,,,,,,,,,,,,,,,,,,,,,,,,,,,,,,,,,,1.599,1106.6091679,None,space,1,1106.6091679,None,0.5284769999998389,P046,fencog,2,Pre,2022_May_24_1115,N-Back (New Version 2021),2021.1.4,120.12517042713247,
,,,,Conditions/Version_1/threeback(3)_v1.xlsx,New rule: Press 'space' when you see 3-back (i.e. the same letter as the one that appeared 3 letters ago.),,,,,,,,,,,0,8,8,8,,,,,,,,,,,,,,,,,,,,,,,,,,,,,,,,,,,,,,,,,,,,,,,,,,,,,,,,,,,,,,,,,,,,,,,,,,,,,,,,,P046,fencog,2,Pre,2022_May_24_1115,N-Back (New Version 2021),2021.1.4,120.12517042713247,
,,,,Conditions/Version_1/zeroback(3)_v1.xlsx,New rule: Press 'space' when you see the letter 'x' or 'X'.,X,space,,,,,,,,,0,9,9,9,0,0,0,0,,,,,,,,,,,,,,,,,,,,,,,,,,,,,,,,,,,,,,,,,,,,,,,,,,,,,,,,,,,1108.6374255,None,1111.6311253000003,None,space,0.41051770000012766,1111.6311253000003,None,1108.6374255,None,1.165,1113.2404420000003,None,space,1,1113.2404420000003,None,0.4972256000000925,P046,fencog,2,Pre,2022_May_24_1115,N-Back (New Version 2021),2021.1.4,120.12517042713247,
,,,,Conditions/Version_1/zeroback(3)_v1.xlsx,New rule: Press 'space' when you see the letter 'x' or 'X'.,B,None,,,,,,,,,0,9,9,9,0,1,1,1,,,,,,,,,,,,,,,,,,,,,,,,,,,,,,,,,,,,,,,,,,,,,,,,,,,,,,,,,,,,,,,,,,,,,1.7788,1117.0291956,None,None,1,1117.0291956,None,,P046,fencog,2,Pre,2022_May_24_1115,N-Back (New Version 2021),2021.1.4,120.12517042713247,
,,,,Conditions/Version_1/zeroback(3)_v1.xlsx,New rule: Press 'space' when you see the letter 'x' or 'X'.,m,None,,,,,,,,,0,9,9,9,0,2,2,2,,,,,,,,,,,,,,,,,,,,,,,,,,,,,,,,,,,,,,,,,,,,,,,,,,,,,,,,,,,,,,,,,,,,,1.227,1120.2679520000002,None,None,1,1120.2679520000002,None,,P046,fencog,2,Pre,2022_May_24_1115,N-Back (New Version 2021),2021.1.4,120.12517042713247,
,,,,Conditions/Version_1/zeroback(3)_v1.xlsx,New rule: Press 'space' when you see the letter 'x' or 'X'.,m,None,,,,,,,,,0,9,9,9,0,3,3,3,,,,,,,,,,,,,,,,,,,,,,,,,,,,,,,,,,,,,,,,,,,,,,,,,,,,,,,,,,,,,,,,,,,,,1.8966,1124.1670170000007,None,None,1,1124.1670170000007,None,,P046,fencog,2,Pre,2022_May_24_1115,N-Back (New Version 2021),2021.1.4,120.12517042713247,
,,,,Conditions/Version_1/zeroback(3)_v1.xlsx,New rule: Press 'space' when you see the letter 'x' or 'X'.,o,None,,,,,,,,,0,9,9,9,0,4,4,4,,,,,,,,,,,,,,,,,,,,,,,,,,,,,,,,,,,,,,,,,,,,,,,,,,,,,,,,,,,,,,,,,,,,,1.692,1127.8573979000003,None,None,1,1127.8573979000003,None,,P046,fencog,2,Pre,2022_May_24_1115,N-Back (New Version 2021),2021.1.4,120.12517042713247,
,,,,Conditions/Version_1/zeroback(3)_v1.xlsx,New rule: Press 'space' when you see the letter 'x' or 'X'.,p,None,,,,,,,,,0,9,9,9,0,5,5,5,,,,,,,,,,,,,,,,,,,,,,,,,,,,,,,,,,,,,,,,,,,,,,,,,,,,,,,,,,,,,,,,,,,,,1.3758,1131.2405431000007,None,None,1,1131.2405431000007,None,,P046,fencog,2,Pre,2022_May_24_1115,N-Back (New Version 2021),2021.1.4,120.12517042713247,
,,,,Conditions/Version_1/zeroback(3)_v1.xlsx,New rule: Press 'space' when you see the letter 'x' or 'X'.,G,None,,,,,,,,,0,9,9,9,0,6,6,6,,,,,,,,,,,,,,,,,,,,,,,,,,,,,,,,,,,,,,,,,,,,,,,,,,,,,,,,,,,,,,,,,,,,,1.2332,1134.4804875,None,None,1,1134.4804875,None,,P046,fencog,2,Pre,2022_May_24_1115,N-Back (New Version 2021),2021.1.4,120.12517042713247,
,,,,Conditions/Version_1/zeroback(3)_v1.xlsx,New rule: Press 'space' when you see the letter 'x' or 'X'.,X,space,,,,,,,,,0,9,9,9,0,7,7,7,,,,,,,,,,,,,,,,,,,,,,,,,,,,,,,,,,,,,,,,,,,,,,,,,,,,,,,,,,,,,,,,,,,,,1.1898,1137.6711832,None,space,1,1137.6711832,None,0.5065942999999606,P046,fencog,2,Pre,2022_May_24_1115,N-Back (New Version 2021),2021.1.4,120.12517042713247,
,,,,Conditions/Version_1/zeroback(3)_v1.xlsx,New rule: Press 'space' when you see the letter 'x' or 'X'.,p,None,,,,,,,,,0,9,9,9,0,8,8,8,,,,,,,,,,,,,,,,,,,,,,,,,,,,,,,,,,,,,,,,,,,,,,,,,,,,,,,,,,,,,,,,,,,,,1.6672,1141.3469684000002,None,None,1,1141.3469684000002,None,,P046,fencog,2,Pre,2022_May_24_1115,N-Back (New Version 2021),2021.1.4,120.12517042713247,
,,,,Conditions/Version_1/zeroback(3)_v1.xlsx,New rule: Press 'space' when you see the letter 'x' or 'X'.,x,space,,,,,,,,,0,9,9,9,0,9,9,9,,,,,,,,,,,,,,,,,,,,,,,,,,,,,,,,,,,,,,,,,,,,,,,,,,,,,,,,,,,,,,,,,,,,,1.4006,1144.7537370999999,None,space,1,1144.7537370999999,None,0.41620460000012827,P046,fencog,2,Pre,2022_May_24_1115,N-Back (New Version 2021),2021.1.4,120.12517042713247,
,,,,Conditions/Version_1/zeroback(3)_v1.xlsx,New rule: Press 'space' when you see the letter 'x' or 'X'.,,,,,,,,,,,0,9,9,9,,,,,,,,,,,,,,,,,,,,,,,,,,,,,,,,,,,,,,,,,,,,,,,,,,,,,,,,,,,,,,,,,,,,,,,,,,,,,,,,,P046,fencog,2,Pre,2022_May_24_1115,N-Back (New Version 2021),2021.1.4,120.12517042713247,
,,,,Conditions/Version_1/twoback(3)_v1.xlsx,New rule: Press 'space' when you see 2-back (i.e. the same letter as the one that appeared 2 letters ago.),e,None,,,,,,,,,0,10,10,10,0,0,0,0,,,,,,,,,,,,,,,,,,,,,,,,,,,,,,,,,,,,,,,,,,,,,,,,,,,,,,,,,,,1146.7811034000006,None,1149.7702555000005,None,space,6.31146230000013,1149.7702555000005,None,1146.7811034000006,None,1.8966,1158.0154293000005,None,None,1,1158.0154293000005,None,,P046,fencog,2,Pre,2022_May_24_1115,N-Back (New Version 2021),2021.1.4,120.12517042713247,
,,,,Conditions/Version_1/twoback(3)_v1.xlsx,New rule: Press 'space' when you see 2-back (i.e. the same letter as the one that appeared 2 letters ago.),o,None,,,,,,,,,0,10,10,10,0,1,1,1,,,,,,,,,,,,,,,,,,,,,,,,,,,,,,,,,,,,,,,,,,,,,,,,,,,,,,,,,,,,,,,,,,,,,1.506,1161.5237524000004,None,None,1,1161.5237524000004,None,,P046,fencog,2,Pre,2022_May_24_1115,N-Back (New Version 2021),2021.1.4,120.12517042713247,
,,,,Conditions/Version_1/twoback(3)_v1.xlsx,New rule: Press 'space' when you see 2-back (i.e. the same letter as the one that appeared 2 letters ago.),P,None,,,,,,,,,0,10,10,10,0,2,2,2,,,,,,,,,,,,,,,,,,,,,,,,,,,,,,,,,,,,,,,,,,,,,,,,,,,,,,,,,,,,,,,,,,,,,1.6176,1165.1567437000003,None,None,1,1165.1567437000003,None,,P046,fencog,2,Pre,2022_May_24_1115,N-Back (New Version 2021),2021.1.4,120.12517042713247,
,,,,Conditions/Version_1/twoback(3)_v1.xlsx,New rule: Press 'space' when you see 2-back (i.e. the same letter as the one that appeared 2 letters ago.),z,None,,,,,,,,,0,10,10,10,0,3,3,3,,,,,,,,,,,,,,,,,,,,,,,,,,,,,,,,,,,,,,,,,,,,,,,,,,,,,,,,,,,,,,,,,,,,,1.8408,1169.0072035000003,None,None,1,1169.0072035000003,None,,P046,fencog,2,Pre,2022_May_24_1115,N-Back (New Version 2021),2021.1.4,120.12517042713247,
,,,,Conditions/Version_1/twoback(3)_v1.xlsx,New rule: Press 'space' when you see 2-back (i.e. the same letter as the one that appeared 2 letters ago.),X,None,,,,,,,,,0,10,10,10,0,4,4,4,,,,,,,,,,,,,,,,,,,,,,,,,,,,,,,,,,,,,,,,,,,,,,,,,,,,,,,,,,,,,,,,,,,,,1.289,1172.3025902999998,None,None,1,1172.3025902999998,None,,P046,fencog,2,Pre,2022_May_24_1115,N-Back (New Version 2021),2021.1.4,120.12517042713247,
,,,,Conditions/Version_1/twoback(3)_v1.xlsx,New rule: Press 'space' when you see 2-back (i.e. the same letter as the one that appeared 2 letters ago.),z,space,,,,,,,,,0,10,10,10,0,5,5,5,,,,,,,,,,,,,,,,,,,,,,,,,,,,,,,,,,,,,,,,,,,,,,,,,,,,,,,,,,,,,,,,,,,,,1.3572,1175.6600425000006,None,space,1,1175.6600425000006,None,0.7655260999999882,P046,fencog,2,Pre,2022_May_24_1115,N-Back (New Version 2021),2021.1.4,120.12517042713247,
,,,,Conditions/Version_1/twoback(3)_v1.xlsx,New rule: Press 'space' when you see 2-back (i.e. the same letter as the one that appeared 2 letters ago.),x,space,,,,,,,,,0,10,10,10,0,6,6,6,,,,,,,,,,,,,,,,,,,,,,,,,,,,,,,,,,,,,,,,,,,,,,,,,,,,,,,,,,,,,,,,,,,,,1.072,1178.7338384000004,None,space,1,1178.7338384000004,None,0.6519680000001244,P046,fencog,2,Pre,2022_May_24_1115,N-Back (New Version 2021),2021.1.4,120.12517042713247,
,,,,Conditions/Version_1/twoback(3)_v1.xlsx,New rule: Press 'space' when you see 2-back (i.e. the same letter as the one that appeared 2 letters ago.),c,None,,,,,,,,,0,10,10,10,0,7,7,7,,,,,,,,,,,,,,,,,,,,,,,,,,,,,,,,,,,,,,,,,,,,,,,,,,,,,,,,,,,,,,,,,,,,,1.7602,1182.4996056,None,None,1,1182.4996056,None,,P046,fencog,2,Pre,2022_May_24_1115,N-Back (New Version 2021),2021.1.4,120.12517042713247,
,,,,Conditions/Version_1/twoback(3)_v1.xlsx,New rule: Press 'space' when you see 2-back (i.e. the same letter as the one that appeared 2 letters ago.),i,None,,,,,,,,,0,10,10,10,0,8,8,8,,,,,,,,,,,,,,,,,,,,,,,,,,,,,,,,,,,,,,,,,,,,,,,,,,,,,,,,,,,,,,,,,,,,,1.227,1185.7321089000006,None,None,1,1185.7321089000006,None,,P046,fencog,2,Pre,2022_May_24_1115,N-Back (New Version 2021),2021.1.4,120.12517042713247,
,,,,Conditions/Version_1/twoback(3)_v1.xlsx,New rule: Press 'space' when you see 2-back (i.e. the same letter as the one that appeared 2 letters ago.),C,space,,,,,,,,,0,10,10,10,0,9,9,9,,,,,,,,,,,,,,,,,,,,,,,,,,,,,,,,,,,,,,,,,,,,,,,,,,,,,,,,,,,,,,,,,,,,,1.444,1189.1828875,None,space,1,1189.1828875,None,0.6910483999999997,P046,fencog,2,Pre,2022_May_24_1115,N-Back (New Version 2021),2021.1.4,120.12517042713247,
,,,,Conditions/Version_1/twoback(3)_v1.xlsx,New rule: Press 'space' when you see 2-back (i.e. the same letter as the one that appeared 2 letters ago.),,,,,,,,,,,0,10,10,10,,,,,,,,,,,,,,,,,,,,,,,,,,,,,,,,,,,,,,,,,,,,,,,,,,,,,,,,,,,,,,,,,,,,,,,,,,,,,,,,,P046,fencog,2,Pre,2022_May_24_1115,N-Back (New Version 2021),2021.1.4,120.12517042713247,
,,,,Conditions/Version_1/oneback(3)_v1.xlsx,New rule: Press 'space' when you see 1-back (i.e. the same letter as the one that appeared 1 letter ago.),o,None,,,,,,,,,0,11,11,11,0,0,0,0,,,,,,,,,,,,,,,,,,,,,,,,,,,,,,,,,,,,,,,,,,,,,,,,,,,,,,,,,,,1191.2213471000005,None,1194.1978193000004,None,space,0.6436204000001453,1194.1978193000004,None,1191.2213471000005,None,1.1588,1196.0372545999999,None,None,1,1196.0372545999999,None,,P046,fencog,2,Pre,2022_May_24_1115,N-Back (New Version 2021),2021.1.4,120.12517042713247,
,,,,Conditions/Version_1/oneback(3)_v1.xlsx,New rule: Press 'space' when you see 1-back (i.e. the same letter as the one that appeared 1 letter ago.),O,space,,,,,,,,,0,11,11,11,0,1,1,1,,,,,,,,,,,,,,,,,,,,,,,,,,,,,,,,,,,,,,,,,,,,,,,,,,,,,,,,,,,,,,,,,,,,,1.382,1199.4196278999998,None,space,1,1199.4196278999998,None,0.42985590000080265,P046,fencog,2,Pre,2022_May_24_1115,N-Back (New Version 2021),2021.1.4,120.12517042713247,
,,,,Conditions/Version_1/oneback(3)_v1.xlsx,New rule: Press 'space' when you see 1-back (i.e. the same letter as the one that appeared 1 letter ago.),h,None,,,,,,,,,0,11,11,11,0,2,2,2,,,,,,,,,,,,,,,,,,,,,,,,,,,,,,,,,,,,,,,,,,,,,,,,,,,,,,,,,,,,,,,,,,,,,1.1278,1202.5624499000005,None,None,1,1202.5624499000005,None,,P046,fencog,2,Pre,2022_May_24_1115,N-Back (New Version 2021),2021.1.4,120.12517042713247,
,,,,Conditions/Version_1/oneback(3)_v1.xlsx,New rule: Press 'space' when you see 1-back (i.e. the same letter as the one that appeared 1 letter ago.),g,None,,,,,,,,,0,11,11,11,0,3,3,3,,,,,,,,,,,,,,,,,,,,,,,,,,,,,,,,,,,,,,,,,,,,,,,,,,,,,,,,,,,,,,,,,,,,,1.227,1205.8015239000006,None,None,1,1205.8015239000006,None,,P046,fencog,2,Pre,2022_May_24_1115,N-Back (New Version 2021),2021.1.4,120.12517042713247,
,,,,Conditions/Version_1/oneback(3)_v1.xlsx,New rule: Press 'space' when you see 1-back (i.e. the same letter as the one that appeared 1 letter ago.),n,None,,,,,,,,,0,11,11,11,0,4,4,4,,,,,,,,,,,,,,,,,,,,,,,,,,,,,,,,,,,,,,,,,,,,,,,,,,,,,,,,,,,,,,,,,,,,,1.2146,1209.0186887,None,None,1,1209.0186887,None,,P046,fencog,2,Pre,2022_May_24_1115,N-Back (New Version 2021),2021.1.4,120.12517042713247,
,,,,Conditions/Version_1/oneback(3)_v1.xlsx,New rule: Press 'space' when you see 1-back (i.e. the same letter as the one that appeared 1 letter ago.),z,None,,,,,,,,,0,11,11,11,0,5,5,5,,,,,,,,,,,,,,,,,,,,,,,,,,,,,,,,,,,,,,,,,,,,,,,,,,,,,,,,,,,,,,,,,,,,,1.2828,1212.3099706000003,None,None,1,1212.3099706000003,None,,P046,fencog,2,Pre,2022_May_24_1115,N-Back (New Version 2021),2021.1.4,120.12517042713247,
,,,,Conditions/Version_1/oneback(3)_v1.xlsx,New rule: Press 'space' when you see 1-back (i.e. the same letter as the one that appeared 1 letter ago.),X,None,,,,,,,,,0,11,11,11,0,6,6,6,,,,,,,,,,,,,,,,,,,,,,,,,,,,,,,,,,,,,,,,,,,,,,,,,,,,,,,,,,,,,,,,,,,,,1.134,1215.4520708,None,None,1,1215.4520708,None,,P046,fencog,2,Pre,2022_May_24_1115,N-Back (New Version 2021),2021.1.4,120.12517042713247,
,,,,Conditions/Version_1/oneback(3)_v1.xlsx,New rule: Press 'space' when you see 1-back (i.e. the same letter as the one that appeared 1 letter ago.),r,None,,,,,,,,,0,11,11,11,0,7,7,7,,,,,,,,,,,,,,,,,,,,,,,,,,,,,,,,,,,,,,,,,,,,,,,,,,,,,,,,,,,,,,,,,,,,,1.94,1219.4054377000002,None,None,1,1219.4054377000002,None,,P046,fencog,2,Pre,2022_May_24_1115,N-Back (New Version 2021),2021.1.4,120.12517042713247,
,,,,Conditions/Version_1/oneback(3)_v1.xlsx,New rule: Press 'space' when you see 1-back (i.e. the same letter as the one that appeared 1 letter ago.),r,space,,,,,,,,,0,11,11,11,0,8,8,8,,,,,,,,,,,,,,,,,,,,,,,,,,,,,,,,,,,,,,,,,,,,,,,,,,,,,,,,,,,,,,,,,,,,,1.878,1223.2889175,None,space,1,1223.2889175,None,0.4405833000000712,P046,fencog,2,Pre,2022_May_24_1115,N-Back (New Version 2021),2021.1.4,120.12517042713247,
,,,,Conditions/Version_1/oneback(3)_v1.xlsx,New rule: Press 'space' when you see 1-back (i.e. the same letter as the one that appeared 1 letter ago.),P,None,,,,,,,,,0,11,11,11,0,9,9,9,,,,,,,,,,,,,,,,,,,,,,,,,,,,,,,,,,,,,,,,,,,,,,,,,,,,,,,,,,,,,,,,,,,,,1.2456,1226.5459612000004,None,None,1,1226.5459612000004,None,,P046,fencog,2,Pre,2022_May_24_1115,N-Back (New Version 2021),2021.1.4,120.12517042713247,
,,,,Conditions/Version_1/oneback(3)_v1.xlsx,New rule: Press 'space' when you see 1-back (i.e. the same letter as the one that appeared 1 letter ago.),,,,,,,,,,,0,11,11,11,,,,,,,,,,,,,,,,,,,,,,,,,,,,,,,,,,,,,,,,,,,,,,,,,,,,,,,,,,,,,,,,,,,,,,,,,,,,,,,,,P046,fencog,2,Pre,2022_May_24_1115,N-Back (New Version 2021),2021.1.4,120.12517042713247,
,,,,Conditions/Version_1/twoback(4)_v1.xlsx,New rule: Press 'space' when you see 2-back (i.e. the same letter as the one that appeared 2 letters ago.),r,None,,,,,,,,,0,12,12,12,0,0,0,0,,,,,,,,,,,,,,,,,,,,,,,,,,,,,,,,,,,,,,,,,,,,,,,,,,,,,,,,,,,1228.5804082000004,None,1231.5628293,None,space,0.40666090000013355,1231.5628293,None,1228.5804082000004,None,1.8346,1233.8682009000004,None,None,1,1233.8682009000004,None,,P046,fencog,2,Pre,2022_May_24_1115,N-Back (New Version 2021),2021.1.4,120.12517042713247,
,,,,Conditions/Version_1/twoback(4)_v1.xlsx,New rule: Press 'space' when you see 2-back (i.e. the same letter as the one that appeared 2 letters ago.),T,None,,,,,,,,,0,12,12,12,0,1,1,1,,,,,,,,,,,,,,,,,,,,,,,,,,,,,,,,,,,,,,,,,,,,,,,,,,,,,,,,,,,,,,,,,,,,,1.3572,1237.2250586,None,None,1,1237.2250586,None,,P046,fencog,2,Pre,2022_May_24_1115,N-Back (New Version 2021),2021.1.4,120.12517042713247,
,,,,Conditions/Version_1/twoback(4)_v1.xlsx,New rule: Press 'space' when you see 2-back (i.e. the same letter as the one that appeared 2 letters ago.),o,None,,,,,,,,,0,12,12,12,0,2,2,2,,,,,,,,,,,,,,,,,,,,,,,,,,,,,,,,,,,,,,,,,,,,,,,,,,,,,,,,,,,,,,,,,,,,,1.4626,1240.6907781999998,None,None,1,1240.6907781999998,None,,P046,fencog,2,Pre,2022_May_24_1115,N-Back (New Version 2021),2021.1.4,120.12517042713247,
,,,,Conditions/Version_1/twoback(4)_v1.xlsx,New rule: Press 'space' when you see 2-back (i.e. the same letter as the one that appeared 2 letters ago.),p,None,,,,,,,,,0,12,12,12,0,3,3,3,,,,,,,,,,,,,,,,,,,,,,,,,,,,,,,,,,,,,,,,,,,,,,,,,,,,,,,,,,,,,,,,,,,,,1.1526,1243.8482387000004,None,None,1,1243.8482387000004,None,,P046,fencog,2,Pre,2022_May_24_1115,N-Back (New Version 2021),2021.1.4,120.12517042713247,
,,,,Conditions/Version_1/twoback(4)_v1.xlsx,New rule: Press 'space' when you see 2-back (i.e. the same letter as the one that appeared 2 letters ago.),p,None,,,,,,,,,0,12,12,12,0,4,4,4,,,,,,,,,,,,,,,,,,,,,,,,,,,,,,,,,,,,,,,,,,,,,,,,,,,,,,,,,,,,,,,,,,,,,1.1836,1247.0390516000007,None,None,1,1247.0390516000007,None,,P046,fencog,2,Pre,2022_May_24_1115,N-Back (New Version 2021),2021.1.4,120.12517042713247,
,,,,Conditions/Version_1/twoback(4)_v1.xlsx,New rule: Press 'space' when you see 2-back (i.e. the same letter as the one that appeared 2 letters ago.),y,None,,,,,,,,,0,12,12,12,0,5,5,5,,,,,,,,,,,,,,,,,,,,,,,,,,,,,,,,,,,,,,,,,,,,,,,,,,,,,,,,,,,,,,,,,,,,,1.072,1250.1129157000005,None,None,1,1250.1129157000005,None,,P046,fencog,2,Pre,2022_May_24_1115,N-Back (New Version 2021),2021.1.4,120.12517042713247,
,,,,Conditions/Version_1/twoback(4)_v1.xlsx,New rule: Press 'space' when you see 2-back (i.e. the same letter as the one that appeared 2 letters ago.),P,space,,,,,,,,,0,12,12,12,0,6,6,6,,,,,,,,,,,,,,,,,,,,,,,,,,,,,,,,,,,,,,,,,,,,,,,,,,,,,,,,,,,,,,,,,,,,,1.6052,1253.7203184,None,space,1,1253.7203184,None,0.6171271000002889,P046,fencog,2,Pre,2022_May_24_1115,N-Back (New Version 2021),2021.1.4,120.12517042713247,
,,,,Conditions/Version_1/twoback(4)_v1.xlsx,New rule: Press 'space' when you see 2-back (i.e. the same letter as the one that appeared 2 letters ago.),y,None,,,,,,,,,0,12,12,12,0,7,7,7,,,,,,,,,,,,,,,,,,,,,,,,,,,,,,,,,,,,,,,,,,,,,,,,,,,,,,,,,,,,,,,,,,,,,1.3262,1257.0525465,None,space,0,1257.0525465,None,0.4368627000003471,P046,fencog,2,Pre,2022_May_24_1115,N-Back (New Version 2021),2021.1.4,120.12517042713247,
,,,,Conditions/Version_1/twoback(4)_v1.xlsx,New rule: Press 'space' when you see 2-back (i.e. the same letter as the one that appeared 2 letters ago.),y,space,,,,,,,,,0,12,12,12,0,8,8,8,,,,,,,,,,,,,,,,,,,,,,,,,,,,,,,,,,,,,,,,,,,,,,,,,,,,,,,,,,,,,,,,,,,,,1.8284,1260.8847878000006,None,None,0,1260.8847878000006,None,,P046,fencog,2,Pre,2022_May_24_1115,N-Back (New Version 2021),2021.1.4,120.12517042713247,
,,,,Conditions/Version_1/twoback(4)_v1.xlsx,New rule: Press 'space' when you see 2-back (i.e. the same letter as the one that appeared 2 letters ago.),,,,,,,,,,,0,12,12,12,,,,,,,,,,,,,,,,,,,,,,,,,,,,,,,,,,,,,,,,,,,,,,,,,,,,,,,,,,,,,,,,,,,,,,,,,,,,,,,,,P046,fencog,2,Pre,2022_May_24_1115,N-Back (New Version 2021),2021.1.4,120.12517042713247,
,,,,Conditions/Version_1/zeroback(4)_v1.xlsx,New rule: Press 'space' when you see the letter 'x' or 'X'.,o,None,,,,,,,,,0,13,13,13,0,0,0,0,,,,,,,,,,,,,,,,,,,,,,,,,,,,,,,,,,,,,,,,,,,,,,,,,,,,,,,,,,,1262.9052302999999,None,1265.8957257000002,None,space,0.7298876999993809,1265.8957257000002,None,1262.9052302999999,None,1.9958,1268.657913,None,None,1,1268.657913,None,,P046,fencog,2,Pre,2022_May_24_1115,N-Back (New Version 2021),2021.1.4,120.12517042713247,
,,,,Conditions/Version_1/zeroback(4)_v1.xlsx,New rule: Press 'space' when you see the letter 'x' or 'X'.,X,space,,,,,,,,,0,13,13,13,0,1,1,1,,,,,,,,,,,,,,,,,,,,,,,,,,,,,,,,,,,,,,,,,,,,,,,,,,,,,,,,,,,,,,,,,,,,,1.3634,1272.0231233000004,None,space,1,1272.0231233000004,None,0.5548474000006536,P046,fencog,2,Pre,2022_May_24_1115,N-Back (New Version 2021),2021.1.4,120.12517042713247,
,,,,Conditions/Version_1/zeroback(4)_v1.xlsx,New rule: Press 'space' when you see the letter 'x' or 'X'.,p,None,,,,,,,,,0,13,13,13,0,2,2,2,,,,,,,,,,,,,,,,,,,,,,,,,,,,,,,,,,,,,,,,,,,,,,,,,,,,,,,,,,,,,,,,,,,,,1.8966,1275.9313323000006,None,None,1,1275.9313323000006,None,,P046,fencog,2,Pre,2022_May_24_1115,N-Back (New Version 2021),2021.1.4,120.12517042713247,
,,,,Conditions/Version_1/zeroback(4)_v1.xlsx,New rule: Press 'space' when you see the letter 'x' or 'X'.,m,None,,,,,,,,,0,13,13,13,0,3,3,3,,,,,,,,,,,,,,,,,,,,,,,,,,,,,,,,,,,,,,,,,,,,,,,,,,,,,,,,,,,,,,,,,,,,,1.3696,1279.3126192999998,None,None,1,1279.3126192999998,None,,P046,fencog,2,Pre,2022_May_24_1115,N-Back (New Version 2021),2021.1.4,120.12517042713247,
,,,,Conditions/Version_1/zeroback(4)_v1.xlsx,New rule: Press 'space' when you see the letter 'x' or 'X'.,n,None,,,,,,,,,0,13,13,13,0,4,4,4,,,,,,,,,,,,,,,,,,,,,,,,,,,,,,,,,,,,,,,,,,,,,,,,,,,,,,,,,,,,,,,,,,,,,1.0348,1282.3534117,None,None,1,1282.3534117,None,,P046,fencog,2,Pre,2022_May_24_1115,N-Back (New Version 2021),2021.1.4,120.12517042713247,
,,,,Conditions/Version_1/zeroback(4)_v1.xlsx,New rule: Press 'space' when you see the letter 'x' or 'X'.,m,None,,,,,,,,,0,13,13,13,0,5,5,5,,,,,,,,,,,,,,,,,,,,,,,,,,,,,,,,,,,,,,,,,,,,,,,,,,,,,,,,,,,,,,,,,,,,,1.5308,1285.8874460000006,None,None,1,1285.8874460000006,None,,P046,fencog,2,Pre,2022_May_24_1115,N-Back (New Version 2021),2021.1.4,120.12517042713247,
,,,,Conditions/Version_1/zeroback(4)_v1.xlsx,New rule: Press 'space' when you see the letter 'x' or 'X'.,C,None,,,,,,,,,0,13,13,13,0,6,6,6,,,,,,,,,,,,,,,,,,,,,,,,,,,,,,,,,,,,,,,,,,,,,,,,,,,,,,,,,,,,,,,,,,,,,1.4316,1289.3263357000005,None,None,1,1289.3263357000005,None,,P046,fencog,2,Pre,2022_May_24_1115,N-Back (New Version 2021),2021.1.4,120.12517042713247,
,,,,Conditions/Version_1/zeroback(4)_v1.xlsx,New rule: Press 'space' when you see the letter 'x' or 'X'.,m,None,,,,,,,,,0,13,13,13,0,7,7,7,,,,,,,,,,,,,,,,,,,,,,,,,,,,,,,,,,,,,,,,,,,,,,,,,,,,,,,,,,,,,,,,,,,,,1.2146,1292.5441226000003,None,None,1,1292.5441226000003,None,,P046,fencog,2,Pre,2022_May_24_1115,N-Back (New Version 2021),2021.1.4,120.12517042713247,
,,,,Conditions/Version_1/zeroback(4)_v1.xlsx,New rule: Press 'space' when you see the letter 'x' or 'X'.,p,None,,,,,,,,,0,13,13,13,0,8,8,8,,,,,,,,,,,,,,,,,,,,,,,,,,,,,,,,,,,,,,,,,,,,,,,,,,,,,,,,,,,,,,,,,,,,,1.661,1296.2160283000003,None,None,1,1296.2160283000003,None,,P046,fencog,2,Pre,2022_May_24_1115,N-Back (New Version 2021),2021.1.4,120.12517042713247,
,,,,Conditions/Version_1/zeroback(4)_v1.xlsx,New rule: Press 'space' when you see the letter 'x' or 'X'.,X,space,,,,,,,,,0,13,13,13,0,9,9,9,,,,,,,,,,,,,,,,,,,,,,,,,,,,,,,,,,,,,,,,,,,,,,,,,,,,,,,,,,,,,,,,,,,,,1.6362,1299.8564020000003,None,space,1,1299.8564020000003,None,0.37709039999936067,P046,fencog,2,Pre,2022_May_24_1115,N-Back (New Version 2021),2021.1.4,120.12517042713247,
,,,,Conditions/Version_1/zeroback(4)_v1.xlsx,New rule: Press 'space' when you see the letter 'x' or 'X'.,,,,,,,,,,,0,13,13,13,,,,,,,,,,,,,,,,,,,,,,,,,,,,,,,,,,,,,,,,,,,,,,,,,,,,,,,,,,,,,,,,,,,,,,,,,,,,,,,,,P046,fencog,2,Pre,2022_May_24_1115,N-Back (New Version 2021),2021.1.4,120.12517042713247,
,,,,Conditions/Version_1/oneback(4)_v1.xlsx,New rule: Press 'space' when you see 1-back (i.e. the same letter as the one that appeared 1 letter ago.),w,None,,,,,,,,,0,14,14,14,0,0,0,0,,,,,,,,,,,,,,,,,,,,,,,,,,,,,,,,,,,,,,,,,,,,,,,,,,,,,,,,,,,1301.8881265999999,None,1304.8741902000002,None,space,1.719167600000219,1304.8741902000002,None,1301.8881265999999,None,1.227,1307.8542681,None,None,1,1307.8542681,None,,P046,fencog,2,Pre,2022_May_24_1115,N-Back (New Version 2021),2021.1.4,120.12517042713247,
,,,,Conditions/Version_1/oneback(4)_v1.xlsx,New rule: Press 'space' when you see 1-back (i.e. the same letter as the one that appeared 1 letter ago.),q,None,,,,,,,,,0,14,14,14,0,1,1,1,,,,,,,,,,,,,,,,,,,,,,,,,,,,,,,,,,,,,,,,,,,,,,,,,,,,,,,,,,,,,,,,,,,,,1.8036,1311.6626556,None,None,1,1311.6626556,None,,P046,fencog,2,Pre,2022_May_24_1115,N-Back (New Version 2021),2021.1.4,120.12517042713247,
,,,,Conditions/Version_1/oneback(4)_v1.xlsx,New rule: Press 'space' when you see 1-back (i.e. the same letter as the one that appeared 1 letter ago.),i,None,,,,,,,,,0,14,14,14,0,2,2,2,,,,,,,,,,,,,,,,,,,,,,,,,,,,,,,,,,,,,,,,,,,,,,,,,,,,,,,,,,,,,,,,,,,,,1.8966,1315.5696986000003,None,None,1,1315.5696986000003,None,,P046,fencog,2,Pre,2022_May_24_1115,N-Back (New Version 2021),2021.1.4,120.12517042713247,
,,,,Conditions/Version_1/oneback(4)_v1.xlsx,New rule: Press 'space' when you see 1-back (i.e. the same letter as the one that appeared 1 letter ago.),t,None,,,,,,,,,0,14,14,14,0,3,3,3,,,,,,,,,,,,,,,,,,,,,,,,,,,,,,,,,,,,,,,,,,,,,,,,,,,,,,,,,,,,,,,,,,,,,1.8842,1319.4674691999999,None,None,1,1319.4674691999999,None,,P046,fencog,2,Pre,2022_May_24_1115,N-Back (New Version 2021),2021.1.4,120.12517042713247,
,,,,Conditions/Version_1/oneback(4)_v1.xlsx,New rule: Press 'space' when you see 1-back (i.e. the same letter as the one that appeared 1 letter ago.),v,None,,,,,,,,,0,14,14,14,0,4,4,4,,,,,,,,,,,,,,,,,,,,,,,,,,,,,,,,,,,,,,,,,,,,,,,,,,,,,,,,,,,,,,,,,,,,,1.3448,1322.8182355,None,None,1,1322.8182355,None,,P046,fencog,2,Pre,2022_May_24_1115,N-Back (New Version 2021),2021.1.4,120.12517042713247,
,,,,Conditions/Version_1/oneback(4)_v1.xlsx,New rule: Press 'space' when you see 1-back (i.e. the same letter as the one that appeared 1 letter ago.),V,space,,,,,,,,,0,14,14,14,0,5,5,5,,,,,,,,,,,,,,,,,,,,,,,,,,,,,,,,,,,,,,,,,,,,,,,,,,,,,,,,,,,,,,,,,,,,,1.1526,1325.9838427000004,None,space,1,1325.9838427000004,None,0.5375799999992523,P046,fencog,2,Pre,2022_May_24_1115,N-Back (New Version 2021),2021.1.4,120.12517042713247,
,,,,Conditions/Version_1/oneback(4)_v1.xlsx,New rule: Press 'space' when you see 1-back (i.e. the same letter as the one that appeared 1 letter ago.),v,space,,,,,,,,,0,14,14,14,0,6,6,6,,,,,,,,,,,,,,,,,,,,,,,,,,,,,,,,,,,,,,,,,,,,,,,,,,,,,,,,,,,,,,,,,,,,,1.01,1329.0072186000007,None,space,1,1329.0072186000007,None,0.4661034999999174,P046,fencog,2,Pre,2022_May_24_1115,N-Back (New Version 2021),2021.1.4,120.12517042713247,
,,,,Conditions/Version_1/oneback(4)_v1.xlsx,New rule: Press 'space' when you see 1-back (i.e. the same letter as the one that appeared 1 letter ago.),p,None,,,,,,,,,0,14,14,14,0,7,7,7,,,,,,,,,,,,,,,,,,,,,,,,,,,,,,,,,,,,,,,,,,,,,,,,,,,,,,,,,,,,,,,,,,,,,1.4006,1332.4164253,None,None,1,1332.4164253,None,,P046,fencog,2,Pre,2022_May_24_1115,N-Back (New Version 2021),2021.1.4,120.12517042713247,
,,,,Conditions/Version_1/oneback(4)_v1.xlsx,New rule: Press 'space' when you see 1-back (i.e. the same letter as the one that appeared 1 letter ago.),w,None,,,,,,,,,0,14,14,14,0,8,8,8,,,,,,,,,,,,,,,,,,,,,,,,,,,,,,,,,,,,,,,,,,,,,,,,,,,,,,,,,,,,,,,,,,,,,1.0906,1335.5128029000007,None,None,1,1335.5128029000007,None,,P046,fencog,2,Pre,2022_May_24_1115,N-Back (New Version 2021),2021.1.4,120.12517042713247,
,,,,Conditions/Version_1/oneback(4)_v1.xlsx,New rule: Press 'space' when you see 1-back (i.e. the same letter as the one that appeared 1 letter ago.),W,space,,,,,,,,,0,14,14,14,0,9,9,9,,,,,,,,,,,,,,,,,,,,,,,,,,,,,,,,,,,,,,,,,,,,,,,,,,,,,,,,,,,,,,,,,,,,,1.4812,1338.9951460000002,None,space,1,1338.9951460000002,None,0.40625230000023294,P046,fencog,2,Pre,2022_May_24_1115,N-Back (New Version 2021),2021.1.4,120.12517042713247,
,,,,Conditions/Version_1/oneback(4)_v1.xlsx,New rule: Press 'space' when you see 1-back (i.e. the same letter as the one that appeared 1 letter ago.),,,,,,,,,,,0,14,14,14,,,,,,,,,,,,,,,,,,,,,,,,,,,,,,,,,,,,,,,,,,,,,,,,,,,,,,,,,,,,,,,,,,,,,,,,,,,,,,,,,P046,fencog,2,Pre,2022_May_24_1115,N-Back (New Version 2021),2021.1.4,120.12517042713247,
,,,,Conditions/Version_1/threeback(4)_v1.xlsx,New rule: Press 'space' when you see 3-back (i.e. the same letter as the one that appeared 3 letters ago.),A,None,,,,,,,,,0,15,15,15,0,0,0,0,,,,,,,,,,,,,,,,,,,,,,,,,,,,,,,,,,,,,,,,,,,,,,,,,,,,,,,,,,,1341.0177666999998,None,1344.0037590000002,None,space,18.99755610000011,1344.0037590000002,None,1341.0177666999998,None,1.0596,1364.0989399999999,None,None,1,1364.0989399999999,None,,P046,fencog,2,Pre,2022_May_24_1115,N-Back (New Version 2021),2021.1.4,120.12517042713247,
,,,,Conditions/Version_1/threeback(4)_v1.xlsx,New rule: Press 'space' when you see 3-back (i.e. the same letter as the one that appeared 3 letters ago.),n,None,,,,,,,,,0,15,15,15,0,1,1,1,,,,,,,,,,,,,,,,,,,,,,,,,,,,,,,,,,,,,,,,,,,,,,,,,,,,,,,,,,,,,,,,,,,,,1.103,1367.2197833999999,None,None,1,1367.2197833999999,None,,P046,fencog,2,Pre,2022_May_24_1115,N-Back (New Version 2021),2021.1.4,120.12517042713247,
,,,,Conditions/Version_1/threeback(4)_v1.xlsx,New rule: Press 'space' when you see 3-back (i.e. the same letter as the one that appeared 3 letters ago.),g,None,,,,,,,,,0,15,15,15,0,2,2,2,,,,,,,,,,,,,,,,,,,,,,,,,,,,,,,,,,,,,,,,,,,,,,,,,,,,,,,,,,,,,,,,,,,,,1.0844,1370.3112972,None,None,1,1370.3112972,None,,P046,fencog,2,Pre,2022_May_24_1115,N-Back (New Version 2021),2021.1.4,120.12517042713247,
,,,,Conditions/Version_1/threeback(4)_v1.xlsx,New rule: Press 'space' when you see 3-back (i.e. the same letter as the one that appeared 3 letters ago.),A,space,,,,,,,,,0,15,15,15,0,3,3,3,,,,,,,,,,,,,,,,,,,,,,,,,,,,,,,,,,,,,,,,,,,,,,,,,,,,,,,,,,,,,,,,,,,,,1.723,1374.0442258000003,None,space,1,1374.0442258000003,None,0.5492064999998547,P046,fencog,2,Pre,2022_May_24_1115,N-Back (New Version 2021),2021.1.4,120.12517042713247,
,,,,Conditions/Version_1/threeback(4)_v1.xlsx,New rule: Press 'space' when you see 3-back (i.e. the same letter as the one that appeared 3 letters ago.),p,None,,,,,,,,,0,15,15,15,0,4,4,4,,,,,,,,,,,,,,,,,,,,,,,,,,,,,,,,,,,,,,,,,,,,,,,,,,,,,,,,,,,,,,,,,,,,,1.8656,1377.9168174000006,None,None,1,1377.9168174000006,None,,P046,fencog,2,Pre,2022_May_24_1115,N-Back (New Version 2021),2021.1.4,120.12517042713247,
,,,,Conditions/Version_1/threeback(4)_v1.xlsx,New rule: Press 'space' when you see 3-back (i.e. the same letter as the one that appeared 3 letters ago.),O,None,,,,,,,,,0,15,15,15,0,5,5,5,,,,,,,,,,,,,,,,,,,,,,,,,,,,,,,,,,,,,,,,,,,,,,,,,,,,,,,,,,,,,,,,,,,,,1.8594,1381.7824540000001,None,None,1,1381.7824540000001,None,,P046,fencog,2,Pre,2022_May_24_1115,N-Back (New Version 2021),2021.1.4,120.12517042713247,
,,,,Conditions/Version_1/threeback(4)_v1.xlsx,New rule: Press 'space' when you see 3-back (i.e. the same letter as the one that appeared 3 letters ago.),a,space,,,,,,,,,0,15,15,15,0,6,6,6,,,,,,,,,,,,,,,,,,,,,,,,,,,,,,,,,,,,,,,,,,,,,,,,,,,,,,,,,,,,,,,,,,,,,1.0224,1384.8064582000006,None,space,1,1384.8064582000006,None,0.5313221000005797,P046,fencog,2,Pre,2022_May_24_1115,N-Back (New Version 2021),2021.1.4,120.12517042713247,
,,,,Conditions/Version_1/threeback(4)_v1.xlsx,New rule: Press 'space' when you see 3-back (i.e. the same letter as the one that appeared 3 letters ago.),p,space,,,,,,,,,0,15,15,15,0,7,7,7,,,,,,,,,,,,,,,,,,,,,,,,,,,,,,,,,,,,,,,,,,,,,,,,,,,,,,,,,,,,,,,,,,,,,1.072,1387.8806081000002,None,space,1,1387.8806081000002,None,0.6727605000005497,P046,fencog,2,Pre,2022_May_24_1115,N-Back (New Version 2021),2021.1.4,120.12517042713247,
,,,,Conditions/Version_1/threeback(4)_v1.xlsx,New rule: Press 'space' when you see 3-back (i.e. the same letter as the one that appeared 3 letters ago.),x,None,,,,,,,,,0,15,15,15,0,8,8,8,,,,,,,,,,,,,,,,,,,,,,,,,,,,,,,,,,,,,,,,,,,,,,,,,,,,,,,,,,,,,,,,,,,,,1.3634,1391.2567915999998,None,None,1,1391.2567915999998,None,,P046,fencog,2,Pre,2022_May_24_1115,N-Back (New Version 2021),2021.1.4,120.12517042713247,
,,,,Conditions/Version_1/threeback(4)_v1.xlsx,New rule: Press 'space' when you see 3-back (i.e. the same letter as the one that appeared 3 letters ago.),X,None,,,,,,,,,0,15,15,15,0,9,9,9,,,,,,,,,,,,,,,,,,,,,,,,,,,,,,,,,,,,,,,,,,,,,,,,,,,,,,,,,,,,,,,,,,,,,1.0782,1394.3488717999999,None,None,1,1394.3488717999999,None,,P046,fencog,2,Pre,2022_May_24_1115,N-Back (New Version 2021),2021.1.4,120.12517042713247,
,,,,Conditions/Version_1/threeback(4)_v1.xlsx,New rule: Press 'space' when you see 3-back (i.e. the same letter as the one that appeared 3 letters ago.),,,,,,,,,,,0,15,15,15,,,,,,,,,,,,,,,,,,,,,,,,,,,,,,,,,,,,,,,,,,,,,,,,,,,,,,,,,,,,,,,,,,,,,,,,,,,,,,,,,P046,fencog,2,Pre,2022_May_24_1115,N-Back (New Version 2021),2021.1.4,120.12517042713247,
