CondFileP,InstructionsP,LettersDisplayedP,CorrectnessP,CondFile,Instructions,LettersDisplayed,Correctness,practicetrials.thisRepN,practicetrials.thisTrialN,practicetrials.thisN,practicetrials.thisIndex,InnerLoopPractice.thisRepN,InnerLoopPractice.thisTrialN,InnerLoopPractice.thisN,InnerLoopPractice.thisIndex,trials.thisRepN,trials.thisTrialN,trials.thisN,trials.thisIndex,InnerLoop.thisRepN,InnerLoop.thisTrialN,InnerLoop.thisN,InnerLoop.thisIndex,TaskVersionText.started,TaskVersionText.stopped,InstrKey1.keys,InstrKey1.rt,InstrKey1.started,InstrKey1.stopped,text.started,text.stopped,key_resp_4.keys,key_resp_4.rt,key_resp_4.started,key_resp_4.stopped,text_2.started,text_2.stopped,key_resp_3.keys,key_resp_3.rt,key_resp_3.started,key_resp_3.stopped,text_3.started,text_3.stopped,key_resp_2.keys,key_resp_2.rt,key_resp_2.started,key_resp_2.stopped,PractIn1.started,PractIn1.stopped,PractIn2.started,PractIn2.stopped,PractInstructionPass.keys,PractInstructionPass.rt,PractInstructionPass.started,PractInstructionPass.stopped,PractBlock1.started,PractBlock1.stopped,ISIjitterPractice,ISI_Pract_Fixation.started,ISI_Pract_Fixation.stopped,N_backP.started,N_backP.stopped,KeyPractice.keys,KeyPractice.corr,KeyPractice.started,KeyPractice.stopped,text_4.started,text_4.stopped,KeyPractice.rt,TransitionText.started,TransitionText.stopped,key_resp_6.keys,key_resp_6.rt,key_resp_6.started,key_resp_6.stopped,text_5.started,text_5.stopped,key_resp_5.keys,key_resp_5.rt,key_resp_5.started,key_resp_5.stopped,MainInt1.started,MainInt1.stopped,MainInt2.started,MainInt2.stopped,InstructionPass.keys,InstructionPass.rt,InstructionPass.started,InstructionPass.stopped,Blocks1.started,Blocks1.stopped,ISIjitter,N_backD.started,N_backD.stopped,key_resp.keys,key_resp.corr,key_resp.started,key_resp.stopped,key_resp.rt,participant,Study Name,Task Version (required to run),PRE/POST,date,expName,psychopyVersion,frameRate
,,,,,,,,,,,,,,,,,,,,,,,,38.2398712,None,space,28.4534783,38.7322571,None,,,,,,,,,,,,,,,,,,,,,,,,,,,,,,,,,,,,,,,,,,,,,,,,,,,,,,,,,,,,,,,,,,,,,,,P046,FENCOG,1,Post,2022_Jun_01_1150,N-Back (New Version 2021),2021.1.4,120.347805
,,,,,,,,,,,,,,,,,,,,,,,,,,,,,,67.2204254,None,space,0.3418989,67.7157817,None,,,,,,,,,,,,,,,,,,,,,,,,,,,,,,,,,,,,,,,,,,,,,,,,,,,,,,,,,,,,,,,,,P046,FENCOG,1,Post,2022_Jun_01_1150,N-Back (New Version 2021),2021.1.4,120.347805
,,,,,,,,,,,,,,,,,,,,,,,,,,,,,,,,,,,,68.0901552,None,space,0.859592,68.5823406,None,,,,,,,,,,,,,,,,,,,,,,,,,,,,,,,,,,,,,,,,,,,,,,,,,,,,,,,,,,,P046,FENCOG,1,Post,2022_Jun_01_1150,N-Back (New Version 2021),2021.1.4,120.347805
,,,,,,,,,,,,,,,,,,,,,,,,,,,,,,,,,,,,,,,,,,69.4667859,None,space,0.2768745,69.9568991,None,,,,,,,,,,,,,,,,,,,,,,,,,,,,,,,,,,,,,,,,,,,,,,,,,,,,,P046,FENCOG,1,Post,2022_Jun_01_1150,N-Back (New Version 2021),2021.1.4,120.347805
Conditions/Version_1Pr/zeroback(1)_v1.xlsx,Rule: Press 'space' when you see the letter 'x' or 'X'.,Z,None,,,,,0,0,0,0,0,0,0,0,,,,,,,,,,,,,,,,,,,,,,,,,,,,,,,,,71.6365254,None,74.6141277,None,space,0.3395601,74.6141277,None,71.6365254,None,1.615,74.9851914,None,76.6066743,None,None,1,76.6066743,None,78.6134197,None,,,,,,,,,,,,,,,,,,,,,,,,,,,,,,,,P046,FENCOG,1,Post,2022_Jun_01_1150,N-Back (New Version 2021),2021.1.4,120.347805
Conditions/Version_1Pr/zeroback(1)_v1.xlsx,Rule: Press 'space' when you see the letter 'x' or 'X'.,r,None,,,,,0,0,0,0,0,1,1,1,,,,,,,,,,,,,,,,,,,,,,,,,,,,,,,,,,,,,,,,,,,1.99,80.1114013,None,82.1101015,None,None,1,82.1101015,None,84.1102618,None,,,,,,,,,,,,,,,,,,,,,,,,,,,,,,,,P046,FENCOG,1,Post,2022_Jun_01_1150,N-Back (New Version 2021),2021.1.4,120.347805
Conditions/Version_1Pr/zeroback(1)_v1.xlsx,Rule: Press 'space' when you see the letter 'x' or 'X'.,X,space,,,,,0,0,0,0,0,2,2,2,,,,,,,,,,,,,,,,,,,,,,,,,,,,,,,,,,,,,,,,,,,1.215,85.6098159,None,86.8288053,None,space,1,86.8288053,None,87.2283622,None,0.3890223,,,,,,,,,,,,,,,,,,,,,,,,,,,,,,,P046,FENCOG,1,Post,2022_Jun_01_1150,N-Back (New Version 2021),2021.1.4,120.347805
Conditions/Version_1Pr/zeroback(1)_v1.xlsx,Rule: Press 'space' when you see the letter 'x' or 'X'.,p,None,,,,,0,0,0,0,0,3,3,3,,,,,,,,,,,,,,,,,,,,,,,,,,,,,,,,,,,,,,,,,,,2.015,88.7337464,None,90.7527484,None,None,1,90.7527484,None,92.7576149,None,,,,,,,,,,,,,,,,,,,,,,,,,,,,,,,,P046,FENCOG,1,Post,2022_Jun_01_1150,N-Back (New Version 2021),2021.1.4,120.347805
Conditions/Version_1Pr/zeroback(1)_v1.xlsx,Rule: Press 'space' when you see the letter 'x' or 'X'.,w,None,,,,,0,0,0,0,0,4,4,4,,,,,,,,,,,,,,,,,,,,,,,,,,,,,,,,,,,,,,,,,,,1.64,94.2572437,None,95.8999367,None,None,1,95.8999367,None,97.9059373,None,,,,,,,,,,,,,,,,,,,,,,,,,,,,,,,,P046,FENCOG,1,Post,2022_Jun_01_1150,N-Back (New Version 2021),2021.1.4,120.347805
Conditions/Version_1Pr/zeroback(1)_v1.xlsx,Rule: Press 'space' when you see the letter 'x' or 'X'.,e,None,,,,,0,0,0,0,0,5,5,5,,,,,,,,,,,,,,,,,,,,,,,,,,,,,,,,,,,,,,,,,,,1.465,99.4056922,None,100.873614,None,None,1,100.873614,None,102.8796786,None,,,,,,,,,,,,,,,,,,,,,,,,,,,,,,,,P046,FENCOG,1,Post,2022_Jun_01_1150,N-Back (New Version 2021),2021.1.4,120.347805
Conditions/Version_1Pr/zeroback(1)_v1.xlsx,Rule: Press 'space' when you see the letter 'x' or 'X'.,X,space,,,,,0,0,0,0,0,6,6,6,,,,,,,,,,,,,,,,,,,,,,,,,,,,,,,,,,,,,,,,,,,1.815,104.3792626,None,106.195655,None,space,1,106.195655,None,106.5634682,None,0.358194,,,,,,,,,,,,,,,,,,,,,,,,,,,,,,,P046,FENCOG,1,Post,2022_Jun_01_1150,N-Back (New Version 2021),2021.1.4,120.347805
Conditions/Version_1Pr/zeroback(1)_v1.xlsx,Rule: Press 'space' when you see the letter 'x' or 'X'.,x,space,,,,,0,0,0,0,0,7,7,7,,,,,,,,,,,,,,,,,,,,,,,,,,,,,,,,,,,,,,,,,,,1.415,108.0708559,None,109.4868602,None,space,1,109.4868602,None,109.9356264,None,0.4348914,,,,,,,,,,,,,,,,,,,,,,,,,,,,,,,P046,FENCOG,1,Post,2022_Jun_01_1150,N-Back (New Version 2021),2021.1.4,120.347805
Conditions/Version_1Pr/zeroback(1)_v1.xlsx,Rule: Press 'space' when you see the letter 'x' or 'X'.,p,None,,,,,0,0,0,0,0,8,8,8,,,,,,,,,,,,,,,,,,,,,,,,,,,,,,,,,,,,,,,,,,,1.265,111.4354352,None,112.7029913,None,None,1,112.7029913,None,114.7095469,None,,,,,,,,,,,,,,,,,,,,,,,,,,,,,,,,P046,FENCOG,1,Post,2022_Jun_01_1150,N-Back (New Version 2021),2021.1.4,120.347805
Conditions/Version_1Pr/zeroback(1)_v1.xlsx,Rule: Press 'space' when you see the letter 'x' or 'X'.,r,None,,,,,0,0,0,0,0,9,9,9,,,,,,,,,,,,,,,,,,,,,,,,,,,,,,,,,,,,,,,,,,,1.065,116.2089096,None,117.2764025,None,None,1,117.2764025,None,119.2831837,None,,,,,,,,,,,,,,,,,,,,,,,,,,,,,,,,P046,FENCOG,1,Post,2022_Jun_01_1150,N-Back (New Version 2021),2021.1.4,120.347805
Conditions/Version_1Pr/zeroback(1)_v1.xlsx,Rule: Press 'space' when you see the letter 'x' or 'X'.,,,,,,,0,0,0,0,,,,,,,,,,,,,,,,,,,,,,,,,,,,,,,,,,,,,,,,,,,,,,,,,,,,,,,,,,,,,,,,,,,,,,,,,,,,,,,,,,,,,,,,,P046,FENCOG,1,Post,2022_Jun_01_1150,N-Back (New Version 2021),2021.1.4,120.347805
Conditions/Version_1Pr/oneback(1)_v1.xlsx,New rule: Press 'space' when you see 1-back (i.e. the same letter as the one that appeared 1 letter ago.),a,None,,,,,0,1,1,1,0,0,0,0,,,,,,,,,,,,,,,,,,,,,,,,,,,,,,,,,120.8061097,None,123.7917237,None,space,0.282057,123.7917237,None,120.8061097,None,1.915,124.1060155,None,126.0255634,None,None,1,126.0255634,None,128.0302286,None,,,,,,,,,,,,,,,,,,,,,,,,,,,,,,,,P046,FENCOG,1,Post,2022_Jun_01_1150,N-Back (New Version 2021),2021.1.4,120.347805
Conditions/Version_1Pr/oneback(1)_v1.xlsx,New rule: Press 'space' when you see 1-back (i.e. the same letter as the one that appeared 1 letter ago.),x,None,,,,,0,1,1,1,0,1,1,1,,,,,,,,,,,,,,,,,,,,,,,,,,,,,,,,,,,,,,,,,,,1.215,129.5300892,None,130.7470524,None,None,1,130.7470524,None,132.754157,None,,,,,,,,,,,,,,,,,,,,,,,,,,,,,,,,P046,FENCOG,1,Post,2022_Jun_01_1150,N-Back (New Version 2021),2021.1.4,120.347805
Conditions/Version_1Pr/oneback(1)_v1.xlsx,New rule: Press 'space' when you see 1-back (i.e. the same letter as the one that appeared 1 letter ago.),g,None,,,,,0,1,1,1,0,2,2,2,,,,,,,,,,,,,,,,,,,,,,,,,,,,,,,,,,,,,,,,,,,1.49,134.2537265,None,135.7468512,None,None,1,135.7468512,None,137.7527284,None,,,,,,,,,,,,,,,,,,,,,,,,,,,,,,,,P046,FENCOG,1,Post,2022_Jun_01_1150,N-Back (New Version 2021),2021.1.4,120.347805
Conditions/Version_1Pr/oneback(1)_v1.xlsx,New rule: Press 'space' when you see 1-back (i.e. the same letter as the one that appeared 1 letter ago.),G,space,,,,,0,1,1,1,0,3,3,3,,,,,,,,,,,,,,,,,,,,,,,,,,,,,,,,,,,,,,,,,,,1.115,139.2523179,None,140.3698197,None,space,1,140.3698197,None,140.7022565,None,0.3198968,,,,,,,,,,,,,,,,,,,,,,,,,,,,,,,P046,FENCOG,1,Post,2022_Jun_01_1150,N-Back (New Version 2021),2021.1.4,120.347805
Conditions/Version_1Pr/oneback(1)_v1.xlsx,New rule: Press 'space' when you see 1-back (i.e. the same letter as the one that appeared 1 letter ago.),u,None,,,,,0,1,1,1,0,4,4,4,,,,,,,,,,,,,,,,,,,,,,,,,,,,,,,,,,,,,,,,,,,1.09,142.2023515,None,143.2942466,None,None,1,143.2942466,None,145.3003525,None,,,,,,,,,,,,,,,,,,,,,,,,,,,,,,,,P046,FENCOG,1,Post,2022_Jun_01_1150,N-Back (New Version 2021),2021.1.4,120.347805
Conditions/Version_1Pr/oneback(1)_v1.xlsx,New rule: Press 'space' when you see 1-back (i.e. the same letter as the one that appeared 1 letter ago.),y,None,,,,,0,1,1,1,0,5,5,5,,,,,,,,,,,,,,,,,,,,,,,,,,,,,,,,,,,,,,,,,,,1.415,146.8000268,None,148.2180246,None,None,1,148.2180246,None,150.2240446,None,,,,,,,,,,,,,,,,,,,,,,,,,,,,,,,,P046,FENCOG,1,Post,2022_Jun_01_1150,N-Back (New Version 2021),2021.1.4,120.347805
Conditions/Version_1Pr/oneback(1)_v1.xlsx,New rule: Press 'space' when you see 1-back (i.e. the same letter as the one that appeared 1 letter ago.),y,space,,,,,0,1,1,1,0,6,6,6,,,,,,,,,,,,,,,,,,,,,,,,,,,,,,,,,,,,,,,,,,,1.74,151.7235374,None,153.4647253,None,space,1,153.4647253,None,153.8076255,None,0.3288634,,,,,,,,,,,,,,,,,,,,,,,,,,,,,,,P046,FENCOG,1,Post,2022_Jun_01_1150,N-Back (New Version 2021),2021.1.4,120.347805
Conditions/Version_1Pr/oneback(1)_v1.xlsx,New rule: Press 'space' when you see 1-back (i.e. the same letter as the one that appeared 1 letter ago.),k,None,,,,,0,1,1,1,0,7,7,7,,,,,,,,,,,,,,,,,,,,,,,,,,,,,,,,,,,,,,,,,,,1.315,155.313766,None,156.6320048,None,None,1,156.6320048,None,158.6382357,None,,,,,,,,,,,,,,,,,,,,,,,,,,,,,,,,P046,FENCOG,1,Post,2022_Jun_01_1150,N-Back (New Version 2021),2021.1.4,120.347805
Conditions/Version_1Pr/oneback(1)_v1.xlsx,New rule: Press 'space' when you see 1-back (i.e. the same letter as the one that appeared 1 letter ago.),c,None,,,,,0,1,1,1,0,8,8,8,,,,,,,,,,,,,,,,,,,,,,,,,,,,,,,,,,,,,,,,,,,1.59,160.1377441,None,161.7292748,None,None,1,161.7292748,None,163.7286873,None,,,,,,,,,,,,,,,,,,,,,,,,,,,,,,,,P046,FENCOG,1,Post,2022_Jun_01_1150,N-Back (New Version 2021),2021.1.4,120.347805
Conditions/Version_1Pr/oneback(1)_v1.xlsx,New rule: Press 'space' when you see 1-back (i.e. the same letter as the one that appeared 1 letter ago.),r,None,,,,,0,1,1,1,0,9,9,9,,,,,,,,,,,,,,,,,,,,,,,,,,,,,,,,,,,,,,,,,,,1.965,165.2291237,None,167.1947619,None,None,1,167.1947619,None,169.2016643,None,,,,,,,,,,,,,,,,,,,,,,,,,,,,,,,,P046,FENCOG,1,Post,2022_Jun_01_1150,N-Back (New Version 2021),2021.1.4,120.347805
Conditions/Version_1Pr/oneback(1)_v1.xlsx,New rule: Press 'space' when you see 1-back (i.e. the same letter as the one that appeared 1 letter ago.),,,,,,,0,1,1,1,,,,,,,,,,,,,,,,,,,,,,,,,,,,,,,,,,,,,,,,,,,,,,,,,,,,,,,,,,,,,,,,,,,,,,,,,,,,,,,,,,,,,,,,,P046,FENCOG,1,Post,2022_Jun_01_1150,N-Back (New Version 2021),2021.1.4,120.347805
Conditions/Version_1Pr/twoback(1)_v1.xlsx,New rule: Press 'space' when you see 2-back (i.e. the same letter as the one that appeared 2 letters ago.),E,None,,,,,0,2,2,2,0,0,0,0,,,,,,,,,,,,,,,,,,,,,,,,,,,,,,,,,170.7289207,None,173.7108143,None,space,0.4108686,173.7108143,None,170.7289207,None,1.465,174.1550643,None,175.6269859,None,None,1,175.6269859,None,177.6326849,None,,,,,,,,,,,,,,,,,,,,,,,,,,,,,,,,P046,FENCOG,1,Post,2022_Jun_01_1150,N-Back (New Version 2021),2021.1.4,120.347805
Conditions/Version_1Pr/twoback(1)_v1.xlsx,New rule: Press 'space' when you see 2-back (i.e. the same letter as the one that appeared 2 letters ago.),p,None,,,,,0,2,2,2,0,1,1,1,,,,,,,,,,,,,,,,,,,,,,,,,,,,,,,,,,,,,,,,,,,1.665,179.1322545,None,180.7991573,None,None,1,180.7991573,None,182.8059078,None,,,,,,,,,,,,,,,,,,,,,,,,,,,,,,,,P046,FENCOG,1,Post,2022_Jun_01_1150,N-Back (New Version 2021),2021.1.4,120.347805
Conditions/Version_1Pr/twoback(1)_v1.xlsx,New rule: Press 'space' when you see 2-back (i.e. the same letter as the one that appeared 2 letters ago.),e,space,,,,,0,2,2,2,0,2,2,2,,,,,,,,,,,,,,,,,,,,,,,,,,,,,,,,,,,,,,,,,,,1.74,184.3055938,None,186.0485661,None,space,1,186.0485661,None,186.5819263,None,0.5216167,,,,,,,,,,,,,,,,,,,,,,,,,,,,,,,P046,FENCOG,1,Post,2022_Jun_01_1150,N-Back (New Version 2021),2021.1.4,120.347805
Conditions/Version_1Pr/twoback(1)_v1.xlsx,New rule: Press 'space' when you see 2-back (i.e. the same letter as the one that appeared 2 letters ago.),s,None,,,,,0,2,2,2,0,3,3,3,,,,,,,,,,,,,,,,,,,,,,,,,,,,,,,,,,,,,,,,,,,1.84,188.0877872,None,189.9344742,None,None,1,189.9344742,None,191.9367179,None,,,,,,,,,,,,,,,,,,,,,,,,,,,,,,,,P046,FENCOG,1,Post,2022_Jun_01_1150,N-Back (New Version 2021),2021.1.4,120.347805
Conditions/Version_1Pr/twoback(1)_v1.xlsx,New rule: Press 'space' when you see 2-back (i.e. the same letter as the one that appeared 2 letters ago.),S,None,,,,,0,2,2,2,0,4,4,4,,,,,,,,,,,,,,,,,,,,,,,,,,,,,,,,,,,,,,,,,,,2.015,193.436244,None,195.4575611,None,None,1,195.4575611,None,197.4601645,None,,,,,,,,,,,,,,,,,,,,,,,,,,,,,,,,P046,FENCOG,1,Post,2022_Jun_01_1150,N-Back (New Version 2021),2021.1.4,120.347805
Conditions/Version_1Pr/twoback(1)_v1.xlsx,New rule: Press 'space' when you see 2-back (i.e. the same letter as the one that appeared 2 letters ago.),s,space,,,,,0,2,2,2,0,5,5,5,,,,,,,,,,,,,,,,,,,,,,,,,,,,,,,,,,,,,,,,,,,1.94,198.9597028,None,200.9014934,None,space,1,200.9014934,None,201.252231,None,0.3401576,,,,,,,,,,,,,,,,,,,,,,,,,,,,,,,P046,FENCOG,1,Post,2022_Jun_01_1150,N-Back (New Version 2021),2021.1.4,120.347805
Conditions/Version_1Pr/twoback(1)_v1.xlsx,New rule: Press 'space' when you see 2-back (i.e. the same letter as the one that appeared 2 letters ago.),P,None,,,,,0,2,2,2,0,6,6,6,,,,,,,,,,,,,,,,,,,,,,,,,,,,,,,,,,,,,,,,,,,1.815,202.7585118,None,204.5761654,None,None,1,204.5761654,None,206.5823226,None,,,,,,,,,,,,,,,,,,,,,,,,,,,,,,,,P046,FENCOG,1,Post,2022_Jun_01_1150,N-Back (New Version 2021),2021.1.4,120.347805
Conditions/Version_1Pr/twoback(1)_v1.xlsx,New rule: Press 'space' when you see 2-back (i.e. the same letter as the one that appeared 2 letters ago.),C,None,,,,,0,2,2,2,0,7,7,7,,,,,,,,,,,,,,,,,,,,,,,,,,,,,,,,,,,,,,,,,,,1.34,208.0819594,None,209.4257913,None,None,1,209.4257913,None,211.4309855,None,,,,,,,,,,,,,,,,,,,,,,,,,,,,,,,,P046,FENCOG,1,Post,2022_Jun_01_1150,N-Back (New Version 2021),2021.1.4,120.347805
Conditions/Version_1Pr/twoback(1)_v1.xlsx,New rule: Press 'space' when you see 2-back (i.e. the same letter as the one that appeared 2 letters ago.),x,None,,,,,0,2,2,2,0,8,8,8,,,,,,,,,,,,,,,,,,,,,,,,,,,,,,,,,,,,,,,,,,,1.765,212.9303614,None,214.6974868,None,None,1,214.6974868,None,216.7043726,None,,,,,,,,,,,,,,,,,,,,,,,,,,,,,,,,P046,FENCOG,1,Post,2022_Jun_01_1150,N-Back (New Version 2021),2021.1.4,120.347805
Conditions/Version_1Pr/twoback(1)_v1.xlsx,New rule: Press 'space' when you see 2-back (i.e. the same letter as the one that appeared 2 letters ago.),Z,None,,,,,0,2,2,2,0,9,9,9,,,,,,,,,,,,,,,,,,,,,,,,,,,,,,,,,,,,,,,,,,,1.115,218.203958,None,219.3220553,None,None,1,219.3220553,None,221.3275508,None,,,,,,,,,,,,,,,,,,,,,,,,,,,,,,,,P046,FENCOG,1,Post,2022_Jun_01_1150,N-Back (New Version 2021),2021.1.4,120.347805
Conditions/Version_1Pr/twoback(1)_v1.xlsx,New rule: Press 'space' when you see 2-back (i.e. the same letter as the one that appeared 2 letters ago.),,,,,,,0,2,2,2,,,,,,,,,,,,,,,,,,,,,,,,,,,,,,,,,,,,,,,,,,,,,,,,,,,,,,,,,,,,,,,,,,,,,,,,,,,,,,,,,,,,,,,,,P046,FENCOG,1,Post,2022_Jun_01_1150,N-Back (New Version 2021),2021.1.4,120.347805
Conditions/Version_1Pr/threeback(1)_v1.xlsx,New rule: Press 'space' when you see 3-back (i.e. the same letter as the one that appeared 3 letters ago.),r,None,,,,,0,3,3,3,0,0,0,0,,,,,,,,,,,,,,,,,,,,,,,,,,,,,,,,,222.8498862,None,225.8371236,None,space,0.3003484,225.8371236,None,222.8498862,None,1.04,226.1645279,None,227.2105065,None,None,1,227.2105065,None,229.2172946,None,,,,,,,,,,,,,,,,,,,,,,,,,,,,,,,,P046,FENCOG,1,Post,2022_Jun_01_1150,N-Back (New Version 2021),2021.1.4,120.347805
Conditions/Version_1Pr/threeback(1)_v1.xlsx,New rule: Press 'space' when you see 3-back (i.e. the same letter as the one that appeared 3 letters ago.),a,None,,,,,0,3,3,3,0,1,1,1,,,,,,,,,,,,,,,,,,,,,,,,,,,,,,,,,,,,,,,,,,,1.565,230.716765,None,232.2842058,None,None,1,232.2842058,None,234.290714,None,,,,,,,,,,,,,,,,,,,,,,,,,,,,,,,,P046,FENCOG,1,Post,2022_Jun_01_1150,N-Back (New Version 2021),2021.1.4,120.347805
Conditions/Version_1Pr/threeback(1)_v1.xlsx,New rule: Press 'space' when you see 3-back (i.e. the same letter as the one that appeared 3 letters ago.),t,None,,,,,0,3,3,3,0,2,2,2,,,,,,,,,,,,,,,,,,,,,,,,,,,,,,,,,,,,,,,,,,,1.34,235.7903663,None,237.1320735,None,None,1,237.1320735,None,239.1310227,None,,,,,,,,,,,,,,,,,,,,,,,,,,,,,,,,P046,FENCOG,1,Post,2022_Jun_01_1150,N-Back (New Version 2021),2021.1.4,120.347805
Conditions/Version_1Pr/threeback(1)_v1.xlsx,New rule: Press 'space' when you see 3-back (i.e. the same letter as the one that appeared 3 letters ago.),r,space,,,,,0,3,3,3,0,3,3,3,,,,,,,,,,,,,,,,,,,,,,,,,,,,,,,,,,,,,,,,,,,1.59,240.6306043,None,242.2215998,None,space,1,242.2215998,None,242.8993067,None,0.6680683,,,,,,,,,,,,,,,,,,,,,,,,,,,,,,,P046,FENCOG,1,Post,2022_Jun_01_1150,N-Back (New Version 2021),2021.1.4,120.347805
Conditions/Version_1Pr/threeback(1)_v1.xlsx,New rule: Press 'space' when you see 3-back (i.e. the same letter as the one that appeared 3 letters ago.),a,None,,,,,0,3,3,3,0,4,4,4,,,,,,,,,,,,,,,,,,,,,,,,,,,,,,,,,,,,,,,,,,,1.265,244.4045174,None,245.6716715,None,space,0,245.6716715,None,246.0393765,None,0.3461128,,,,,,,,,,,,,,,,,,,,,,,,,,,,,,,P046,FENCOG,1,Post,2022_Jun_01_1150,N-Back (New Version 2021),2021.1.4,120.347805
Conditions/Version_1Pr/threeback(1)_v1.xlsx,New rule: Press 'space' when you see 3-back (i.e. the same letter as the one that appeared 3 letters ago.),Y,None,,,,,0,3,3,3,0,5,5,5,,,,,,,,,,,,,,,,,,,,,,,,,,,,,,,,,,,,,,,,,,,1.39,247.5451966,None,248.9387689,None,None,1,248.9387689,None,250.9463975,None,,,,,,,,,,,,,,,,,,,,,,,,,,,,,,,,P046,FENCOG,1,Post,2022_Jun_01_1150,N-Back (New Version 2021),2021.1.4,120.347805
Conditions/Version_1Pr/threeback(1)_v1.xlsx,New rule: Press 'space' when you see 3-back (i.e. the same letter as the one that appeared 3 letters ago.),q,None,,,,,0,3,3,3,0,6,6,6,,,,,,,,,,,,,,,,,,,,,,,,,,,,,,,,,,,,,,,,,,,1.99,252.4436587,None,254.4372233,None,None,1,254.4372233,None,256.441343,None,,,,,,,,,,,,,,,,,,,,,,,,,,,,,,,,P046,FENCOG,1,Post,2022_Jun_01_1150,N-Back (New Version 2021),2021.1.4,120.347805
Conditions/Version_1Pr/threeback(1)_v1.xlsx,New rule: Press 'space' when you see 3-back (i.e. the same letter as the one that appeared 3 letters ago.),A,space,,,,,0,3,3,3,0,7,7,7,,,,,,,,,,,,,,,,,,,,,,,,,,,,,,,,,,,,,,,,,,,1.24,257.9422066,None,259.18626,None,space,1,259.18626,None,259.6276202,None,0.43127,,,,,,,,,,,,,,,,,,,,,,,,,,,,,,,P046,FENCOG,1,Post,2022_Jun_01_1150,N-Back (New Version 2021),2021.1.4,120.347805
Conditions/Version_1Pr/threeback(1)_v1.xlsx,New rule: Press 'space' when you see 3-back (i.e. the same letter as the one that appeared 3 letters ago.),y,None,,,,,0,3,3,3,0,8,8,8,,,,,,,,,,,,,,,,,,,,,,,,,,,,,,,,,,,,,,,,,,,1.64,261.1329615,None,262.7749987,None,None,1,262.7749987,None,264.7818757,None,,,,,,,,,,,,,,,,,,,,,,,,,,,,,,,,P046,FENCOG,1,Post,2022_Jun_01_1150,N-Back (New Version 2021),2021.1.4,120.347805
Conditions/Version_1Pr/threeback(1)_v1.xlsx,New rule: Press 'space' when you see 3-back (i.e. the same letter as the one that appeared 3 letters ago.),r,None,,,,,0,3,3,3,0,9,9,9,,,,,,,,,,,,,,,,,,,,,,,,,,,,,,,,,,,,,,,,,,,1.89,266.281433,None,268.1722498,None,None,1,268.1722498,None,270.1717373,None,,,,,,,,,,,,,,,,,,,,,,,,,,,,,,,,P046,FENCOG,1,Post,2022_Jun_01_1150,N-Back (New Version 2021),2021.1.4,120.347805
Conditions/Version_1Pr/threeback(1)_v1.xlsx,New rule: Press 'space' when you see 3-back (i.e. the same letter as the one that appeared 3 letters ago.),,,,,,,0,3,3,3,,,,,,,,,,,,,,,,,,,,,,,,,,,,,,,,,,,,,,,,,,,,,,,,,,,,,,,,,,,,,,,,,,,,,,,,,,,,,,,,,,,,,,,,,P046,FENCOG,1,Post,2022_Jun_01_1150,N-Back (New Version 2021),2021.1.4,120.347805
,,,,,,,,,,,,,,,,,,,,,,,,,,,,,,,,,,,,,,,,,,,,,,,,,,,,,,,,,,,,,,,,,,,,,,271.683113,None,space,2.6217199,272.1798905,None,,,,,,,,,,,,,,,,,,,,,,,,,P046,FENCOG,1,Post,2022_Jun_01_1150,N-Back (New Version 2021),2021.1.4,120.347805
,,,,,,,,,,,,,,,,,,,,,,,,,,,,,,,,,,,,,,,,,,,,,,,,,,,,,,,,,,,,,,,,,,,,,,,,,,,,274.8269666,None,space,1.0328343,275.3206274,None,,,,,,,,,,,,,,,,,,,P046,FENCOG,1,Post,2022_Jun_01_1150,N-Back (New Version 2021),2021.1.4,120.347805
,,,,Conditions/Version_1/zeroback(1)_v1.xlsx,Rule: Press 'space' when you see the letter 'x' or 'X'.,b,None,,,,,,,,,0,0,0,0,0,0,0,0,,,,,,,,,,,,,,,,,,,,,,,,,,,,,,,,,,,,,,,,,,,,,,,,,,,,,,,,,,,276.4526717,None,279.4368979,None,space,0.5967798,279.4368979,None,276.4526717,None,1.6176,281.6947801,None,None,1,281.6947801,None,,P046,FENCOG,1,Post,2022_Jun_01_1150,N-Back (New Version 2021),2021.1.4,120.347805
,,,,Conditions/Version_1/zeroback(1)_v1.xlsx,Rule: Press 'space' when you see the letter 'x' or 'X'.,T,None,,,,,,,,,0,0,0,0,0,1,1,1,,,,,,,,,,,,,,,,,,,,,,,,,,,,,,,,,,,,,,,,,,,,,,,,,,,,,,,,,,,,,,,,,,,,,1.506,285.2137241,None,None,1,285.2137241,None,,P046,FENCOG,1,Post,2022_Jun_01_1150,N-Back (New Version 2021),2021.1.4,120.347805
,,,,Conditions/Version_1/zeroback(1)_v1.xlsx,Rule: Press 'space' when you see the letter 'x' or 'X'.,L,None,,,,,,,,,0,0,0,0,0,2,2,2,,,,,,,,,,,,,,,,,,,,,,,,,,,,,,,,,,,,,,,,,,,,,,,,,,,,,,,,,,,,,,,,,,,,,1.7478,288.9680892,None,None,1,288.9680892,None,,P046,FENCOG,1,Post,2022_Jun_01_1150,N-Back (New Version 2021),2021.1.4,120.347805
,,,,Conditions/Version_1/zeroback(1)_v1.xlsx,Rule: Press 'space' when you see the letter 'x' or 'X'.,x,space,,,,,,,,,0,0,0,0,0,3,3,3,,,,,,,,,,,,,,,,,,,,,,,,,,,,,,,,,,,,,,,,,,,,,,,,,,,,,,,,,,,,,,,,,,,,,1.3138,292.2902944,None,space,1,292.2902944,None,0.3353073,P046,FENCOG,1,Post,2022_Jun_01_1150,N-Back (New Version 2021),2021.1.4,120.347805
,,,,Conditions/Version_1/zeroback(1)_v1.xlsx,Rule: Press 'space' when you see the letter 'x' or 'X'.,o,None,,,,,,,,,0,0,0,0,0,4,4,4,,,,,,,,,,,,,,,,,,,,,,,,,,,,,,,,,,,,,,,,,,,,,,,,,,,,,,,,,,,,,,,,,,,,,1.8594,296.156588,None,None,1,296.156588,None,,P046,FENCOG,1,Post,2022_Jun_01_1150,N-Back (New Version 2021),2021.1.4,120.347805
,,,,Conditions/Version_1/zeroback(1)_v1.xlsx,Rule: Press 'space' when you see the letter 'x' or 'X'.,P,None,,,,,,,,,0,0,0,0,0,5,5,5,,,,,,,,,,,,,,,,,,,,,,,,,,,,,,,,,,,,,,,,,,,,,,,,,,,,,,,,,,,,,,,,,,,,,1.32,299.4917112,None,None,1,299.4917112,None,,P046,FENCOG,1,Post,2022_Jun_01_1150,N-Back (New Version 2021),2021.1.4,120.347805
,,,,Conditions/Version_1/zeroback(1)_v1.xlsx,Rule: Press 'space' when you see the letter 'x' or 'X'.,X,space,,,,,,,,,0,0,0,0,0,6,6,6,,,,,,,,,,,,,,,,,,,,,,,,,,,,,,,,,,,,,,,,,,,,,,,,,,,,,,,,,,,,,,,,,,,,,1.9834,303.4786452,None,space,1,303.4786452,None,0.370807,P046,FENCOG,1,Post,2022_Jun_01_1150,N-Back (New Version 2021),2021.1.4,120.347805
,,,,Conditions/Version_1/zeroback(1)_v1.xlsx,Rule: Press 'space' when you see the letter 'x' or 'X'.,n,None,,,,,,,,,0,0,0,0,0,7,7,7,,,,,,,,,,,,,,,,,,,,,,,,,,,,,,,,,,,,,,,,,,,,,,,,,,,,,,,,,,,,,,,,,,,,,1.4688,306.9548513,None,None,1,306.9548513,None,,P046,FENCOG,1,Post,2022_Jun_01_1150,N-Back (New Version 2021),2021.1.4,120.347805
,,,,Conditions/Version_1/zeroback(1)_v1.xlsx,Rule: Press 'space' when you see the letter 'x' or 'X'.,M,None,,,,,,,,,0,0,0,0,0,8,8,8,,,,,,,,,,,,,,,,,,,,,,,,,,,,,,,,,,,,,,,,,,,,,,,,,,,,,,,,,,,,,,,,,,,,,1.5246,310.4871194,None,None,1,310.4871194,None,,P046,FENCOG,1,Post,2022_Jun_01_1150,N-Back (New Version 2021),2021.1.4,120.347805
,,,,Conditions/Version_1/zeroback(1)_v1.xlsx,Rule: Press 'space' when you see the letter 'x' or 'X'.,a,None,,,,,,,,,0,0,0,0,0,9,9,9,,,,,,,,,,,,,,,,,,,,,,,,,,,,,,,,,,,,,,,,,,,,,,,,,,,,,,,,,,,,,,,,,,,,,1.6238,314.1176406,None,None,1,314.1176406,None,,P046,FENCOG,1,Post,2022_Jun_01_1150,N-Back (New Version 2021),2021.1.4,120.347805
,,,,Conditions/Version_1/zeroback(1)_v1.xlsx,Rule: Press 'space' when you see the letter 'x' or 'X'.,,,,,,,,,,,0,0,0,0,,,,,,,,,,,,,,,,,,,,,,,,,,,,,,,,,,,,,,,,,,,,,,,,,,,,,,,,,,,,,,,,,,,,,,,,,,,,,,,,,P046,FENCOG,1,Post,2022_Jun_01_1150,N-Back (New Version 2021),2021.1.4,120.347805
,,,,Conditions/Version_1/oneback(1)_v1.xlsx,New rule: Press 'space' when you see 1-back (i.e. the same letter as the one that appeared 1 letter ago.),b,None,,,,,,,,,0,1,1,1,0,0,0,0,,,,,,,,,,,,,,,,,,,,,,,,,,,,,,,,,,,,,,,,,,,,,,,,,,,,,,,,,,,316.1386441,None,319.1258998,None,space,0.3076117,319.1258998,None,316.1386441,None,1.2146,320.6827324,None,None,1,320.6827324,None,,P046,FENCOG,1,Post,2022_Jun_01_1150,N-Back (New Version 2021),2021.1.4,120.347805
,,,,Conditions/Version_1/oneback(1)_v1.xlsx,New rule: Press 'space' when you see 1-back (i.e. the same letter as the one that appeared 1 letter ago.),p,None,,,,,,,,,0,1,1,1,0,1,1,1,,,,,,,,,,,,,,,,,,,,,,,,,,,,,,,,,,,,,,,,,,,,,,,,,,,,,,,,,,,,,,,,,,,,,1.413,324.1088053,None,None,1,324.1088053,None,,P046,FENCOG,1,Post,2022_Jun_01_1150,N-Back (New Version 2021),2021.1.4,120.347805
,,,,Conditions/Version_1/oneback(1)_v1.xlsx,New rule: Press 'space' when you see 1-back (i.e. the same letter as the one that appeared 1 letter ago.),M,None,,,,,,,,,0,1,1,1,0,2,2,2,,,,,,,,,,,,,,,,,,,,,,,,,,,,,,,,,,,,,,,,,,,,,,,,,,,,,,,,,,,,,,,,,,,,,1.1278,327.2466721,None,None,1,327.2466721,None,,P046,FENCOG,1,Post,2022_Jun_01_1150,N-Back (New Version 2021),2021.1.4,120.347805
,,,,Conditions/Version_1/oneback(1)_v1.xlsx,New rule: Press 'space' when you see 1-back (i.e. the same letter as the one that appeared 1 letter ago.),M,space,,,,,,,,,0,1,1,1,0,3,3,3,,,,,,,,,,,,,,,,,,,,,,,,,,,,,,,,,,,,,,,,,,,,,,,,,,,,,,,,,,,,,,,,,,,,,1.2828,330.5290695,None,space,1,330.5290695,None,0.4484775,P046,FENCOG,1,Post,2022_Jun_01_1150,N-Back (New Version 2021),2021.1.4,120.347805
,,,,Conditions/Version_1/oneback(1)_v1.xlsx,New rule: Press 'space' when you see 1-back (i.e. the same letter as the one that appeared 1 letter ago.),n,None,,,,,,,,,0,1,1,1,0,4,4,4,,,,,,,,,,,,,,,,,,,,,,,,,,,,,,,,,,,,,,,,,,,,,,,,,,,,,,,,,,,,,,,,,,,,,1.0472,333.5790621,None,None,1,333.5790621,None,,P046,FENCOG,1,Post,2022_Jun_01_1150,N-Back (New Version 2021),2021.1.4,120.347805
,,,,Conditions/Version_1/oneback(1)_v1.xlsx,New rule: Press 'space' when you see 1-back (i.e. the same letter as the one that appeared 1 letter ago.),g,None,,,,,,,,,0,1,1,1,0,5,5,5,,,,,,,,,,,,,,,,,,,,,,,,,,,,,,,,,,,,,,,,,,,,,,,,,,,,,,,,,,,,,,,,,,,,,1.3076,336.8934673,None,None,1,336.8934673,None,,P046,FENCOG,1,Post,2022_Jun_01_1150,N-Back (New Version 2021),2021.1.4,120.347805
,,,,Conditions/Version_1/oneback(1)_v1.xlsx,New rule: Press 'space' when you see 1-back (i.e. the same letter as the one that appeared 1 letter ago.),P,None,,,,,,,,,0,1,1,1,0,6,6,6,,,,,,,,,,,,,,,,,,,,,,,,,,,,,,,,,,,,,,,,,,,,,,,,,,,,,,,,,,,,,,,,,,,,,1.6858,340.5842885,None,None,1,340.5842885,None,,P046,FENCOG,1,Post,2022_Jun_01_1150,N-Back (New Version 2021),2021.1.4,120.347805
,,,,Conditions/Version_1/oneback(1)_v1.xlsx,New rule: Press 'space' when you see 1-back (i.e. the same letter as the one that appeared 1 letter ago.),o,None,,,,,,,,,0,1,1,1,0,7,7,7,,,,,,,,,,,,,,,,,,,,,,,,,,,,,,,,,,,,,,,,,,,,,,,,,,,,,,,,,,,,,,,,,,,,,1.816,344.4009775,None,None,1,344.4009775,None,,P046,FENCOG,1,Post,2022_Jun_01_1150,N-Back (New Version 2021),2021.1.4,120.347805
,,,,Conditions/Version_1/oneback(1)_v1.xlsx,New rule: Press 'space' when you see 1-back (i.e. the same letter as the one that appeared 1 letter ago.),f,None,,,,,,,,,0,1,1,1,0,8,8,8,,,,,,,,,,,,,,,,,,,,,,,,,,,,,,,,,,,,,,,,,,,,,,,,,,,,,,,,,,,,,,,,,,,,,1.2022,347.6173584,None,None,1,347.6173584,None,,P046,FENCOG,1,Post,2022_Jun_01_1150,N-Back (New Version 2021),2021.1.4,120.347805
,,,,Conditions/Version_1/oneback(1)_v1.xlsx,New rule: Press 'space' when you see 1-back (i.e. the same letter as the one that appeared 1 letter ago.),F,space,,,,,,,,,0,1,1,1,0,9,9,9,,,,,,,,,,,,,,,,,,,,,,,,,,,,,,,,,,,,,,,,,,,,,,,,,,,,,,,,,,,,,,,,,,,,,1.6114,351.2426171,None,space,1,351.2426171,None,0.3189024,P046,FENCOG,1,Post,2022_Jun_01_1150,N-Back (New Version 2021),2021.1.4,120.347805
,,,,Conditions/Version_1/oneback(1)_v1.xlsx,New rule: Press 'space' when you see 1-back (i.e. the same letter as the one that appeared 1 letter ago.),,,,,,,,,,,0,1,1,1,,,,,,,,,,,,,,,,,,,,,,,,,,,,,,,,,,,,,,,,,,,,,,,,,,,,,,,,,,,,,,,,,,,,,,,,,,,,,,,,,P046,FENCOG,1,Post,2022_Jun_01_1150,N-Back (New Version 2021),2021.1.4,120.347805
,,,,Conditions/Version_1/twoback(1)_v1.xlsx,New rule: Press 'space' when you see 2-back (i.e. the same letter as the one that appeared 2 letters ago.),b,None,,,,,,,,,0,2,2,2,0,0,0,0,,,,,,,,,,,,,,,,,,,,,,,,,,,,,,,,,,,,,,,,,,,,,,,,,,,,,,,,,,,353.2687391,None,356.2563344,None,space,2.7614134,356.2563344,None,353.2687391,None,1.4502,360.5033649,None,None,1,360.5033649,None,,P046,FENCOG,1,Post,2022_Jun_01_1150,N-Back (New Version 2021),2021.1.4,120.347805
,,,,Conditions/Version_1/twoback(1)_v1.xlsx,New rule: Press 'space' when you see 2-back (i.e. the same letter as the one that appeared 2 letters ago.),h,None,,,,,,,,,0,2,2,2,0,1,1,1,,,,,,,,,,,,,,,,,,,,,,,,,,,,,,,,,,,,,,,,,,,,,,,,,,,,,,,,,,,,,,,,,,,,,1.9152,364.4208286,None,None,1,364.4208286,None,,P046,FENCOG,1,Post,2022_Jun_01_1150,N-Back (New Version 2021),2021.1.4,120.347805
,,,,Conditions/Version_1/twoback(1)_v1.xlsx,New rule: Press 'space' when you see 2-back (i.e. the same letter as the one that appeared 2 letters ago.),j,None,,,,,,,,,0,2,2,2,0,2,2,2,,,,,,,,,,,,,,,,,,,,,,,,,,,,,,,,,,,,,,,,,,,,,,,,,,,,,,,,,,,,,,,,,,,,,1.5618,367.994717,None,None,1,367.994717,None,,P046,FENCOG,1,Post,2022_Jun_01_1150,N-Back (New Version 2021),2021.1.4,120.347805
,,,,Conditions/Version_1/twoback(1)_v1.xlsx,New rule: Press 'space' when you see 2-back (i.e. the same letter as the one that appeared 2 letters ago.),H,space,,,,,,,,,0,2,2,2,0,3,3,3,,,,,,,,,,,,,,,,,,,,,,,,,,,,,,,,,,,,,,,,,,,,,,,,,,,,,,,,,,,,,,,,,,,,,1.599,371.6012769,None,space,1,371.6012769,None,0.7681297,P046,FENCOG,1,Post,2022_Jun_01_1150,N-Back (New Version 2021),2021.1.4,120.347805
,,,,Conditions/Version_1/twoback(1)_v1.xlsx,New rule: Press 'space' when you see 2-back (i.e. the same letter as the one that appeared 2 letters ago.),p,None,,,,,,,,,0,2,2,2,0,4,4,4,,,,,,,,,,,,,,,,,,,,,,,,,,,,,,,,,,,,,,,,,,,,,,,,,,,,,,,,,,,,,,,,,,,,,1.5122,375.125483,None,None,1,375.125483,None,,P046,FENCOG,1,Post,2022_Jun_01_1150,N-Back (New Version 2021),2021.1.4,120.347805
,,,,Conditions/Version_1/twoback(1)_v1.xlsx,New rule: Press 'space' when you see 2-back (i.e. the same letter as the one that appeared 2 letters ago.),p,None,,,,,,,,,0,2,2,2,0,5,5,5,,,,,,,,,,,,,,,,,,,,,,,,,,,,,,,,,,,,,,,,,,,,,,,,,,,,,,,,,,,,,,,,,,,,,1.4812,378.6146515,None,None,1,378.6146515,None,,P046,FENCOG,1,Post,2022_Jun_01_1150,N-Back (New Version 2021),2021.1.4,120.347805
,,,,Conditions/Version_1/twoback(1)_v1.xlsx,New rule: Press 'space' when you see 2-back (i.e. the same letter as the one that appeared 2 letters ago.),w,None,,,,,,,,,0,2,2,2,0,6,6,6,,,,,,,,,,,,,,,,,,,,,,,,,,,,,,,,,,,,,,,,,,,,,,,,,,,,,,,,,,,,,,,,,,,,,1.8036,382.4221226,None,None,1,382.4221226,None,,P046,FENCOG,1,Post,2022_Jun_01_1150,N-Back (New Version 2021),2021.1.4,120.347805
,,,,Conditions/Version_1/twoback(1)_v1.xlsx,New rule: Press 'space' when you see 2-back (i.e. the same letter as the one that appeared 2 letters ago.),R,None,,,,,,,,,0,2,2,2,0,7,7,7,,,,,,,,,,,,,,,,,,,,,,,,,,,,,,,,,,,,,,,,,,,,,,,,,,,,,,,,,,,,,,,,,,,,,1.754,386.1809881,None,None,1,386.1809881,None,,P046,FENCOG,1,Post,2022_Jun_01_1150,N-Back (New Version 2021),2021.1.4,120.347805
,,,,Conditions/Version_1/twoback(1)_v1.xlsx,New rule: Press 'space' when you see 2-back (i.e. the same letter as the one that appeared 2 letters ago.),a,None,,,,,,,,,0,2,2,2,0,8,8,8,,,,,,,,,,,,,,,,,,,,,,,,,,,,,,,,,,,,,,,,,,,,,,,,,,,,,,,,,,,,,,,,,,,,,1.6424,389.8375472,None,None,1,389.8375472,None,,P046,FENCOG,1,Post,2022_Jun_01_1150,N-Back (New Version 2021),2021.1.4,120.347805
,,,,Conditions/Version_1/twoback(1)_v1.xlsx,New rule: Press 'space' when you see 2-back (i.e. the same letter as the one that appeared 2 letters ago.),r,space,,,,,,,,,0,2,2,2,0,9,9,9,,,,,,,,,,,,,,,,,,,,,,,,,,,,,,,,,,,,,,,,,,,,,,,,,,,,,,,,,,,,,,,,,,,,,1.7478,393.5947411,None,space,1,393.5947411,None,0.7428043,P046,FENCOG,1,Post,2022_Jun_01_1150,N-Back (New Version 2021),2021.1.4,120.347805
,,,,Conditions/Version_1/twoback(1)_v1.xlsx,New rule: Press 'space' when you see 2-back (i.e. the same letter as the one that appeared 2 letters ago.),,,,,,,,,,,0,2,2,2,,,,,,,,,,,,,,,,,,,,,,,,,,,,,,,,,,,,,,,,,,,,,,,,,,,,,,,,,,,,,,,,,,,,,,,,,,,,,,,,,P046,FENCOG,1,Post,2022_Jun_01_1150,N-Back (New Version 2021),2021.1.4,120.347805
,,,,Conditions/Version_1/threeback(1)_v1.xlsx,New rule: Press 'space' when you see 3-back (i.e. the same letter as the one that appeared 3 letters ago.),r,None,,,,,,,,,0,3,3,3,0,0,0,0,,,,,,,,,,,,,,,,,,,,,,,,,,,,,,,,,,,,,,,,,,,,,,,,,,,,,,,,,,,395.6240775,None,398.6114558,None,space,0.2299604,398.6114558,None,395.6240775,None,1.6734,400.549966,None,None,1,400.549966,None,,P046,FENCOG,1,Post,2022_Jun_01_1150,N-Back (New Version 2021),2021.1.4,120.347805
,,,,Conditions/Version_1/threeback(1)_v1.xlsx,New rule: Press 'space' when you see 3-back (i.e. the same letter as the one that appeared 3 letters ago.),o,None,,,,,,,,,0,3,3,3,0,1,1,1,,,,,,,,,,,,,,,,,,,,,,,,,,,,,,,,,,,,,,,,,,,,,,,,,,,,,,,,,,,,,,,,,,,,,1.816,404.3658099,None,None,1,404.3658099,None,,P046,FENCOG,1,Post,2022_Jun_01_1150,N-Back (New Version 2021),2021.1.4,120.347805
,,,,Conditions/Version_1/threeback(1)_v1.xlsx,New rule: Press 'space' when you see 3-back (i.e. the same letter as the one that appeared 3 letters ago.),P,None,,,,,,,,,0,3,3,3,0,2,2,2,,,,,,,,,,,,,,,,,,,,,,,,,,,,,,,,,,,,,,,,,,,,,,,,,,,,,,,,,,,,,,,,,,,,,1.072,407.4394761,None,None,1,407.4394761,None,,P046,FENCOG,1,Post,2022_Jun_01_1150,N-Back (New Version 2021),2021.1.4,120.347805
,,,,Conditions/Version_1/threeback(1)_v1.xlsx,New rule: Press 'space' when you see 3-back (i.e. the same letter as the one that appeared 3 letters ago.),R,space,,,,,,,,,0,3,3,3,0,3,3,3,,,,,,,,,,,,,,,,,,,,,,,,,,,,,,,,,,,,,,,,,,,,,,,,,,,,,,,,,,,,,,,,,,,,,1.1836,410.6297194,None,space,1,410.6297194,None,0.795513,P046,FENCOG,1,Post,2022_Jun_01_1150,N-Back (New Version 2021),2021.1.4,120.347805
,,,,Conditions/Version_1/threeback(1)_v1.xlsx,New rule: Press 'space' when you see 3-back (i.e. the same letter as the one that appeared 3 letters ago.),p,None,,,,,,,,,0,3,3,3,0,4,4,4,,,,,,,,,,,,,,,,,,,,,,,,,,,,,,,,,,,,,,,,,,,,,,,,,,,,,,,,,,,,,,,,,,,,,1.6052,414.238773,None,None,1,414.238773,None,,P046,FENCOG,1,Post,2022_Jun_01_1150,N-Back (New Version 2021),2021.1.4,120.347805
,,,,Conditions/Version_1/threeback(1)_v1.xlsx,New rule: Press 'space' when you see 3-back (i.e. the same letter as the one that appeared 3 letters ago.),E,None,,,,,,,,,0,3,3,3,0,5,5,5,,,,,,,,,,,,,,,,,,,,,,,,,,,,,,,,,,,,,,,,,,,,,,,,,,,,,,,,,,,,,,,,,,,,,1.785,418.0370679,None,None,1,418.0370679,None,,P046,FENCOG,1,Post,2022_Jun_01_1150,N-Back (New Version 2021),2021.1.4,120.347805
,,,,Conditions/Version_1/threeback(1)_v1.xlsx,New rule: Press 'space' when you see 3-back (i.e. the same letter as the one that appeared 3 letters ago.),e,None,,,,,,,,,0,3,3,3,0,6,6,6,,,,,,,,,,,,,,,,,,,,,,,,,,,,,,,,,,,,,,,,,,,,,,,,,,,,,,,,,,,,,,,,,,,,,1.0968,421.1449777,None,None,1,421.1449777,None,,P046,FENCOG,1,Post,2022_Jun_01_1150,N-Back (New Version 2021),2021.1.4,120.347805
,,,,Conditions/Version_1/threeback(1)_v1.xlsx,New rule: Press 'space' when you see 3-back (i.e. the same letter as the one that appeared 3 letters ago.),m,None,,,,,,,,,0,3,3,3,0,7,7,7,,,,,,,,,,,,,,,,,,,,,,,,,,,,,,,,,,,,,,,,,,,,,,,,,,,,,,,,,,,,,,,,,,,,,1.041,424.1947943,None,None,1,424.1947943,None,,P046,FENCOG,1,Post,2022_Jun_01_1150,N-Back (New Version 2021),2021.1.4,120.347805
,,,,Conditions/Version_1/threeback(1)_v1.xlsx,New rule: Press 'space' when you see 3-back (i.e. the same letter as the one that appeared 3 letters ago.),n,None,,,,,,,,,0,3,3,3,0,8,8,8,,,,,,,,,,,,,,,,,,,,,,,,,,,,,,,,,,,,,,,,,,,,,,,,,,,,,,,,,,,,,,,,,,,,,1.5742,427.7765185,None,None,1,427.7765185,None,,P046,FENCOG,1,Post,2022_Jun_01_1150,N-Back (New Version 2021),2021.1.4,120.347805
,,,,Conditions/Version_1/threeback(1)_v1.xlsx,New rule: Press 'space' when you see 3-back (i.e. the same letter as the one that appeared 3 letters ago.),e,space,,,,,,,,,0,3,3,3,0,9,9,9,,,,,,,,,,,,,,,,,,,,,,,,,,,,,,,,,,,,,,,,,,,,,,,,,,,,,,,,,,,,,,,,,,,,,1.4254,431.2086391,None,space,1,431.2086391,None,1.2167258,P046,FENCOG,1,Post,2022_Jun_01_1150,N-Back (New Version 2021),2021.1.4,120.347805
,,,,Conditions/Version_1/threeback(1)_v1.xlsx,New rule: Press 'space' when you see 3-back (i.e. the same letter as the one that appeared 3 letters ago.),,,,,,,,,,,0,3,3,3,,,,,,,,,,,,,,,,,,,,,,,,,,,,,,,,,,,,,,,,,,,,,,,,,,,,,,,,,,,,,,,,,,,,,,,,,,,,,,,,,P046,FENCOG,1,Post,2022_Jun_01_1150,N-Back (New Version 2021),2021.1.4,120.347805
,,,,Conditions/Version_1/oneback(2)_v1.xlsx,New rule: Press 'space' when you see 1-back (i.e. the same letter as the one that appeared 1 letter ago.),q,None,,,,,,,,,0,4,4,4,0,0,0,0,,,,,,,,,,,,,,,,,,,,,,,,,,,,,,,,,,,,,,,,,,,,,,,,,,,,,,,,,,,433.2370767,None,436.2250012,None,space,0.7683118,436.2250012,None,433.2370767,None,1.4688,438.4971483,None,None,1,438.4971483,None,,P046,FENCOG,1,Post,2022_Jun_01_1150,N-Back (New Version 2021),2021.1.4,120.347805
,,,,Conditions/Version_1/oneback(2)_v1.xlsx,New rule: Press 'space' when you see 1-back (i.e. the same letter as the one that appeared 1 letter ago.),Q,space,,,,,,,,,0,4,4,4,0,1,1,1,,,,,,,,,,,,,,,,,,,,,,,,,,,,,,,,,,,,,,,,,,,,,,,,,,,,,,,,,,,,,,,,,,,,,1.3572,441.8566212,None,space,1,441.8566212,None,0.5767036,P046,FENCOG,1,Post,2022_Jun_01_1150,N-Back (New Version 2021),2021.1.4,120.347805
,,,,Conditions/Version_1/oneback(2)_v1.xlsx,New rule: Press 'space' when you see 1-back (i.e. the same letter as the one that appeared 1 letter ago.),P,None,,,,,,,,,0,4,4,4,0,2,2,2,,,,,,,,,,,,,,,,,,,,,,,,,,,,,,,,,,,,,,,,,,,,,,,,,,,,,,,,,,,,,,,,,,,,,1.9772,445.8449013,None,None,1,445.8449013,None,,P046,FENCOG,1,Post,2022_Jun_01_1150,N-Back (New Version 2021),2021.1.4,120.347805
,,,,Conditions/Version_1/oneback(2)_v1.xlsx,New rule: Press 'space' when you see 1-back (i.e. the same letter as the one that appeared 1 letter ago.),o,None,,,,,,,,,0,4,4,4,0,3,3,3,,,,,,,,,,,,,,,,,,,,,,,,,,,,,,,,,,,,,,,,,,,,,,,,,,,,,,,,,,,,,,,,,,,,,1.7912,449.6458864,None,space,0,449.6458864,None,0.5554716,P046,FENCOG,1,Post,2022_Jun_01_1150,N-Back (New Version 2021),2021.1.4,120.347805
,,,,Conditions/Version_1/oneback(2)_v1.xlsx,New rule: Press 'space' when you see 1-back (i.e. the same letter as the one that appeared 1 letter ago.),m,None,,,,,,,,,0,4,4,4,0,4,4,4,,,,,,,,,,,,,,,,,,,,,,,,,,,,,,,,,,,,,,,,,,,,,,,,,,,,,,,,,,,,,,,,,,,,,1.7106,453.369535,None,None,1,453.369535,None,,P046,FENCOG,1,Post,2022_Jun_01_1150,N-Back (New Version 2021),2021.1.4,120.347805
,,,,Conditions/Version_1/oneback(2)_v1.xlsx,New rule: Press 'space' when you see 1-back (i.e. the same letter as the one that appeared 1 letter ago.),Z,None,,,,,,,,,0,4,4,4,0,5,5,5,,,,,,,,,,,,,,,,,,,,,,,,,,,,,,,,,,,,,,,,,,,,,,,,,,,,,,,,,,,,,,,,,,,,,1.1402,456.5167472,None,None,1,456.5167472,None,,P046,FENCOG,1,Post,2022_Jun_01_1150,N-Back (New Version 2021),2021.1.4,120.347805
,,,,Conditions/Version_1/oneback(2)_v1.xlsx,New rule: Press 'space' when you see 1-back (i.e. the same letter as the one that appeared 1 letter ago.),c,None,,,,,,,,,0,4,4,4,0,6,6,6,,,,,,,,,,,,,,,,,,,,,,,,,,,,,,,,,,,,,,,,,,,,,,,,,,,,,,,,,,,,,,,,,,,,,1.8408,460.359346,None,None,1,460.359346,None,,P046,FENCOG,1,Post,2022_Jun_01_1150,N-Back (New Version 2021),2021.1.4,120.347805
,,,,Conditions/Version_1/oneback(2)_v1.xlsx,New rule: Press 'space' when you see 1-back (i.e. the same letter as the one that appeared 1 letter ago.),c,space,,,,,,,,,0,4,4,4,0,7,7,7,,,,,,,,,,,,,,,,,,,,,,,,,,,,,,,,,,,,,,,,,,,,,,,,,,,,,,,,,,,,,,,,,,,,,1.5184,463.8896609,None,space,1,463.8896609,None,0.408116,P046,FENCOG,1,Post,2022_Jun_01_1150,N-Back (New Version 2021),2021.1.4,120.347805
,,,,Conditions/Version_1/oneback(2)_v1.xlsx,New rule: Press 'space' when you see 1-back (i.e. the same letter as the one that appeared 1 letter ago.),P,None,,,,,,,,,0,4,4,4,0,8,8,8,,,,,,,,,,,,,,,,,,,,,,,,,,,,,,,,,,,,,,,,,,,,,,,,,,,,,,,,,,,,,,,,,,,,,1.0286,466.9219393,None,None,1,466.9219393,None,,P046,FENCOG,1,Post,2022_Jun_01_1150,N-Back (New Version 2021),2021.1.4,120.347805
,,,,Conditions/Version_1/oneback(2)_v1.xlsx,New rule: Press 'space' when you see 1-back (i.e. the same letter as the one that appeared 1 letter ago.),p,space,,,,,,,,,0,4,4,4,0,9,9,9,,,,,,,,,,,,,,,,,,,,,,,,,,,,,,,,,,,,,,,,,,,,,,,,,,,,,,,,,,,,,,,,,,,,,1.7044,470.6317284,None,space,1,470.6317284,None,0.7854815,P046,FENCOG,1,Post,2022_Jun_01_1150,N-Back (New Version 2021),2021.1.4,120.347805
,,,,Conditions/Version_1/oneback(2)_v1.xlsx,New rule: Press 'space' when you see 1-back (i.e. the same letter as the one that appeared 1 letter ago.),,,,,,,,,,,0,4,4,4,,,,,,,,,,,,,,,,,,,,,,,,,,,,,,,,,,,,,,,,,,,,,,,,,,,,,,,,,,,,,,,,,,,,,,,,,,,,,,,,,P046,FENCOG,1,Post,2022_Jun_01_1150,N-Back (New Version 2021),2021.1.4,120.347805
,,,,Conditions/Version_1/zeroback(2)_v1.xlsx,New rule: Press 'space' when you see the letter 'x' or 'X'.,p,None,,,,,,,,,0,5,5,5,0,0,0,0,,,,,,,,,,,,,,,,,,,,,,,,,,,,,,,,,,,,,,,,,,,,,,,,,,,,,,,,,,,472.6567774,None,475.6468645,None,space,0.2745918,475.6468645,None,472.6567774,None,1.2704,477.2272005,None,None,1,477.2272005,None,,P046,FENCOG,1,Post,2022_Jun_01_1150,N-Back (New Version 2021),2021.1.4,120.347805
,,,,Conditions/Version_1/zeroback(2)_v1.xlsx,New rule: Press 'space' when you see the letter 'x' or 'X'.,L,None,,,,,,,,,0,5,5,5,0,1,1,1,,,,,,,,,,,,,,,,,,,,,,,,,,,,,,,,,,,,,,,,,,,,,,,,,,,,,,,,,,,,,,,,,,,,,1.3386,480.567888,None,None,1,480.567888,None,,P046,FENCOG,1,Post,2022_Jun_01_1150,N-Back (New Version 2021),2021.1.4,120.347805
,,,,Conditions/Version_1/zeroback(2)_v1.xlsx,New rule: Press 'space' when you see the letter 'x' or 'X'.,G,None,,,,,,,,,0,5,5,5,0,2,2,2,,,,,,,,,,,,,,,,,,,,,,,,,,,,,,,,,,,,,,,,,,,,,,,,,,,,,,,,,,,,,,,,,,,,,1.6734,484.2429579,None,None,1,484.2429579,None,,P046,FENCOG,1,Post,2022_Jun_01_1150,N-Back (New Version 2021),2021.1.4,120.347805
,,,,Conditions/Version_1/zeroback(2)_v1.xlsx,New rule: Press 'space' when you see the letter 'x' or 'X'.,y,None,,,,,,,,,0,5,5,5,0,3,3,3,,,,,,,,,,,,,,,,,,,,,,,,,,,,,,,,,,,,,,,,,,,,,,,,,,,,,,,,,,,,,,,,,,,,,1.6052,487.8581464,None,None,1,487.8581464,None,,P046,FENCOG,1,Post,2022_Jun_01_1150,N-Back (New Version 2021),2021.1.4,120.347805
,,,,Conditions/Version_1/zeroback(2)_v1.xlsx,New rule: Press 'space' when you see the letter 'x' or 'X'.,Y,None,,,,,,,,,0,5,5,5,0,4,4,4,,,,,,,,,,,,,,,,,,,,,,,,,,,,,,,,,,,,,,,,,,,,,,,,,,,,,,,,,,,,,,,,,,,,,1.7416,491.6074783,None,None,1,491.6074783,None,,P046,FENCOG,1,Post,2022_Jun_01_1150,N-Back (New Version 2021),2021.1.4,120.347805
,,,,Conditions/Version_1/zeroback(2)_v1.xlsx,New rule: Press 'space' when you see the letter 'x' or 'X'.,W,None,,,,,,,,,0,5,5,5,0,5,5,5,,,,,,,,,,,,,,,,,,,,,,,,,,,,,,,,,,,,,,,,,,,,,,,,,,,,,,,,,,,,,,,,,,,,,1.4192,495.0404586,None,None,1,495.0404586,None,,P046,FENCOG,1,Post,2022_Jun_01_1150,N-Back (New Version 2021),2021.1.4,120.347805
,,,,Conditions/Version_1/zeroback(2)_v1.xlsx,New rule: Press 'space' when you see the letter 'x' or 'X'.,x,space,,,,,,,,,0,5,5,5,0,6,6,6,,,,,,,,,,,,,,,,,,,,,,,,,,,,,,,,,,,,,,,,,,,,,,,,,,,,,,,,,,,,,,,,,,,,,1.4688,498.5212891,None,space,1,498.5212891,None,0.3599445,P046,FENCOG,1,Post,2022_Jun_01_1150,N-Back (New Version 2021),2021.1.4,120.347805
,,,,Conditions/Version_1/zeroback(2)_v1.xlsx,New rule: Press 'space' when you see the letter 'x' or 'X'.,X,space,,,,,,,,,0,5,5,5,0,7,7,7,,,,,,,,,,,,,,,,,,,,,,,,,,,,,,,,,,,,,,,,,,,,,,,,,,,,,,,,,,,,,,,,,,,,,1.2146,501.7378609,None,space,1,501.7378609,None,0.3355689,P046,FENCOG,1,Post,2022_Jun_01_1150,N-Back (New Version 2021),2021.1.4,120.347805
,,,,Conditions/Version_1/zeroback(2)_v1.xlsx,New rule: Press 'space' when you see the letter 'x' or 'X'.,p,None,,,,,,,,,0,5,5,5,0,8,8,8,,,,,,,,,,,,,,,,,,,,,,,,,,,,,,,,,,,,,,,,,,,,,,,,,,,,,,,,,,,,,,,,,,,,,1.2456,504.9950311,None,None,1,504.9950311,None,,P046,FENCOG,1,Post,2022_Jun_01_1150,N-Back (New Version 2021),2021.1.4,120.347805
,,,,Conditions/Version_1/zeroback(2)_v1.xlsx,New rule: Press 'space' when you see the letter 'x' or 'X'.,h,None,,,,,,,,,0,5,5,5,0,9,9,9,,,,,,,,,,,,,,,,,,,,,,,,,,,,,,,,,,,,,,,,,,,,,,,,,,,,,,,,,,,,,,,,,,,,,1.351,508.3608858,None,None,1,508.3608858,None,,P046,FENCOG,1,Post,2022_Jun_01_1150,N-Back (New Version 2021),2021.1.4,120.347805
,,,,Conditions/Version_1/zeroback(2)_v1.xlsx,New rule: Press 'space' when you see the letter 'x' or 'X'.,,,,,,,,,,,0,5,5,5,,,,,,,,,,,,,,,,,,,,,,,,,,,,,,,,,,,,,,,,,,,,,,,,,,,,,,,,,,,,,,,,,,,,,,,,,,,,,,,,,P046,FENCOG,1,Post,2022_Jun_01_1150,N-Back (New Version 2021),2021.1.4,120.347805
,,,,Conditions/Version_1/threeback(2)_v1.xlsx,New rule: Press 'space' when you see 3-back (i.e. the same letter as the one that appeared 3 letters ago.),q,None,,,,,,,,,0,6,6,6,0,0,0,0,,,,,,,,,,,,,,,,,,,,,,,,,,,,,,,,,,,,,,,,,,,,,,,,,,,,,,,,,,,510.3892862,None,513.3765837,None,space,0.4006796,513.3765837,None,510.3892862,None,1.816,515.625104,None,None,1,515.625104,None,,P046,FENCOG,1,Post,2022_Jun_01_1150,N-Back (New Version 2021),2021.1.4,120.347805
,,,,Conditions/Version_1/threeback(2)_v1.xlsx,New rule: Press 'space' when you see 3-back (i.e. the same letter as the one that appeared 3 letters ago.),Y,None,,,,,,,,,0,6,6,6,0,1,1,1,,,,,,,,,,,,,,,,,,,,,,,,,,,,,,,,,,,,,,,,,,,,,,,,,,,,,,,,,,,,,,,,,,,,,1.2952,518.9315473,None,None,1,518.9315473,None,,P046,FENCOG,1,Post,2022_Jun_01_1150,N-Back (New Version 2021),2021.1.4,120.347805
,,,,Conditions/Version_1/threeback(2)_v1.xlsx,New rule: Press 'space' when you see 3-back (i.e. the same letter as the one that appeared 3 letters ago.),p,None,,,,,,,,,0,6,6,6,0,2,2,2,,,,,,,,,,,,,,,,,,,,,,,,,,,,,,,,,,,,,,,,,,,,,,,,,,,,,,,,,,,,,,,,,,,,,1.878,522.8137308,None,None,1,522.8137308,None,,P046,FENCOG,1,Post,2022_Jun_01_1150,N-Back (New Version 2021),2021.1.4,120.347805
,,,,Conditions/Version_1/threeback(2)_v1.xlsx,New rule: Press 'space' when you see 3-back (i.e. the same letter as the one that appeared 3 letters ago.),p,None,,,,,,,,,0,6,6,6,0,3,3,3,,,,,,,,,,,,,,,,,,,,,,,,,,,,,,,,,,,,,,,,,,,,,,,,,,,,,,,,,,,,,,,,,,,,,1.32,526.1379848,None,None,1,526.1379848,None,,P046,FENCOG,1,Post,2022_Jun_01_1150,N-Back (New Version 2021),2021.1.4,120.347805
,,,,Conditions/Version_1/threeback(2)_v1.xlsx,New rule: Press 'space' when you see 3-back (i.e. the same letter as the one that appeared 3 letters ago.),y,space,,,,,,,,,0,6,6,6,0,4,4,4,,,,,,,,,,,,,,,,,,,,,,,,,,,,,,,,,,,,,,,,,,,,,,,,,,,,,,,,,,,,,,,,,,,,,1.2766,529.4201889,None,space,1,529.4201889,None,1.2130439,P046,FENCOG,1,Post,2022_Jun_01_1150,N-Back (New Version 2021),2021.1.4,120.347805
,,,,Conditions/Version_1/threeback(2)_v1.xlsx,New rule: Press 'space' when you see 3-back (i.e. the same letter as the one that appeared 3 letters ago.),u,None,,,,,,,,,0,6,6,6,0,5,5,5,,,,,,,,,,,,,,,,,,,,,,,,,,,,,,,,,,,,,,,,,,,,,,,,,,,,,,,,,,,,,,,,,,,,,1.568,532.9953503,None,None,1,532.9953503,None,,P046,FENCOG,1,Post,2022_Jun_01_1150,N-Back (New Version 2021),2021.1.4,120.347805
,,,,Conditions/Version_1/threeback(2)_v1.xlsx,New rule: Press 'space' when you see 3-back (i.e. the same letter as the one that appeared 3 letters ago.),P,space,,,,,,,,,0,6,6,6,0,6,6,6,,,,,,,,,,,,,,,,,,,,,,,,,,,,,,,,,,,,,,,,,,,,,,,,,,,,,,,,,,,,,,,,,,,,,1.7354,536.7430156,None,space,1,536.7430156,None,1.1388085,P046,FENCOG,1,Post,2022_Jun_01_1150,N-Back (New Version 2021),2021.1.4,120.347805
,,,,Conditions/Version_1/threeback(2)_v1.xlsx,New rule: Press 'space' when you see 3-back (i.e. the same letter as the one that appeared 3 letters ago.),a,None,,,,,,,,,0,6,6,6,0,7,7,7,,,,,,,,,,,,,,,,,,,,,,,,,,,,,,,,,,,,,,,,,,,,,,,,,,,,,,,,,,,,,,,,,,,,,1.9462,540.6927239,None,None,1,540.6927239,None,,P046,FENCOG,1,Post,2022_Jun_01_1150,N-Back (New Version 2021),2021.1.4,120.347805
,,,,Conditions/Version_1/threeback(2)_v1.xlsx,New rule: Press 'space' when you see 3-back (i.e. the same letter as the one that appeared 3 letters ago.),U,space,,,,,,,,,0,6,6,6,0,8,8,8,,,,,,,,,,,,,,,,,,,,,,,,,,,,,,,,,,,,,,,,,,,,,,,,,,,,,,,,,,,,,,,,,,,,,1.6424,544.3525429,None,space,1,544.3525429,None,1.192732,P046,FENCOG,1,Post,2022_Jun_01_1150,N-Back (New Version 2021),2021.1.4,120.347805
,,,,Conditions/Version_1/threeback(2)_v1.xlsx,New rule: Press 'space' when you see 3-back (i.e. the same letter as the one that appeared 3 letters ago.),q,None,,,,,,,,,0,6,6,6,0,9,9,9,,,,,,,,,,,,,,,,,,,,,,,,,,,,,,,,,,,,,,,,,,,,,,,,,,,,,,,,,,,,,,,,,,,,,1.7912,548.1502482,None,None,1,548.1502482,None,,P046,FENCOG,1,Post,2022_Jun_01_1150,N-Back (New Version 2021),2021.1.4,120.347805
,,,,Conditions/Version_1/threeback(2)_v1.xlsx,New rule: Press 'space' when you see 3-back (i.e. the same letter as the one that appeared 3 letters ago.),,,,,,,,,,,0,6,6,6,,,,,,,,,,,,,,,,,,,,,,,,,,,,,,,,,,,,,,,,,,,,,,,,,,,,,,,,,,,,,,,,,,,,,,,,,,,,,,,,,P046,FENCOG,1,Post,2022_Jun_01_1150,N-Back (New Version 2021),2021.1.4,120.347805
,,,,Conditions/Version_1/twoback(2)_v1.xlsx,New rule: Press 'space' when you see 2-back (i.e. the same letter as the one that appeared 2 letters ago.),q,None,,,,,,,,,0,7,7,7,0,0,0,0,,,,,,,,,,,,,,,,,,,,,,,,,,,,,,,,,,,,,,,,,,,,,,,,,,,,,,,,,,,550.1810605,None,553.164694,None,space,0.8527247,553.164694,None,550.1810605,None,1.2766,555.3208133,None,None,1,555.3208133,None,,P046,FENCOG,1,Post,2022_Jun_01_1150,N-Back (New Version 2021),2021.1.4,120.347805
,,,,Conditions/Version_1/twoback(2)_v1.xlsx,New rule: Press 'space' when you see 2-back (i.e. the same letter as the one that appeared 2 letters ago.),r,None,,,,,,,,,0,7,7,7,0,1,1,1,,,,,,,,,,,,,,,,,,,,,,,,,,,,,,,,,,,,,,,,,,,,,,,,,,,,,,,,,,,,,,,,,,,,,1.9958,559.3208234,None,None,1,559.3208234,None,,P046,FENCOG,1,Post,2022_Jun_01_1150,N-Back (New Version 2021),2021.1.4,120.347805
,,,,Conditions/Version_1/twoback(2)_v1.xlsx,New rule: Press 'space' when you see 2-back (i.e. the same letter as the one that appeared 2 letters ago.),q,space,,,,,,,,,0,7,7,7,0,2,2,2,,,,,,,,,,,,,,,,,,,,,,,,,,,,,,,,,,,,,,,,,,,,,,,,,,,,,,,,,,,,,,,,,,,,,1.3448,562.6769481,None,space,1,562.6769481,None,0.9482253,P046,FENCOG,1,Post,2022_Jun_01_1150,N-Back (New Version 2021),2021.1.4,120.347805
,,,,Conditions/Version_1/twoback(2)_v1.xlsx,New rule: Press 'space' when you see 2-back (i.e. the same letter as the one that appeared 2 letters ago.),P,None,,,,,,,,,0,7,7,7,0,3,3,3,,,,,,,,,,,,,,,,,,,,,,,,,,,,,,,,,,,,,,,,,,,,,,,,,,,,,,,,,,,,,,,,,,,,,1.7106,566.3926043,None,None,1,566.3926043,None,,P046,FENCOG,1,Post,2022_Jun_01_1150,N-Back (New Version 2021),2021.1.4,120.347805
,,,,Conditions/Version_1/twoback(2)_v1.xlsx,New rule: Press 'space' when you see 2-back (i.e. the same letter as the one that appeared 2 letters ago.),p,None,,,,,,,,,0,7,7,7,0,4,4,4,,,,,,,,,,,,,,,,,,,,,,,,,,,,,,,,,,,,,,,,,,,,,,,,,,,,,,,,,,,,,,,,,,,,,1.847,570.2414422,None,None,1,570.2414422,None,,P046,FENCOG,1,Post,2022_Jun_01_1150,N-Back (New Version 2021),2021.1.4,120.347805
,,,,Conditions/Version_1/twoback(2)_v1.xlsx,New rule: Press 'space' when you see 2-back (i.e. the same letter as the one that appeared 2 letters ago.),H,None,,,,,,,,,0,7,7,7,0,5,5,5,,,,,,,,,,,,,,,,,,,,,,,,,,,,,,,,,,,,,,,,,,,,,,,,,,,,,,,,,,,,,,,,,,,,,1.1588,573.3988279,None,None,1,573.3988279,None,,P046,FENCOG,1,Post,2022_Jun_01_1150,N-Back (New Version 2021),2021.1.4,120.347805
,,,,Conditions/Version_1/twoback(2)_v1.xlsx,New rule: Press 'space' when you see 2-back (i.e. the same letter as the one that appeared 2 letters ago.),g,None,,,,,,,,,0,7,7,7,0,6,6,6,,,,,,,,,,,,,,,,,,,,,,,,,,,,,,,,,,,,,,,,,,,,,,,,,,,,,,,,,,,,,,,,,,,,,1.2704,576.6738295,None,None,1,576.6738295,None,,P046,FENCOG,1,Post,2022_Jun_01_1150,N-Back (New Version 2021),2021.1.4,120.347805
,,,,Conditions/Version_1/twoback(2)_v1.xlsx,New rule: Press 'space' when you see 2-back (i.e. the same letter as the one that appeared 2 letters ago.),j,None,,,,,,,,,0,7,7,7,0,7,7,7,,,,,,,,,,,,,,,,,,,,,,,,,,,,,,,,,,,,,,,,,,,,,,,,,,,,,,,,,,,,,,,,,,,,,1.6486,580.3349152,None,None,1,580.3349152,None,,P046,FENCOG,1,Post,2022_Jun_01_1150,N-Back (New Version 2021),2021.1.4,120.347805
,,,,Conditions/Version_1/twoback(2)_v1.xlsx,New rule: Press 'space' when you see 2-back (i.e. the same letter as the one that appeared 2 letters ago.),g,space,,,,,,,,,0,7,7,7,0,8,8,8,,,,,,,,,,,,,,,,,,,,,,,,,,,,,,,,,,,,,,,,,,,,,,,,,,,,,,,,,,,,,,,,,,,,,1.6176,583.9623217,None,space,1,583.9623217,None,1.1033367,P046,FENCOG,1,Post,2022_Jun_01_1150,N-Back (New Version 2021),2021.1.4,120.347805
,,,,Conditions/Version_1/twoback(2)_v1.xlsx,New rule: Press 'space' when you see 2-back (i.e. the same letter as the one that appeared 2 letters ago.),G,None,,,,,,,,,0,7,7,7,0,9,9,9,,,,,,,,,,,,,,,,,,,,,,,,,,,,,,,,,,,,,,,,,,,,,,,,,,,,,,,,,,,,,,,,,,,,,1.3758,587.3456153,None,None,1,587.3456153,None,,P046,FENCOG,1,Post,2022_Jun_01_1150,N-Back (New Version 2021),2021.1.4,120.347805
,,,,Conditions/Version_1/twoback(2)_v1.xlsx,New rule: Press 'space' when you see 2-back (i.e. the same letter as the one that appeared 2 letters ago.),,,,,,,,,,,0,7,7,7,,,,,,,,,,,,,,,,,,,,,,,,,,,,,,,,,,,,,,,,,,,,,,,,,,,,,,,,,,,,,,,,,,,,,,,,,,,,,,,,,P046,FENCOG,1,Post,2022_Jun_01_1150,N-Back (New Version 2021),2021.1.4,120.347805
,,,,Conditions/Version_1/threeback(3)_v1.xlsx,New rule: Press 'space' when you see 3-back (i.e. the same letter as the one that appeared 3 letters ago.),w,None,,,,,,,,,0,8,8,8,0,0,0,0,,,,,,,,,,,,,,,,,,,,,,,,,,,,,,,,,,,,,,,,,,,,,,,,,,,,,,,,,,,589.3730268,None,592.3623194,None,space,0.4388316,592.3623194,None,589.3730268,None,1.2084,594.0426931,None,None,1,594.0426931,None,,P046,FENCOG,1,Post,2022_Jun_01_1150,N-Back (New Version 2021),2021.1.4,120.347805
,,,,Conditions/Version_1/threeback(3)_v1.xlsx,New rule: Press 'space' when you see 3-back (i.e. the same letter as the one that appeared 3 letters ago.),p,None,,,,,,,,,0,8,8,8,0,1,1,1,,,,,,,,,,,,,,,,,,,,,,,,,,,,,,,,,,,,,,,,,,,,,,,,,,,,,,,,,,,,,,,,,,,,,1.5618,597.6107878,None,None,1,597.6107878,None,,P046,FENCOG,1,Post,2022_Jun_01_1150,N-Back (New Version 2021),2021.1.4,120.347805
,,,,Conditions/Version_1/threeback(3)_v1.xlsx,New rule: Press 'space' when you see 3-back (i.e. the same letter as the one that appeared 3 letters ago.),P,None,,,,,,,,,0,8,8,8,0,2,2,2,,,,,,,,,,,,,,,,,,,,,,,,,,,,,,,,,,,,,,,,,,,,,,,,,,,,,,,,,,,,,,,,,,,,,1.1092,600.7324172,None,None,1,600.7324172,None,,P046,FENCOG,1,Post,2022_Jun_01_1150,N-Back (New Version 2021),2021.1.4,120.347805
,,,,Conditions/Version_1/threeback(3)_v1.xlsx,New rule: Press 'space' when you see 3-back (i.e. the same letter as the one that appeared 3 letters ago.),i,None,,,,,,,,,0,8,8,8,0,3,3,3,,,,,,,,,,,,,,,,,,,,,,,,,,,,,,,,,,,,,,,,,,,,,,,,,,,,,,,,,,,,,,,,,,,,,1.6424,604.3832235,None,None,1,604.3832235,None,,P046,FENCOG,1,Post,2022_Jun_01_1150,N-Back (New Version 2021),2021.1.4,120.347805
,,,,Conditions/Version_1/threeback(3)_v1.xlsx,New rule: Press 'space' when you see 3-back (i.e. the same letter as the one that appeared 3 letters ago.),f,None,,,,,,,,,0,8,8,8,0,4,4,4,,,,,,,,,,,,,,,,,,,,,,,,,,,,,,,,,,,,,,,,,,,,,,,,,,,,,,,,,,,,,,,,,,,,,1.103,607.4993386,None,None,1,607.4993386,None,,P046,FENCOG,1,Post,2022_Jun_01_1150,N-Back (New Version 2021),2021.1.4,120.347805
,,,,Conditions/Version_1/threeback(3)_v1.xlsx,New rule: Press 'space' when you see 3-back (i.e. the same letter as the one that appeared 3 letters ago.),o,None,,,,,,,,,0,8,8,8,0,5,5,5,,,,,,,,,,,,,,,,,,,,,,,,,,,,,,,,,,,,,,,,,,,,,,,,,,,,,,,,,,,,,,,,,,,,,1.5804,611.0895055,None,None,1,611.0895055,None,,P046,FENCOG,1,Post,2022_Jun_01_1150,N-Back (New Version 2021),2021.1.4,120.347805
,,,,Conditions/Version_1/threeback(3)_v1.xlsx,New rule: Press 'space' when you see 3-back (i.e. the same letter as the one that appeared 3 letters ago.),w,None,,,,,,,,,0,8,8,8,0,6,6,6,,,,,,,,,,,,,,,,,,,,,,,,,,,,,,,,,,,,,,,,,,,,,,,,,,,,,,,,,,,,,,,,,,,,,1.7726,614.8711833,None,None,1,614.8711833,None,,P046,FENCOG,1,Post,2022_Jun_01_1150,N-Back (New Version 2021),2021.1.4,120.347805
,,,,Conditions/Version_1/threeback(3)_v1.xlsx,New rule: Press 'space' when you see 3-back (i.e. the same letter as the one that appeared 3 letters ago.),F,space,,,,,,,,,0,8,8,8,0,7,7,7,,,,,,,,,,,,,,,,,,,,,,,,,,,,,,,,,,,,,,,,,,,,,,,,,,,,,,,,,,,,,,,,,,,,,1.8532,618.7280944,None,space,1,618.7280944,None,1.1211974,P046,FENCOG,1,Post,2022_Jun_01_1150,N-Back (New Version 2021),2021.1.4,120.347805
,,,,Conditions/Version_1/threeback(3)_v1.xlsx,New rule: Press 'space' when you see 3-back (i.e. the same letter as the one that appeared 3 letters ago.),p,None,,,,,,,,,0,8,8,8,0,8,8,8,,,,,,,,,,,,,,,,,,,,,,,,,,,,,,,,,,,,,,,,,,,,,,,,,,,,,,,,,,,,,,,,,,,,,1.1216,621.8606684,None,None,1,621.8606684,None,,P046,FENCOG,1,Post,2022_Jun_01_1150,N-Back (New Version 2021),2021.1.4,120.347805
,,,,Conditions/Version_1/threeback(3)_v1.xlsx,New rule: Press 'space' when you see 3-back (i.e. the same letter as the one that appeared 3 letters ago.),W,space,,,,,,,,,0,8,8,8,0,9,9,9,,,,,,,,,,,,,,,,,,,,,,,,,,,,,,,,,,,,,,,,,,,,,,,,,,,,,,,,,,,,,,,,,,,,,1.0658,624.9358933,None,space,1,624.9358933,None,1.0818794,P046,FENCOG,1,Post,2022_Jun_01_1150,N-Back (New Version 2021),2021.1.4,120.347805
,,,,Conditions/Version_1/threeback(3)_v1.xlsx,New rule: Press 'space' when you see 3-back (i.e. the same letter as the one that appeared 3 letters ago.),,,,,,,,,,,0,8,8,8,,,,,,,,,,,,,,,,,,,,,,,,,,,,,,,,,,,,,,,,,,,,,,,,,,,,,,,,,,,,,,,,,,,,,,,,,,,,,,,,,P046,FENCOG,1,Post,2022_Jun_01_1150,N-Back (New Version 2021),2021.1.4,120.347805
,,,,Conditions/Version_1/zeroback(3)_v1.xlsx,New rule: Press 'space' when you see the letter 'x' or 'X'.,X,space,,,,,,,,,0,9,9,9,0,0,0,0,,,,,,,,,,,,,,,,,,,,,,,,,,,,,,,,,,,,,,,,,,,,,,,,,,,,,,,,,,,626.9617686,None,629.9503316,None,space,25.6749239,629.9503316,None,626.9617686,None,1.7664,657.4155905,None,space,1,657.4155905,None,0.4255004,P046,FENCOG,1,Post,2022_Jun_01_1150,N-Back (New Version 2021),2021.1.4,120.347805
,,,,Conditions/Version_1/zeroback(3)_v1.xlsx,New rule: Press 'space' when you see the letter 'x' or 'X'.,B,None,,,,,,,,,0,9,9,9,0,1,1,1,,,,,,,,,,,,,,,,,,,,,,,,,,,,,,,,,,,,,,,,,,,,,,,,,,,,,,,,,,,,,,,,,,,,,1.537,660.9564612,None,None,1,660.9564612,None,,P046,FENCOG,1,Post,2022_Jun_01_1150,N-Back (New Version 2021),2021.1.4,120.347805
,,,,Conditions/Version_1/zeroback(3)_v1.xlsx,New rule: Press 'space' when you see the letter 'x' or 'X'.,m,None,,,,,,,,,0,9,9,9,0,2,2,2,,,,,,,,,,,,,,,,,,,,,,,,,,,,,,,,,,,,,,,,,,,,,,,,,,,,,,,,,,,,,,,,,,,,,1.1898,664.1468298,None,None,1,664.1468298,None,,P046,FENCOG,1,Post,2022_Jun_01_1150,N-Back (New Version 2021),2021.1.4,120.347805
,,,,Conditions/Version_1/zeroback(3)_v1.xlsx,New rule: Press 'space' when you see the letter 'x' or 'X'.,m,None,,,,,,,,,0,9,9,9,0,3,3,3,,,,,,,,,,,,,,,,,,,,,,,,,,,,,,,,,,,,,,,,,,,,,,,,,,,,,,,,,,,,,,,,,,,,,1.5556,667.7042709,None,None,1,667.7042709,None,,P046,FENCOG,1,Post,2022_Jun_01_1150,N-Back (New Version 2021),2021.1.4,120.347805
,,,,Conditions/Version_1/zeroback(3)_v1.xlsx,New rule: Press 'space' when you see the letter 'x' or 'X'.,o,None,,,,,,,,,0,9,9,9,0,4,4,4,,,,,,,,,,,,,,,,,,,,,,,,,,,,,,,,,,,,,,,,,,,,,,,,,,,,,,,,,,,,,,,,,,,,,1.2642,670.9704879,None,None,1,670.9704879,None,,P046,FENCOG,1,Post,2022_Jun_01_1150,N-Back (New Version 2021),2021.1.4,120.347805
,,,,Conditions/Version_1/zeroback(3)_v1.xlsx,New rule: Press 'space' when you see the letter 'x' or 'X'.,p,None,,,,,,,,,0,9,9,9,0,5,5,5,,,,,,,,,,,,,,,,,,,,,,,,,,,,,,,,,,,,,,,,,,,,,,,,,,,,,,,,,,,,,,,,,,,,,1.5742,674.5437942,None,None,1,674.5437942,None,,P046,FENCOG,1,Post,2022_Jun_01_1150,N-Back (New Version 2021),2021.1.4,120.347805
,,,,Conditions/Version_1/zeroback(3)_v1.xlsx,New rule: Press 'space' when you see the letter 'x' or 'X'.,G,None,,,,,,,,,0,9,9,9,0,6,6,6,,,,,,,,,,,,,,,,,,,,,,,,,,,,,,,,,,,,,,,,,,,,,,,,,,,,,,,,,,,,,,,,,,,,,1.3076,677.8547691,None,None,1,677.8547691,None,,P046,FENCOG,1,Post,2022_Jun_01_1150,N-Back (New Version 2021),2021.1.4,120.347805
,,,,Conditions/Version_1/zeroback(3)_v1.xlsx,New rule: Press 'space' when you see the letter 'x' or 'X'.,X,space,,,,,,,,,0,9,9,9,0,7,7,7,,,,,,,,,,,,,,,,,,,,,,,,,,,,,,,,,,,,,,,,,,,,,,,,,,,,,,,,,,,,,,,,,,,,,1.9772,681.8430529,None,space,1,681.8430529,None,0.4382082,P046,FENCOG,1,Post,2022_Jun_01_1150,N-Back (New Version 2021),2021.1.4,120.347805
,,,,Conditions/Version_1/zeroback(3)_v1.xlsx,New rule: Press 'space' when you see the letter 'x' or 'X'.,p,None,,,,,,,,,0,9,9,9,0,8,8,8,,,,,,,,,,,,,,,,,,,,,,,,,,,,,,,,,,,,,,,,,,,,,,,,,,,,,,,,,,,,,,,,,,,,,1.785,685.6440528,None,None,1,685.6440528,None,,P046,FENCOG,1,Post,2022_Jun_01_1150,N-Back (New Version 2021),2021.1.4,120.347805
,,,,Conditions/Version_1/zeroback(3)_v1.xlsx,New rule: Press 'space' when you see the letter 'x' or 'X'.,x,space,,,,,,,,,0,9,9,9,0,9,9,9,,,,,,,,,,,,,,,,,,,,,,,,,,,,,,,,,,,,,,,,,,,,,,,,,,,,,,,,,,,,,,,,,,,,,1.289,688.9397297,None,space,1,688.9397297,None,0.4133596,P046,FENCOG,1,Post,2022_Jun_01_1150,N-Back (New Version 2021),2021.1.4,120.347805
,,,,Conditions/Version_1/zeroback(3)_v1.xlsx,New rule: Press 'space' when you see the letter 'x' or 'X'.,,,,,,,,,,,0,9,9,9,,,,,,,,,,,,,,,,,,,,,,,,,,,,,,,,,,,,,,,,,,,,,,,,,,,,,,,,,,,,,,,,,,,,,,,,,,,,,,,,,P046,FENCOG,1,Post,2022_Jun_01_1150,N-Back (New Version 2021),2021.1.4,120.347805
,,,,Conditions/Version_1/twoback(3)_v1.xlsx,New rule: Press 'space' when you see 2-back (i.e. the same letter as the one that appeared 2 letters ago.),e,None,,,,,,,,,0,10,10,10,0,0,0,0,,,,,,,,,,,,,,,,,,,,,,,,,,,,,,,,,,,,,,,,,,,,,,,,,,,,,,,,,,,690.9633275,None,693.9489123,None,space,20.5322182,693.9489123,None,690.9633275,None,1.4006,715.9155012,None,None,1,715.9155012,None,,P046,FENCOG,1,Post,2022_Jun_01_1150,N-Back (New Version 2021),2021.1.4,120.347805
,,,,Conditions/Version_1/twoback(3)_v1.xlsx,New rule: Press 'space' when you see 2-back (i.e. the same letter as the one that appeared 2 letters ago.),o,None,,,,,,,,,0,10,10,10,0,1,1,1,,,,,,,,,,,,,,,,,,,,,,,,,,,,,,,,,,,,,,,,,,,,,,,,,,,,,,,,,,,,,,,,,,,,,1.5804,719.4993672,None,None,1,719.4993672,None,,P046,FENCOG,1,Post,2022_Jun_01_1150,N-Back (New Version 2021),2021.1.4,120.347805
,,,,Conditions/Version_1/twoback(3)_v1.xlsx,New rule: Press 'space' when you see 2-back (i.e. the same letter as the one that appeared 2 letters ago.),P,None,,,,,,,,,0,10,10,10,0,2,2,2,,,,,,,,,,,,,,,,,,,,,,,,,,,,,,,,,,,,,,,,,,,,,,,,,,,,,,,,,,,,,,,,,,,,,1.4688,722.9816975,None,None,1,722.9816975,None,,P046,FENCOG,1,Post,2022_Jun_01_1150,N-Back (New Version 2021),2021.1.4,120.347805
,,,,Conditions/Version_1/twoback(3)_v1.xlsx,New rule: Press 'space' when you see 2-back (i.e. the same letter as the one that appeared 2 letters ago.),z,None,,,,,,,,,0,10,10,10,0,3,3,3,,,,,,,,,,,,,,,,,,,,,,,,,,,,,,,,,,,,,,,,,,,,,,,,,,,,,,,,,,,,,,,,,,,,,1.1588,726.1495976,None,None,1,726.1495976,None,,P046,FENCOG,1,Post,2022_Jun_01_1150,N-Back (New Version 2021),2021.1.4,120.347805
,,,,Conditions/Version_1/twoback(3)_v1.xlsx,New rule: Press 'space' when you see 2-back (i.e. the same letter as the one that appeared 2 letters ago.),X,None,,,,,,,,,0,10,10,10,0,4,4,4,,,,,,,,,,,,,,,,,,,,,,,,,,,,,,,,,,,,,,,,,,,,,,,,,,,,,,,,,,,,,,,,,,,,,1.3076,729.4618715,None,None,1,729.4618715,None,,P046,FENCOG,1,Post,2022_Jun_01_1150,N-Back (New Version 2021),2021.1.4,120.347805
,,,,Conditions/Version_1/twoback(3)_v1.xlsx,New rule: Press 'space' when you see 2-back (i.e. the same letter as the one that appeared 2 letters ago.),z,space,,,,,,,,,0,10,10,10,0,5,5,5,,,,,,,,,,,,,,,,,,,,,,,,,,,,,,,,,,,,,,,,,,,,,,,,,,,,,,,,,,,,,,,,,,,,,1.3448,732.8184846,None,space,1,732.8184846,None,0.7746546,P046,FENCOG,1,Post,2022_Jun_01_1150,N-Back (New Version 2021),2021.1.4,120.347805
,,,,Conditions/Version_1/twoback(3)_v1.xlsx,New rule: Press 'space' when you see 2-back (i.e. the same letter as the one that appeared 2 letters ago.),x,space,,,,,,,,,0,10,10,10,0,6,6,6,,,,,,,,,,,,,,,,,,,,,,,,,,,,,,,,,,,,,,,,,,,,,,,,,,,,,,,,,,,,,,,,,,,,,1.6982,736.5267792,None,space,1,736.5267792,None,1.1702449,P046,FENCOG,1,Post,2022_Jun_01_1150,N-Back (New Version 2021),2021.1.4,120.347805
,,,,Conditions/Version_1/twoback(3)_v1.xlsx,New rule: Press 'space' when you see 2-back (i.e. the same letter as the one that appeared 2 letters ago.),c,None,,,,,,,,,0,10,10,10,0,7,7,7,,,,,,,,,,,,,,,,,,,,,,,,,,,,,,,,,,,,,,,,,,,,,,,,,,,,,,,,,,,,,,,,,,,,,1.7044,740.2421394,None,None,1,740.2421394,None,,P046,FENCOG,1,Post,2022_Jun_01_1150,N-Back (New Version 2021),2021.1.4,120.347805
,,,,Conditions/Version_1/twoback(3)_v1.xlsx,New rule: Press 'space' when you see 2-back (i.e. the same letter as the one that appeared 2 letters ago.),i,None,,,,,,,,,0,10,10,10,0,8,8,8,,,,,,,,,,,,,,,,,,,,,,,,,,,,,,,,,,,,,,,,,,,,,,,,,,,,,,,,,,,,,,,,,,,,,1.2704,743.5256131,None,None,1,743.5256131,None,,P046,FENCOG,1,Post,2022_Jun_01_1150,N-Back (New Version 2021),2021.1.4,120.347805
,,,,Conditions/Version_1/twoback(3)_v1.xlsx,New rule: Press 'space' when you see 2-back (i.e. the same letter as the one that appeared 2 letters ago.),C,space,,,,,,,,,0,10,10,10,0,9,9,9,,,,,,,,,,,,,,,,,,,,,,,,,,,,,,,,,,,,,,,,,,,,,,,,,,,,,,,,,,,,,,,,,,,,,1.4874,747.0242249,None,space,1,747.0242249,None,0.9370675,P046,FENCOG,1,Post,2022_Jun_01_1150,N-Back (New Version 2021),2021.1.4,120.347805
,,,,Conditions/Version_1/twoback(3)_v1.xlsx,New rule: Press 'space' when you see 2-back (i.e. the same letter as the one that appeared 2 letters ago.),,,,,,,,,,,0,10,10,10,,,,,,,,,,,,,,,,,,,,,,,,,,,,,,,,,,,,,,,,,,,,,,,,,,,,,,,,,,,,,,,,,,,,,,,,,,,,,,,,,P046,FENCOG,1,Post,2022_Jun_01_1150,N-Back (New Version 2021),2021.1.4,120.347805
,,,,Conditions/Version_1/oneback(3)_v1.xlsx,New rule: Press 'space' when you see 1-back (i.e. the same letter as the one that appeared 1 letter ago.),o,None,,,,,,,,,0,11,11,11,0,0,0,0,,,,,,,,,,,,,,,,,,,,,,,,,,,,,,,,,,,,,,,,,,,,,,,,,,,,,,,,,,,749.0498803,None,752.0319362,None,space,0.2490642,752.0319362,None,749.0498803,None,1.1092,753.4206807,None,None,1,753.4206807,None,,P046,FENCOG,1,Post,2022_Jun_01_1150,N-Back (New Version 2021),2021.1.4,120.347805
,,,,Conditions/Version_1/oneback(3)_v1.xlsx,New rule: Press 'space' when you see 1-back (i.e. the same letter as the one that appeared 1 letter ago.),O,space,,,,,,,,,0,11,11,11,0,1,1,1,,,,,,,,,,,,,,,,,,,,,,,,,,,,,,,,,,,,,,,,,,,,,,,,,,,,,,,,,,,,,,,,,,,,,1.4006,756.8311845,None,space,1,756.8311845,None,0.3779815,P046,FENCOG,1,Post,2022_Jun_01_1150,N-Back (New Version 2021),2021.1.4,120.347805
,,,,Conditions/Version_1/oneback(3)_v1.xlsx,New rule: Press 'space' when you see 1-back (i.e. the same letter as the one that appeared 1 letter ago.),h,None,,,,,,,,,0,11,11,11,0,2,2,2,,,,,,,,,,,,,,,,,,,,,,,,,,,,,,,,,,,,,,,,,,,,,,,,,,,,,,,,,,,,,,,,,,,,,1.5494,760.3850382,None,None,1,760.3850382,None,,P046,FENCOG,1,Post,2022_Jun_01_1150,N-Back (New Version 2021),2021.1.4,120.347805
,,,,Conditions/Version_1/oneback(3)_v1.xlsx,New rule: Press 'space' when you see 1-back (i.e. the same letter as the one that appeared 1 letter ago.),g,None,,,,,,,,,0,11,11,11,0,3,3,3,,,,,,,,,,,,,,,,,,,,,,,,,,,,,,,,,,,,,,,,,,,,,,,,,,,,,,,,,,,,,,,,,,,,,1.816,764.2020793,None,None,1,764.2020793,None,,P046,FENCOG,1,Post,2022_Jun_01_1150,N-Back (New Version 2021),2021.1.4,120.347805
,,,,Conditions/Version_1/oneback(3)_v1.xlsx,New rule: Press 'space' when you see 1-back (i.e. the same letter as the one that appeared 1 letter ago.),n,None,,,,,,,,,0,11,11,11,0,4,4,4,,,,,,,,,,,,,,,,,,,,,,,,,,,,,,,,,,,,,,,,,,,,,,,,,,,,,,,,,,,,,,,,,,,,,1.0782,767.2935127,None,None,1,767.2935127,None,,P046,FENCOG,1,Post,2022_Jun_01_1150,N-Back (New Version 2021),2021.1.4,120.347805
,,,,Conditions/Version_1/oneback(3)_v1.xlsx,New rule: Press 'space' when you see 1-back (i.e. the same letter as the one that appeared 1 letter ago.),z,None,,,,,,,,,0,11,11,11,0,5,5,5,,,,,,,,,,,,,,,,,,,,,,,,,,,,,,,,,,,,,,,,,,,,,,,,,,,,,,,,,,,,,,,,,,,,,1.2146,770.5166905,None,None,1,770.5166905,None,,P046,FENCOG,1,Post,2022_Jun_01_1150,N-Back (New Version 2021),2021.1.4,120.347805
,,,,Conditions/Version_1/oneback(3)_v1.xlsx,New rule: Press 'space' when you see 1-back (i.e. the same letter as the one that appeared 1 letter ago.),X,None,,,,,,,,,0,11,11,11,0,6,6,6,,,,,,,,,,,,,,,,,,,,,,,,,,,,,,,,,,,,,,,,,,,,,,,,,,,,,,,,,,,,,,,,,,,,,1.3758,773.9085096,None,None,1,773.9085096,None,,P046,FENCOG,1,Post,2022_Jun_01_1150,N-Back (New Version 2021),2021.1.4,120.347805
,,,,Conditions/Version_1/oneback(3)_v1.xlsx,New rule: Press 'space' when you see 1-back (i.e. the same letter as the one that appeared 1 letter ago.),r,None,,,,,,,,,0,11,11,11,0,7,7,7,,,,,,,,,,,,,,,,,,,,,,,,,,,,,,,,,,,,,,,,,,,,,,,,,,,,,,,,,,,,,,,,,,,,,1.8594,777.7817627,None,None,1,777.7817627,None,,P046,FENCOG,1,Post,2022_Jun_01_1150,N-Back (New Version 2021),2021.1.4,120.347805
,,,,Conditions/Version_1/oneback(3)_v1.xlsx,New rule: Press 'space' when you see 1-back (i.e. the same letter as the one that appeared 1 letter ago.),r,space,,,,,,,,,0,11,11,11,0,8,8,8,,,,,,,,,,,,,,,,,,,,,,,,,,,,,,,,,,,,,,,,,,,,,,,,,,,,,,,,,,,,,,,,,,,,,1.444,781.23757,None,space,1,781.23757,None,1.0274827,P046,FENCOG,1,Post,2022_Jun_01_1150,N-Back (New Version 2021),2021.1.4,120.347805
,,,,Conditions/Version_1/oneback(3)_v1.xlsx,New rule: Press 'space' when you see 1-back (i.e. the same letter as the one that appeared 1 letter ago.),P,None,,,,,,,,,0,11,11,11,0,9,9,9,,,,,,,,,,,,,,,,,,,,,,,,,,,,,,,,,,,,,,,,,,,,,,,,,,,,,,,,,,,,,,,,,,,,,1.7292,785.0094045,None,None,1,785.0094045,None,,P046,FENCOG,1,Post,2022_Jun_01_1150,N-Back (New Version 2021),2021.1.4,120.347805
,,,,Conditions/Version_1/oneback(3)_v1.xlsx,New rule: Press 'space' when you see 1-back (i.e. the same letter as the one that appeared 1 letter ago.),,,,,,,,,,,0,11,11,11,,,,,,,,,,,,,,,,,,,,,,,,,,,,,,,,,,,,,,,,,,,,,,,,,,,,,,,,,,,,,,,,,,,,,,,,,,,,,,,,,P046,FENCOG,1,Post,2022_Jun_01_1150,N-Back (New Version 2021),2021.1.4,120.347805
,,,,Conditions/Version_1/twoback(4)_v1.xlsx,New rule: Press 'space' when you see 2-back (i.e. the same letter as the one that appeared 2 letters ago.),r,None,,,,,,,,,0,12,12,12,0,0,0,0,,,,,,,,,,,,,,,,,,,,,,,,,,,,,,,,,,,,,,,,,,,,,,,,,,,,,,,,,,,787.0044658,None,789.9879598,None,space,1.2530987,789.9879598,None,787.0044658,None,1.8532,793.138014,None,None,1,793.138014,None,,P046,FENCOG,1,Post,2022_Jun_01_1150,N-Back (New Version 2021),2021.1.4,120.347805
,,,,Conditions/Version_1/twoback(4)_v1.xlsx,New rule: Press 'space' when you see 2-back (i.e. the same letter as the one that appeared 2 letters ago.),T,None,,,,,,,,,0,12,12,12,0,1,1,1,,,,,,,,,,,,,,,,,,,,,,,,,,,,,,,,,,,,,,,,,,,,,,,,,,,,,,,,,,,,,,,,,,,,,1.847,796.9946068,None,None,1,796.9946068,None,,P046,FENCOG,1,Post,2022_Jun_01_1150,N-Back (New Version 2021),2021.1.4,120.347805
,,,,Conditions/Version_1/twoback(4)_v1.xlsx,New rule: Press 'space' when you see 2-back (i.e. the same letter as the one that appeared 2 letters ago.),o,None,,,,,,,,,0,12,12,12,0,2,2,2,,,,,,,,,,,,,,,,,,,,,,,,,,,,,,,,,,,,,,,,,,,,,,,,,,,,,,,,,,,,,,,,,,,,,1.599,800.5992336,None,None,1,800.5992336,None,,P046,FENCOG,1,Post,2022_Jun_01_1150,N-Back (New Version 2021),2021.1.4,120.347805
,,,,Conditions/Version_1/twoback(4)_v1.xlsx,New rule: Press 'space' when you see 2-back (i.e. the same letter as the one that appeared 2 letters ago.),p,None,,,,,,,,,0,12,12,12,0,3,3,3,,,,,,,,,,,,,,,,,,,,,,,,,,,,,,,,,,,,,,,,,,,,,,,,,,,,,,,,,,,,,,,,,,,,,1.6176,804.2326314,None,None,1,804.2326314,None,,P046,FENCOG,1,Post,2022_Jun_01_1150,N-Back (New Version 2021),2021.1.4,120.347805
,,,,Conditions/Version_1/twoback(4)_v1.xlsx,New rule: Press 'space' when you see 2-back (i.e. the same letter as the one that appeared 2 letters ago.),p,None,,,,,,,,,0,12,12,12,0,4,4,4,,,,,,,,,,,,,,,,,,,,,,,,,,,,,,,,,,,,,,,,,,,,,,,,,,,,,,,,,,,,,,,,,,,,,1.1464,807.3881626,None,None,1,807.3881626,None,,P046,FENCOG,1,Post,2022_Jun_01_1150,N-Back (New Version 2021),2021.1.4,120.347805
,,,,Conditions/Version_1/twoback(4)_v1.xlsx,New rule: Press 'space' when you see 2-back (i.e. the same letter as the one that appeared 2 letters ago.),y,None,,,,,,,,,0,12,12,12,0,5,5,5,,,,,,,,,,,,,,,,,,,,,,,,,,,,,,,,,,,,,,,,,,,,,,,,,,,,,,,,,,,,,,,,,,,,,1.9958,811.3878201,None,None,1,811.3878201,None,,P046,FENCOG,1,Post,2022_Jun_01_1150,N-Back (New Version 2021),2021.1.4,120.347805
,,,,Conditions/Version_1/twoback(4)_v1.xlsx,New rule: Press 'space' when you see 2-back (i.e. the same letter as the one that appeared 2 letters ago.),P,space,,,,,,,,,0,12,12,12,0,6,6,6,,,,,,,,,,,,,,,,,,,,,,,,,,,,,,,,,,,,,,,,,,,,,,,,,,,,,,,,,,,,,,,,,,,,,1.8656,815.260768,None,space,1,815.260768,None,1.1003211,P046,FENCOG,1,Post,2022_Jun_01_1150,N-Back (New Version 2021),2021.1.4,120.347805
,,,,Conditions/Version_1/twoback(4)_v1.xlsx,New rule: Press 'space' when you see 2-back (i.e. the same letter as the one that appeared 2 letters ago.),y,None,,,,,,,,,0,12,12,12,0,7,7,7,,,,,,,,,,,,,,,,,,,,,,,,,,,,,,,,,,,,,,,,,,,,,,,,,,,,,,,,,,,,,,,,,,,,,1.5804,818.8442562,None,space,0,818.8442562,None,1.1647976,P046,FENCOG,1,Post,2022_Jun_01_1150,N-Back (New Version 2021),2021.1.4,120.347805
,,,,Conditions/Version_1/twoback(4)_v1.xlsx,New rule: Press 'space' when you see 2-back (i.e. the same letter as the one that appeared 2 letters ago.),y,space,,,,,,,,,0,12,12,12,0,8,8,8,,,,,,,,,,,,,,,,,,,,,,,,,,,,,,,,,,,,,,,,,,,,,,,,,,,,,,,,,,,,,,,,,,,,,1.94,822.7919723,None,None,0,822.7919723,None,,P046,FENCOG,1,Post,2022_Jun_01_1150,N-Back (New Version 2021),2021.1.4,120.347805
,,,,Conditions/Version_1/twoback(4)_v1.xlsx,New rule: Press 'space' when you see 2-back (i.e. the same letter as the one that appeared 2 letters ago.),,,,,,,,,,,0,12,12,12,,,,,,,,,,,,,,,,,,,,,,,,,,,,,,,,,,,,,,,,,,,,,,,,,,,,,,,,,,,,,,,,,,,,,,,,,,,,,,,,,P046,FENCOG,1,Post,2022_Jun_01_1150,N-Back (New Version 2021),2021.1.4,120.347805
,,,,Conditions/Version_1/zeroback(4)_v1.xlsx,New rule: Press 'space' when you see the letter 'x' or 'X'.,o,None,,,,,,,,,0,13,13,13,0,0,0,0,,,,,,,,,,,,,,,,,,,,,,,,,,,,,,,,,,,,,,,,,,,,,,,,,,,,,,,,,,,824.8102514,None,827.7926917,None,space,181.2802324,827.7926917,None,824.8102514,None,1.9772,1011.078883,None,None,1,1011.078883,None,,P046,FENCOG,1,Post,2022_Jun_01_1150,N-Back (New Version 2021),2021.1.4,120.347805
,,,,Conditions/Version_1/zeroback(4)_v1.xlsx,New rule: Press 'space' when you see the letter 'x' or 'X'.,X,space,,,,,,,,,0,13,13,13,0,1,1,1,,,,,,,,,,,,,,,,,,,,,,,,,,,,,,,,,,,,,,,,,,,,,,,,,,,,,,,,,,,,,,,,,,,,,1.5618,1014.651871,None,space,1,1014.651871,None,0.3969308,P046,FENCOG,1,Post,2022_Jun_01_1150,N-Back (New Version 2021),2021.1.4,120.347805
,,,,Conditions/Version_1/zeroback(4)_v1.xlsx,New rule: Press 'space' when you see the letter 'x' or 'X'.,p,None,,,,,,,,,0,13,13,13,0,2,2,2,,,,,,,,,,,,,,,,,,,,,,,,,,,,,,,,,,,,,,,,,,,,,,,,,,,,,,,,,,,,,,,,,,,,,1.0348,1017.693744,None,None,1,1017.693744,None,,P046,FENCOG,1,Post,2022_Jun_01_1150,N-Back (New Version 2021),2021.1.4,120.347805
,,,,Conditions/Version_1/zeroback(4)_v1.xlsx,New rule: Press 'space' when you see the letter 'x' or 'X'.,m,None,,,,,,,,,0,13,13,13,0,3,3,3,,,,,,,,,,,,,,,,,,,,,,,,,,,,,,,,,,,,,,,,,,,,,,,,,,,,,,,,,,,,,,,,,,,,,1.351,1021.060307,None,None,1,1021.060307,None,,P046,FENCOG,1,Post,2022_Jun_01_1150,N-Back (New Version 2021),2021.1.4,120.347805
,,,,Conditions/Version_1/zeroback(4)_v1.xlsx,New rule: Press 'space' when you see the letter 'x' or 'X'.,n,None,,,,,,,,,0,13,13,13,0,4,4,4,,,,,,,,,,,,,,,,,,,,,,,,,,,,,,,,,,,,,,,,,,,,,,,,,,,,,,,,,,,,,,,,,,,,,1.9648,1025.031972,None,None,1,1025.031972,None,,P046,FENCOG,1,Post,2022_Jun_01_1150,N-Back (New Version 2021),2021.1.4,120.347805
,,,,Conditions/Version_1/zeroback(4)_v1.xlsx,New rule: Press 'space' when you see the letter 'x' or 'X'.,m,None,,,,,,,,,0,13,13,13,0,5,5,5,,,,,,,,,,,,,,,,,,,,,,,,,,,,,,,,,,,,,,,,,,,,,,,,,,,,,,,,,,,,,,,,,,,,,1.1278,1028.164463,None,None,1,1028.164463,None,,P046,FENCOG,1,Post,2022_Jun_01_1150,N-Back (New Version 2021),2021.1.4,120.347805
,,,,Conditions/Version_1/zeroback(4)_v1.xlsx,New rule: Press 'space' when you see the letter 'x' or 'X'.,C,None,,,,,,,,,0,13,13,13,0,6,6,6,,,,,,,,,,,,,,,,,,,,,,,,,,,,,,,,,,,,,,,,,,,,,,,,,,,,,,,,,,,,,,,,,,,,,1.2518,1031.422828,None,None,1,1031.422828,None,,P046,FENCOG,1,Post,2022_Jun_01_1150,N-Back (New Version 2021),2021.1.4,120.347805
,,,,Conditions/Version_1/zeroback(4)_v1.xlsx,New rule: Press 'space' when you see the letter 'x' or 'X'.,m,None,,,,,,,,,0,13,13,13,0,7,7,7,,,,,,,,,,,,,,,,,,,,,,,,,,,,,,,,,,,,,,,,,,,,,,,,,,,,,,,,,,,,,,,,,,,,,1.1712,1034.603982,None,None,1,1034.603982,None,,P046,FENCOG,1,Post,2022_Jun_01_1150,N-Back (New Version 2021),2021.1.4,120.347805
,,,,Conditions/Version_1/zeroback(4)_v1.xlsx,New rule: Press 'space' when you see the letter 'x' or 'X'.,p,None,,,,,,,,,0,13,13,13,0,8,8,8,,,,,,,,,,,,,,,,,,,,,,,,,,,,,,,,,,,,,,,,,,,,,,,,,,,,,,,,,,,,,,,,,,,,,1.661,1038.26992,None,None,1,1038.26992,None,,P046,FENCOG,1,Post,2022_Jun_01_1150,N-Back (New Version 2021),2021.1.4,120.347805
,,,,Conditions/Version_1/zeroback(4)_v1.xlsx,New rule: Press 'space' when you see the letter 'x' or 'X'.,X,space,,,,,,,,,0,13,13,13,0,9,9,9,,,,,,,,,,,,,,,,,,,,,,,,,,,,,,,,,,,,,,,,,,,,,,,,,,,,,,,,,,,,,,,,,,,,,1.9958,1042.27076,None,space,1,1042.27076,None,0.4263174,P046,FENCOG,1,Post,2022_Jun_01_1150,N-Back (New Version 2021),2021.1.4,120.347805
,,,,Conditions/Version_1/zeroback(4)_v1.xlsx,New rule: Press 'space' when you see the letter 'x' or 'X'.,,,,,,,,,,,0,13,13,13,,,,,,,,,,,,,,,,,,,,,,,,,,,,,,,,,,,,,,,,,,,,,,,,,,,,,,,,,,,,,,,,,,,,,,,,,,,,,,,,,P046,FENCOG,1,Post,2022_Jun_01_1150,N-Back (New Version 2021),2021.1.4,120.347805
,,,,Conditions/Version_1/oneback(4)_v1.xlsx,New rule: Press 'space' when you see 1-back (i.e. the same letter as the one that appeared 1 letter ago.),w,None,,,,,,,,,0,14,14,14,0,0,0,0,,,,,,,,,,,,,,,,,,,,,,,,,,,,,,,,,,,,,,,,,,,,,,,,,,,,,,,,,,,1044.296465,None,1047.28607,None,space,0.5786992,1047.28607,None,1044.296465,None,1.134,1049.033355,None,None,1,1049.033355,None,,P046,FENCOG,1,Post,2022_Jun_01_1150,N-Back (New Version 2021),2021.1.4,120.347805
,,,,Conditions/Version_1/oneback(4)_v1.xlsx,New rule: Press 'space' when you see 1-back (i.e. the same letter as the one that appeared 1 letter ago.),q,None,,,,,,,,,0,14,14,14,0,1,1,1,,,,,,,,,,,,,,,,,,,,,,,,,,,,,,,,,,,,,,,,,,,,,,,,,,,,,,,,,,,,,,,,,,,,,1.32,1052.358341,None,None,1,1052.358341,None,,P046,FENCOG,1,Post,2022_Jun_01_1150,N-Back (New Version 2021),2021.1.4,120.347805
,,,,Conditions/Version_1/oneback(4)_v1.xlsx,New rule: Press 'space' when you see 1-back (i.e. the same letter as the one that appeared 1 letter ago.),i,None,,,,,,,,,0,14,14,14,0,2,2,2,,,,,,,,,,,,,,,,,,,,,,,,,,,,,,,,,,,,,,,,,,,,,,,,,,,,,,,,,,,,,,,,,,,,,1.2704,1055.639771,None,None,1,1055.639771,None,,P046,FENCOG,1,Post,2022_Jun_01_1150,N-Back (New Version 2021),2021.1.4,120.347805
,,,,Conditions/Version_1/oneback(4)_v1.xlsx,New rule: Press 'space' when you see 1-back (i.e. the same letter as the one that appeared 1 letter ago.),t,None,,,,,,,,,0,14,14,14,0,3,3,3,,,,,,,,,,,,,,,,,,,,,,,,,,,,,,,,,,,,,,,,,,,,,,,,,,,,,,,,,,,,,,,,,,,,,1.9586,1059.596804,None,None,1,1059.596804,None,,P046,FENCOG,1,Post,2022_Jun_01_1150,N-Back (New Version 2021),2021.1.4,120.347805
,,,,Conditions/Version_1/oneback(4)_v1.xlsx,New rule: Press 'space' when you see 1-back (i.e. the same letter as the one that appeared 1 letter ago.),v,None,,,,,,,,,0,14,14,14,0,4,4,4,,,,,,,,,,,,,,,,,,,,,,,,,,,,,,,,,,,,,,,,,,,,,,,,,,,,,,,,,,,,,,,,,,,,,1.0162,1062.61564,None,None,1,1062.61564,None,,P046,FENCOG,1,Post,2022_Jun_01_1150,N-Back (New Version 2021),2021.1.4,120.347805
,,,,Conditions/Version_1/oneback(4)_v1.xlsx,New rule: Press 'space' when you see 1-back (i.e. the same letter as the one that appeared 1 letter ago.),V,space,,,,,,,,,0,14,14,14,0,5,5,5,,,,,,,,,,,,,,,,,,,,,,,,,,,,,,,,,,,,,,,,,,,,,,,,,,,,,,,,,,,,,,,,,,,,,1.1402,1065.764332,None,space,1,1065.764332,None,0.4045782,P046,FENCOG,1,Post,2022_Jun_01_1150,N-Back (New Version 2021),2021.1.4,120.347805
,,,,Conditions/Version_1/oneback(4)_v1.xlsx,New rule: Press 'space' when you see 1-back (i.e. the same letter as the one that appeared 1 letter ago.),v,space,,,,,,,,,0,14,14,14,0,6,6,6,,,,,,,,,,,,,,,,,,,,,,,,,,,,,,,,,,,,,,,,,,,,,,,,,,,,,,,,,,,,,,,,,,,,,1.9772,1069.753188,None,space,1,1069.753188,None,0.5356799,P046,FENCOG,1,Post,2022_Jun_01_1150,N-Back (New Version 2021),2021.1.4,120.347805
,,,,Conditions/Version_1/oneback(4)_v1.xlsx,New rule: Press 'space' when you see 1-back (i.e. the same letter as the one that appeared 1 letter ago.),p,None,,,,,,,,,0,14,14,14,0,7,7,7,,,,,,,,,,,,,,,,,,,,,,,,,,,,,,,,,,,,,,,,,,,,,,,,,,,,,,,,,,,,,,,,,,,,,1.9028,1073.669728,None,None,1,1073.669728,None,,P046,FENCOG,1,Post,2022_Jun_01_1150,N-Back (New Version 2021),2021.1.4,120.347805
,,,,Conditions/Version_1/oneback(4)_v1.xlsx,New rule: Press 'space' when you see 1-back (i.e. the same letter as the one that appeared 1 letter ago.),w,None,,,,,,,,,0,14,14,14,0,8,8,8,,,,,,,,,,,,,,,,,,,,,,,,,,,,,,,,,,,,,,,,,,,,,,,,,,,,,,,,,,,,,,,,,,,,,1.8966,1077.574844,None,None,1,1077.574844,None,,P046,FENCOG,1,Post,2022_Jun_01_1150,N-Back (New Version 2021),2021.1.4,120.347805
,,,,Conditions/Version_1/oneback(4)_v1.xlsx,New rule: Press 'space' when you see 1-back (i.e. the same letter as the one that appeared 1 letter ago.),W,space,,,,,,,,,0,14,14,14,0,9,9,9,,,,,,,,,,,,,,,,,,,,,,,,,,,,,,,,,,,,,,,,,,,,,,,,,,,,,,,,,,,,,,,,,,,,,1.103,1080.682234,None,space,1,1080.682234,None,0.5025626,P046,FENCOG,1,Post,2022_Jun_01_1150,N-Back (New Version 2021),2021.1.4,120.347805
,,,,Conditions/Version_1/oneback(4)_v1.xlsx,New rule: Press 'space' when you see 1-back (i.e. the same letter as the one that appeared 1 letter ago.),,,,,,,,,,,0,14,14,14,,,,,,,,,,,,,,,,,,,,,,,,,,,,,,,,,,,,,,,,,,,,,,,,,,,,,,,,,,,,,,,,,,,,,,,,,,,,,,,,,P046,FENCOG,1,Post,2022_Jun_01_1150,N-Back (New Version 2021),2021.1.4,120.347805
,,,,Conditions/Version_1/threeback(4)_v1.xlsx,New rule: Press 'space' when you see 3-back (i.e. the same letter as the one that appeared 3 letters ago.),A,None,,,,,,,,,0,15,15,15,0,0,0,0,,,,,,,,,,,,,,,,,,,,,,,,,,,,,,,,,,,,,,,,,,,,,,,,,,,,,,,,,,,1082.703875,None,1085.691607,None,space,1.0530878,1085.691607,None,1082.703875,None,1.9462,1088.729853,None,None,1,1088.729853,None,,P046,FENCOG,1,Post,2022_Jun_01_1150,N-Back (New Version 2021),2021.1.4,120.347805
,,,,Conditions/Version_1/threeback(4)_v1.xlsx,New rule: Press 'space' when you see 3-back (i.e. the same letter as the one that appeared 3 letters ago.),n,None,,,,,,,,,0,15,15,15,0,1,1,1,,,,,,,,,,,,,,,,,,,,,,,,,,,,,,,,,,,,,,,,,,,,,,,,,,,,,,,,,,,,,,,,,,,,,1.7292,1092.463296,None,None,1,1092.463296,None,,P046,FENCOG,1,Post,2022_Jun_01_1150,N-Back (New Version 2021),2021.1.4,120.347805
,,,,Conditions/Version_1/threeback(4)_v1.xlsx,New rule: Press 'space' when you see 3-back (i.e. the same letter as the one that appeared 3 letters ago.),g,None,,,,,,,,,0,15,15,15,0,2,2,2,,,,,,,,,,,,,,,,,,,,,,,,,,,,,,,,,,,,,,,,,,,,,,,,,,,,,,,,,,,,,,,,,,,,,1.103,1095.579864,None,None,1,1095.579864,None,,P046,FENCOG,1,Post,2022_Jun_01_1150,N-Back (New Version 2021),2021.1.4,120.347805
,,,,Conditions/Version_1/threeback(4)_v1.xlsx,New rule: Press 'space' when you see 3-back (i.e. the same letter as the one that appeared 3 letters ago.),A,space,,,,,,,,,0,15,15,15,0,3,3,3,,,,,,,,,,,,,,,,,,,,,,,,,,,,,,,,,,,,,,,,,,,,,,,,,,,,,,,,,,,,,,,,,,,,,1.3696,1098.960156,None,space,1,1098.960156,None,0.5287818,P046,FENCOG,1,Post,2022_Jun_01_1150,N-Back (New Version 2021),2021.1.4,120.347805
,,,,Conditions/Version_1/threeback(4)_v1.xlsx,New rule: Press 'space' when you see 3-back (i.e. the same letter as the one that appeared 3 letters ago.),p,None,,,,,,,,,0,15,15,15,0,4,4,4,,,,,,,,,,,,,,,,,,,,,,,,,,,,,,,,,,,,,,,,,,,,,,,,,,,,,,,,,,,,,,,,,,,,,1.5804,1102.544543,None,None,1,1102.544543,None,,P046,FENCOG,1,Post,2022_Jun_01_1150,N-Back (New Version 2021),2021.1.4,120.347805
,,,,Conditions/Version_1/threeback(4)_v1.xlsx,New rule: Press 'space' when you see 3-back (i.e. the same letter as the one that appeared 3 letters ago.),O,None,,,,,,,,,0,15,15,15,0,5,5,5,,,,,,,,,,,,,,,,,,,,,,,,,,,,,,,,,,,,,,,,,,,,,,,,,,,,,,,,,,,,,,,,,,,,,1.7726,1106.324677,None,None,1,1106.324677,None,,P046,FENCOG,1,Post,2022_Jun_01_1150,N-Back (New Version 2021),2021.1.4,120.347805
,,,,Conditions/Version_1/threeback(4)_v1.xlsx,New rule: Press 'space' when you see 3-back (i.e. the same letter as the one that appeared 3 letters ago.),a,space,,,,,,,,,0,15,15,15,0,6,6,6,,,,,,,,,,,,,,,,,,,,,,,,,,,,,,,,,,,,,,,,,,,,,,,,,,,,,,,,,,,,,,,,,,,,,1.2146,1109.542121,None,space,1,1109.542121,None,0.7465546,P046,FENCOG,1,Post,2022_Jun_01_1150,N-Back (New Version 2021),2021.1.4,120.347805
,,,,Conditions/Version_1/threeback(4)_v1.xlsx,New rule: Press 'space' when you see 3-back (i.e. the same letter as the one that appeared 3 letters ago.),p,space,,,,,,,,,0,15,15,15,0,7,7,7,,,,,,,,,,,,,,,,,,,,,,,,,,,,,,,,,,,,,,,,,,,,,,,,,,,,,,,,,,,,,,,,,,,,,1.8656,1113.41629,None,space,1,1113.41629,None,1.1926388,P046,FENCOG,1,Post,2022_Jun_01_1150,N-Back (New Version 2021),2021.1.4,120.347805
,,,,Conditions/Version_1/threeback(4)_v1.xlsx,New rule: Press 'space' when you see 3-back (i.e. the same letter as the one that appeared 3 letters ago.),x,None,,,,,,,,,0,15,15,15,0,8,8,8,,,,,,,,,,,,,,,,,,,,,,,,,,,,,,,,,,,,,,,,,,,,,,,,,,,,,,,,,,,,,,,,,,,,,1.599,1117.021506,None,None,1,1117.021506,None,,P046,FENCOG,1,Post,2022_Jun_01_1150,N-Back (New Version 2021),2021.1.4,120.347805
,,,,Conditions/Version_1/threeback(4)_v1.xlsx,New rule: Press 'space' when you see 3-back (i.e. the same letter as the one that appeared 3 letters ago.),X,None,,,,,,,,,0,15,15,15,0,9,9,9,,,,,,,,,,,,,,,,,,,,,,,,,,,,,,,,,,,,,,,,,,,,,,,,,,,,,,,,,,,,,,,,,,,,,1.1712,1120.196312,None,None,1,1120.196312,None,,P046,FENCOG,1,Post,2022_Jun_01_1150,N-Back (New Version 2021),2021.1.4,120.347805
,,,,Conditions/Version_1/threeback(4)_v1.xlsx,New rule: Press 'space' when you see 3-back (i.e. the same letter as the one that appeared 3 letters ago.),,,,,,,,,,,0,15,15,15,,,,,,,,,,,,,,,,,,,,,,,,,,,,,,,,,,,,,,,,,,,,,,,,,,,,,,,,,,,,,,,,,,,,,,,,,,,,,,,,,P046,FENCOG,1,Post,2022_Jun_01_1150,N-Back (New Version 2021),2021.1.4,120.347805
