CondFileP,InstructionsP,LettersDisplayedP,CorrectnessP,CondFile,Instructions,LettersDisplayed,Correctness,practicetrials.thisRepN,practicetrials.thisTrialN,practicetrials.thisN,practicetrials.thisIndex,InnerLoopPractice.thisRepN,InnerLoopPractice.thisTrialN,InnerLoopPractice.thisN,InnerLoopPractice.thisIndex,trials.thisRepN,trials.thisTrialN,trials.thisN,trials.thisIndex,InnerLoop.thisRepN,InnerLoop.thisTrialN,InnerLoop.thisN,InnerLoop.thisIndex,TaskVersionText.started,TaskVersionText.stopped,InstrKey1.keys,InstrKey1.rt,InstrKey1.started,InstrKey1.stopped,text.started,text.stopped,key_resp_4.keys,key_resp_4.rt,key_resp_4.started,key_resp_4.stopped,text_2.started,text_2.stopped,key_resp_3.keys,key_resp_3.rt,key_resp_3.started,key_resp_3.stopped,text_3.started,text_3.stopped,key_resp_2.keys,key_resp_2.rt,key_resp_2.started,key_resp_2.stopped,PractIn1.started,PractIn1.stopped,PractIn2.started,PractIn2.stopped,PractInstructionPass.keys,PractInstructionPass.rt,PractInstructionPass.started,PractInstructionPass.stopped,PractBlock1.started,PractBlock1.stopped,ISIjitterPractice,ISI_Pract_Fixation.started,ISI_Pract_Fixation.stopped,N_backP.started,N_backP.stopped,KeyPractice.keys,KeyPractice.corr,KeyPractice.rt,KeyPractice.started,KeyPractice.stopped,text_4.started,text_4.stopped,TransitionText.started,TransitionText.stopped,key_resp_6.keys,key_resp_6.rt,key_resp_6.started,key_resp_6.stopped,text_5.started,text_5.stopped,key_resp_5.keys,key_resp_5.rt,key_resp_5.started,key_resp_5.stopped,MainInt1.started,MainInt1.stopped,MainInt2.started,MainInt2.stopped,InstructionPass.keys,InstructionPass.rt,InstructionPass.started,InstructionPass.stopped,Blocks1.started,Blocks1.stopped,ISIjitter,N_backD.started,N_backD.stopped,key_resp.keys,key_resp.corr,key_resp.started,key_resp.stopped,key_resp.rt,participant,Study Name,Task Version (required to run),PRE/POST,date,expName,psychopyVersion,frameRate
,,,,,,,,,,,,,,,,,,,,,,,,65.2315446,None,space,3.3772383,65.7220398,None,,,,,,,,,,,,,,,,,,,,,,,,,,,,,,,,,,,,,,,,,,,,,,,,,,,,,,,,,,,,,,,,,,,,,,,P047,FENCOG,2,Post,2022_Jun_02_1152,N-Back (New Version 2021),2021.1.4,120.2948187
,,,,,,,,,,,,,,,,,,,,,,,,,,,,,,69.1344368,None,space,51.4059919,69.6293193,None,,,,,,,,,,,,,,,,,,,,,,,,,,,,,,,,,,,,,,,,,,,,,,,,,,,,,,,,,,,,,,,,,P047,FENCOG,2,Post,2022_Jun_02_1152,N-Back (New Version 2021),2021.1.4,120.2948187
,,,,,,,,,,,,,,,,,,,,,,,,,,,,,,,,,,,,121.0724506,None,space,3.646444,121.5653142,None,,,,,,,,,,,,,,,,,,,,,,,,,,,,,,,,,,,,,,,,,,,,,,,,,,,,,,,,,,,P047,FENCOG,2,Post,2022_Jun_02_1152,N-Back (New Version 2021),2021.1.4,120.2948187
,,,,,,,,,,,,,,,,,,,,,,,,,,,,,,,,,,,,,,,,,,125.2606475,None,space,11.2164658,125.7556479,None,,,,,,,,,,,,,,,,,,,,,,,,,,,,,,,,,,,,,,,,,,,,,,,,,,,,,P047,FENCOG,2,Post,2022_Jun_02_1152,N-Back (New Version 2021),2021.1.4,120.2948187
Conditions/Version_2Pr/zeroback(1)_v2.xlsx,Rule: Press 'space' when you see the letter 'x' or 'X'.,x,space,,,,,0,0,0,0,0,0,0,0,,,,,,,,,,,,,,,,,,,,,,,,,,,,,,,,,138.422224,None,141.4099302,None,space,3.778571,141.4099302,None,138.422224,None,1.365,145.2280077,None,146.6091232,None,space,1,1.770059,146.6091232,None,148.3933171,None,,,,,,,,,,,,,,,,,,,,,,,,,,,,,,,P047,FENCOG,2,Post,2022_Jun_02_1152,N-Back (New Version 2021),2021.1.4,120.2948187
Conditions/Version_2Pr/zeroback(1)_v2.xlsx,Rule: Press 'space' when you see the letter 'x' or 'X'.,R,None,,,,,0,0,0,0,0,1,1,1,,,,,,,,,,,,,,,,,,,,,,,,,,,,,,,,,,,,,,,,,,,1.315,149.8968842,None,151.2146222,None,None,1,,151.2146222,None,153.2210825,None,,,,,,,,,,,,,,,,,,,,,,,,,,,,,,,P047,FENCOG,2,Post,2022_Jun_02_1152,N-Back (New Version 2021),2021.1.4,120.2948187
Conditions/Version_2Pr/zeroback(1)_v2.xlsx,Rule: Press 'space' when you see the letter 'x' or 'X'.,p,None,,,,,0,0,0,0,0,2,2,2,,,,,,,,,,,,,,,,,,,,,,,,,,,,,,,,,,,,,,,,,,,1.34,154.7206355,None,156.0619726,None,None,1,,156.0619726,None,158.0677937,None,,,,,,,,,,,,,,,,,,,,,,,,,,,,,,,P047,FENCOG,2,Post,2022_Jun_02_1152,N-Back (New Version 2021),2021.1.4,120.2948187
Conditions/Version_2Pr/zeroback(1)_v2.xlsx,Rule: Press 'space' when you see the letter 'x' or 'X'.,O,None,,,,,0,0,0,0,0,3,3,3,,,,,,,,,,,,,,,,,,,,,,,,,,,,,,,,,,,,,,,,,,,1.265,159.5692042,None,160.8363185,None,None,1,,160.8363185,None,162.8430982,None,,,,,,,,,,,,,,,,,,,,,,,,,,,,,,,P047,FENCOG,2,Post,2022_Jun_02_1152,N-Back (New Version 2021),2021.1.4,120.2948187
Conditions/Version_2Pr/zeroback(1)_v2.xlsx,Rule: Press 'space' when you see the letter 'x' or 'X'.,i,None,,,,,0,0,0,0,0,4,4,4,,,,,,,,,,,,,,,,,,,,,,,,,,,,,,,,,,,,,,,,,,,1.54,164.3426231,None,165.8890354,None,None,1,,165.8890354,None,167.8912883,None,,,,,,,,,,,,,,,,,,,,,,,,,,,,,,,P047,FENCOG,2,Post,2022_Jun_02_1152,N-Back (New Version 2021),2021.1.4,120.2948187
Conditions/Version_2Pr/zeroback(1)_v2.xlsx,Rule: Press 'space' when you see the letter 'x' or 'X'.,U,None,,,,,0,0,0,0,0,5,5,5,,,,,,,,,,,,,,,,,,,,,,,,,,,,,,,,,,,,,,,,,,,1.09,169.3912886,None,170.4840881,None,None,1,,170.4840881,None,172.4824996,None,,,,,,,,,,,,,,,,,,,,,,,,,,,,,,,P047,FENCOG,2,Post,2022_Jun_02_1152,N-Back (New Version 2021),2021.1.4,120.2948187
Conditions/Version_2Pr/zeroback(1)_v2.xlsx,Rule: Press 'space' when you see the letter 'x' or 'X'.,N,None,,,,,0,0,0,0,0,6,6,6,,,,,,,,,,,,,,,,,,,,,,,,,,,,,,,,,,,,,,,,,,,1.49,173.9897893,None,175.486273,None,None,1,,175.486273,None,177.4937415,None,,,,,,,,,,,,,,,,,,,,,,,,,,,,,,,P047,FENCOG,2,Post,2022_Jun_02_1152,N-Back (New Version 2021),2021.1.4,120.2948187
Conditions/Version_2Pr/zeroback(1)_v2.xlsx,Rule: Press 'space' when you see the letter 'x' or 'X'.,m,None,,,,,0,0,0,0,0,7,7,7,,,,,,,,,,,,,,,,,,,,,,,,,,,,,,,,,,,,,,,,,,,1.99,178.9884921,None,180.9797846,None,None,1,,180.9797846,None,182.9789271,None,,,,,,,,,,,,,,,,,,,,,,,,,,,,,,,P047,FENCOG,2,Post,2022_Jun_02_1152,N-Back (New Version 2021),2021.1.4,120.2948187
Conditions/Version_2Pr/zeroback(1)_v2.xlsx,Rule: Press 'space' when you see the letter 'x' or 'X'.,x,space,,,,,0,0,0,0,0,8,8,8,,,,,,,,,,,,,,,,,,,,,,,,,,,,,,,,,,,,,,,,,,,2.015,184.4784301,None,186.4943112,None,space,1,0.5255093,186.4943112,None,187.0396106,None,,,,,,,,,,,,,,,,,,,,,,,,,,,,,,,P047,FENCOG,2,Post,2022_Jun_02_1152,N-Back (New Version 2021),2021.1.4,120.2948187
Conditions/Version_2Pr/zeroback(1)_v2.xlsx,Rule: Press 'space' when you see the letter 'x' or 'X'.,X,space,,,,,0,0,0,0,0,9,9,9,,,,,,,,,,,,,,,,,,,,,,,,,,,,,,,,,,,,,,,,,,,1.44,188.5442246,None,189.9945994,None,space,1,0.3284326,189.9945994,None,190.3353478,None,,,,,,,,,,,,,,,,,,,,,,,,,,,,,,,P047,FENCOG,2,Post,2022_Jun_02_1152,N-Back (New Version 2021),2021.1.4,120.2948187
Conditions/Version_2Pr/zeroback(1)_v2.xlsx,Rule: Press 'space' when you see the letter 'x' or 'X'.,,,,,,,0,0,0,0,,,,,,,,,,,,,,,,,,,,,,,,,,,,,,,,,,,,,,,,,,,,,,,,,,,,,,,,,,,,,,,,,,,,,,,,,,,,,,,,,,,,,,,,,P047,FENCOG,2,Post,2022_Jun_02_1152,N-Back (New Version 2021),2021.1.4,120.2948187
Conditions/Version_2Pr/oneback(1)_v2.xlsx,New rule: Press 'space' when you see 1-back (i.e. the same letter as the one that appeared 1 letter ago.),r,None,,,,,0,1,1,1,0,0,0,0,,,,,,,,,,,,,,,,,,,,,,,,,,,,,,,,,191.8770747,None,194.8617113,None,space,0.3655793,194.8617113,None,191.8770747,None,2.015,195.2539511,None,197.2760318,None,None,1,,197.2760318,None,199.280444,None,,,,,,,,,,,,,,,,,,,,,,,,,,,,,,,P047,FENCOG,2,Post,2022_Jun_02_1152,N-Back (New Version 2021),2021.1.4,120.2948187
Conditions/Version_2Pr/oneback(1)_v2.xlsx,New rule: Press 'space' when you see 1-back (i.e. the same letter as the one that appeared 1 letter ago.),t,None,,,,,0,1,1,1,0,1,1,1,,,,,,,,,,,,,,,,,,,,,,,,,,,,,,,,,,,,,,,,,,,1.44,200.7818805,None,202.2244226,None,None,1,,202.2244226,None,204.231004,None,,,,,,,,,,,,,,,,,,,,,,,,,,,,,,,P047,FENCOG,2,Post,2022_Jun_02_1152,N-Back (New Version 2021),2021.1.4,120.2948187
Conditions/Version_2Pr/oneback(1)_v2.xlsx,New rule: Press 'space' when you see 1-back (i.e. the same letter as the one that appeared 1 letter ago.),Y,None,,,,,0,1,1,1,0,2,2,2,,,,,,,,,,,,,,,,,,,,,,,,,,,,,,,,,,,,,,,,,,,1.315,205.7303629,None,207.0481667,None,None,1,,207.0481667,None,209.054528,None,,,,,,,,,,,,,,,,,,,,,,,,,,,,,,,P047,FENCOG,2,Post,2022_Jun_02_1152,N-Back (New Version 2021),2021.1.4,120.2948187
Conditions/Version_2Pr/oneback(1)_v2.xlsx,New rule: Press 'space' when you see 1-back (i.e. the same letter as the one that appeared 1 letter ago.),y,space,,,,,0,1,1,1,0,3,3,3,,,,,,,,,,,,,,,,,,,,,,,,,,,,,,,,,,,,,,,,,,,1.065,210.554051,None,211.6206933,None,space,1,0.4306618,211.6206933,None,212.0624051,None,,,,,,,,,,,,,,,,,,,,,,,,,,,,,,,P047,FENCOG,2,Post,2022_Jun_02_1152,N-Back (New Version 2021),2021.1.4,120.2948187
Conditions/Version_2Pr/oneback(1)_v2.xlsx,New rule: Press 'space' when you see 1-back (i.e. the same letter as the one that appeared 1 letter ago.),p,None,,,,,0,1,1,1,0,4,4,4,,,,,,,,,,,,,,,,,,,,,,,,,,,,,,,,,,,,,,,,,,,1.64,213.5614452,None,215.2061923,None,None,1,,215.2061923,None,217.2103247,None,,,,,,,,,,,,,,,,,,,,,,,,,,,,,,,P047,FENCOG,2,Post,2022_Jun_02_1152,N-Back (New Version 2021),2021.1.4,120.2948187
Conditions/Version_2Pr/oneback(1)_v2.xlsx,New rule: Press 'space' when you see 1-back (i.e. the same letter as the one that appeared 1 letter ago.),P,space,,,,,0,1,1,1,0,5,5,5,,,,,,,,,,,,,,,,,,,,,,,,,,,,,,,,,,,,,,,,,,,1.215,218.7100714,None,219.9271681,None,space,1,0.3079977,219.9271681,None,220.2439744,None,,,,,,,,,,,,,,,,,,,,,,,,,,,,,,,P047,FENCOG,2,Post,2022_Jun_02_1152,N-Back (New Version 2021),2021.1.4,120.2948187
Conditions/Version_2Pr/oneback(1)_v2.xlsx,New rule: Press 'space' when you see 1-back (i.e. the same letter as the one that appeared 1 letter ago.),e,None,,,,,0,1,1,1,0,6,6,6,,,,,,,,,,,,,,,,,,,,,,,,,,,,,,,,,,,,,,,,,,,1.915,221.750593,None,223.6686419,None,None,1,,223.6686419,None,225.674432,None,,,,,,,,,,,,,,,,,,,,,,,,,,,,,,,P047,FENCOG,2,Post,2022_Jun_02_1152,N-Back (New Version 2021),2021.1.4,120.2948187
Conditions/Version_2Pr/oneback(1)_v2.xlsx,New rule: Press 'space' when you see 1-back (i.e. the same letter as the one that appeared 1 letter ago.),r,None,,,,,0,1,1,1,0,7,7,7,,,,,,,,,,,,,,,,,,,,,,,,,,,,,,,,,,,,,,,,,,,1.89,227.1742008,None,229.0651781,None,space,0,0.5779969,229.0651781,None,229.6587408,None,,,,,,,,,,,,,,,,,,,,,,,,,,,,,,,P047,FENCOG,2,Post,2022_Jun_02_1152,N-Back (New Version 2021),2021.1.4,120.2948187
Conditions/Version_2Pr/oneback(1)_v2.xlsx,New rule: Press 'space' when you see 1-back (i.e. the same letter as the one that appeared 1 letter ago.),R,space,,,,,0,1,1,1,0,8,8,8,,,,,,,,,,,,,,,,,,,,,,,,,,,,,,,,,,,,,,,,,,,1.565,231.1647078,None,232.7306988,None,space,1,0.4245504,232.7306988,None,233.1672945,None,,,,,,,,,,,,,,,,,,,,,,,,,,,,,,,P047,FENCOG,2,Post,2022_Jun_02_1152,N-Back (New Version 2021),2021.1.4,120.2948187
Conditions/Version_2Pr/oneback(1)_v2.xlsx,New rule: Press 'space' when you see 1-back (i.e. the same letter as the one that appeared 1 letter ago.),p,None,,,,,0,1,1,1,0,9,9,9,,,,,,,,,,,,,,,,,,,,,,,,,,,,,,,,,,,,,,,,,,,1.49,234.6717641,None,236.1629028,None,None,1,,236.1629028,None,238.1647025,None,,,,,,,,,,,,,,,,,,,,,,,,,,,,,,,P047,FENCOG,2,Post,2022_Jun_02_1152,N-Back (New Version 2021),2021.1.4,120.2948187
Conditions/Version_2Pr/oneback(1)_v2.xlsx,New rule: Press 'space' when you see 1-back (i.e. the same letter as the one that appeared 1 letter ago.),,,,,,,0,1,1,1,,,,,,,,,,,,,,,,,,,,,,,,,,,,,,,,,,,,,,,,,,,,,,,,,,,,,,,,,,,,,,,,,,,,,,,,,,,,,,,,,,,,,,,,,P047,FENCOG,2,Post,2022_Jun_02_1152,N-Back (New Version 2021),2021.1.4,120.2948187
Conditions/Version_2Pr/twoback(1)_v2.xlsx,New rule: Press 'space' when you see 2-back (i.e. the same letter as the one that appeared 2 letters ago.),r,None,,,,,0,2,2,2,0,0,0,0,,,,,,,,,,,,,,,,,,,,,,,,,,,,,,,,,239.7002487,None,242.6887228,None,space,0.3624228,242.6887228,None,239.7002487,None,1.315,243.0817271,None,244.4081869,None,None,1,,244.4081869,None,246.4101555,None,,,,,,,,,,,,,,,,,,,,,,,,,,,,,,,P047,FENCOG,2,Post,2022_Jun_02_1152,N-Back (New Version 2021),2021.1.4,120.2948187
Conditions/Version_2Pr/twoback(1)_v2.xlsx,New rule: Press 'space' when you see 2-back (i.e. the same letter as the one that appeared 2 letters ago.),P,None,,,,,0,2,2,2,0,1,1,1,,,,,,,,,,,,,,,,,,,,,,,,,,,,,,,,,,,,,,,,,,,1.765,247.9096948,None,249.6762778,None,None,1,,249.6762778,None,251.6835481,None,,,,,,,,,,,,,,,,,,,,,,,,,,,,,,,P047,FENCOG,2,Post,2022_Jun_02_1152,N-Back (New Version 2021),2021.1.4,120.2948187
Conditions/Version_2Pr/twoback(1)_v2.xlsx,New rule: Press 'space' when you see 2-back (i.e. the same letter as the one that appeared 2 letters ago.),o,None,,,,,0,2,2,2,0,2,2,2,,,,,,,,,,,,,,,,,,,,,,,,,,,,,,,,,,,,,,,,,,,1.29,253.1830607,None,254.4776046,None,None,1,,254.4776046,None,256.4822807,None,,,,,,,,,,,,,,,,,,,,,,,,,,,,,,,P047,FENCOG,2,Post,2022_Jun_02_1152,N-Back (New Version 2021),2021.1.4,120.2948187
Conditions/Version_2Pr/twoback(1)_v2.xlsx,New rule: Press 'space' when you see 2-back (i.e. the same letter as the one that appeared 2 letters ago.),p,space,,,,,0,2,2,2,0,3,3,3,,,,,,,,,,,,,,,,,,,,,,,,,,,,,,,,,,,,,,,,,,,1.49,257.9817354,None,259.4733345,None,space,1,0.3780347,259.4733345,None,259.8663242,None,,,,,,,,,,,,,,,,,,,,,,,,,,,,,,,P047,FENCOG,2,Post,2022_Jun_02_1152,N-Back (New Version 2021),2021.1.4,120.2948187
Conditions/Version_2Pr/twoback(1)_v2.xlsx,New rule: Press 'space' when you see 2-back (i.e. the same letter as the one that appeared 2 letters ago.),Y,None,,,,,0,2,2,2,0,4,4,4,,,,,,,,,,,,,,,,,,,,,,,,,,,,,,,,,,,,,,,,,,,1.59,261.3724695,None,262.9635972,None,None,1,,262.9635972,None,264.9629377,None,,,,,,,,,,,,,,,,,,,,,,,,,,,,,,,P047,FENCOG,2,Post,2022_Jun_02_1152,N-Back (New Version 2021),2021.1.4,120.2948187
Conditions/Version_2Pr/twoback(1)_v2.xlsx,New rule: Press 'space' when you see 2-back (i.e. the same letter as the one that appeared 2 letters ago.),q,None,,,,,0,2,2,2,0,5,5,5,,,,,,,,,,,,,,,,,,,,,,,,,,,,,,,,,,,,,,,,,,,1.115,266.4623616,None,267.579187,None,None,1,,267.579187,None,269.5865811,None,,,,,,,,,,,,,,,,,,,,,,,,,,,,,,,P047,FENCOG,2,Post,2022_Jun_02_1152,N-Back (New Version 2021),2021.1.4,120.2948187
Conditions/Version_2Pr/twoback(1)_v2.xlsx,New rule: Press 'space' when you see 2-back (i.e. the same letter as the one that appeared 2 letters ago.),m,None,,,,,0,2,2,2,0,6,6,6,,,,,,,,,,,,,,,,,,,,,,,,,,,,,,,,,,,,,,,,,,,1.39,271.0868229,None,272.4783219,None,None,1,,272.4783219,None,274.4876572,None,,,,,,,,,,,,,,,,,,,,,,,,,,,,,,,P047,FENCOG,2,Post,2022_Jun_02_1152,N-Back (New Version 2021),2021.1.4,120.2948187
Conditions/Version_2Pr/twoback(1)_v2.xlsx,New rule: Press 'space' when you see 2-back (i.e. the same letter as the one that appeared 2 letters ago.),Q,space,,,,,0,2,2,2,0,7,7,7,,,,,,,,,,,,,,,,,,,,,,,,,,,,,,,,,,,,,,,,,,,1.64,275.9847245,None,277.63756,None,space,1,1.0537575,277.63756,None,278.7034678,None,,,,,,,,,,,,,,,,,,,,,,,,,,,,,,,P047,FENCOG,2,Post,2022_Jun_02_1152,N-Back (New Version 2021),2021.1.4,120.2948187
Conditions/Version_2Pr/twoback(1)_v2.xlsx,New rule: Press 'space' when you see 2-back (i.e. the same letter as the one that appeared 2 letters ago.),L,None,,,,,0,2,2,2,0,8,8,8,,,,,,,,,,,,,,,,,,,,,,,,,,,,,,,,,,,,,,,,,,,1.415,280.2083827,None,281.6298145,None,None,1,,281.6298145,None,283.6325038,None,,,,,,,,,,,,,,,,,,,,,,,,,,,,,,,P047,FENCOG,2,Post,2022_Jun_02_1152,N-Back (New Version 2021),2021.1.4,120.2948187
Conditions/Version_2Pr/twoback(1)_v2.xlsx,New rule: Press 'space' when you see 2-back (i.e. the same letter as the one that appeared 2 letters ago.),q,space,,,,,0,2,2,2,0,9,9,9,,,,,,,,,,,,,,,,,,,,,,,,,,,,,,,,,,,,,,,,,,,1.24,285.1320723,None,286.3734932,None,space,1,0.5336946,286.3734932,None,286.916248,None,,,,,,,,,,,,,,,,,,,,,,,,,,,,,,,P047,FENCOG,2,Post,2022_Jun_02_1152,N-Back (New Version 2021),2021.1.4,120.2948187
Conditions/Version_2Pr/twoback(1)_v2.xlsx,New rule: Press 'space' when you see 2-back (i.e. the same letter as the one that appeared 2 letters ago.),,,,,,,0,2,2,2,,,,,,,,,,,,,,,,,,,,,,,,,,,,,,,,,,,,,,,,,,,,,,,,,,,,,,,,,,,,,,,,,,,,,,,,,,,,,,,,,,,,,,,,,P047,FENCOG,2,Post,2022_Jun_02_1152,N-Back (New Version 2021),2021.1.4,120.2948187
Conditions/Version_2Pr/threeback(1)_v2.xlsx,New rule: Press 'space' when you see 3-back (i.e. the same letter as the one that appeared 3 letters ago.),u,None,,,,,0,3,3,3,0,0,0,0,,,,,,,,,,,,,,,,,,,,,,,,,,,,,,,,,288.445241,None,291.4319801,None,space,0.5075998,291.4319801,None,288.445241,None,1.415,291.9723008,None,293.3903664,None,None,1,,293.3903664,None,295.3956174,None,,,,,,,,,,,,,,,,,,,,,,,,,,,,,,,P047,FENCOG,2,Post,2022_Jun_02_1152,N-Back (New Version 2021),2021.1.4,120.2948187
Conditions/Version_2Pr/threeback(1)_v2.xlsx,New rule: Press 'space' when you see 3-back (i.e. the same letter as the one that appeared 3 letters ago.),U,None,,,,,0,3,3,3,0,1,1,1,,,,,,,,,,,,,,,,,,,,,,,,,,,,,,,,,,,,,,,,,,,1.115,296.8951016,None,298.0118759,None,None,1,,298.0118759,None,300.0109909,None,,,,,,,,,,,,,,,,,,,,,,,,,,,,,,,P047,FENCOG,2,Post,2022_Jun_02_1152,N-Back (New Version 2021),2021.1.4,120.2948187
Conditions/Version_2Pr/threeback(1)_v2.xlsx,New rule: Press 'space' when you see 3-back (i.e. the same letter as the one that appeared 3 letters ago.),p,None,,,,,0,3,3,3,0,2,2,2,,,,,,,,,,,,,,,,,,,,,,,,,,,,,,,,,,,,,,,,,,,1.865,301.510522,None,303.3815958,None,None,1,,303.3815958,None,305.3843232,None,,,,,,,,,,,,,,,,,,,,,,,,,,,,,,,P047,FENCOG,2,Post,2022_Jun_02_1152,N-Back (New Version 2021),2021.1.4,120.2948187
Conditions/Version_2Pr/threeback(1)_v2.xlsx,New rule: Press 'space' when you see 3-back (i.e. the same letter as the one that appeared 3 letters ago.),U,space,,,,,0,3,3,3,0,3,3,3,,,,,,,,,,,,,,,,,,,,,,,,,,,,,,,,,,,,,,,,,,,1.44,306.8836831,None,308.325225,None,space,1,0.4060725,308.325225,None,308.7423038,None,,,,,,,,,,,,,,,,,,,,,,,,,,,,,,,P047,FENCOG,2,Post,2022_Jun_02_1152,N-Back (New Version 2021),2021.1.4,120.2948187
Conditions/Version_2Pr/threeback(1)_v2.xlsx,New rule: Press 'space' when you see 3-back (i.e. the same letter as the one that appeared 3 letters ago.),e,None,,,,,0,3,3,3,0,4,4,4,,,,,,,,,,,,,,,,,,,,,,,,,,,,,,,,,,,,,,,,,,,1.59,310.249708,None,311.840481,None,None,1,,311.840481,None,313.8406696,None,,,,,,,,,,,,,,,,,,,,,,,,,,,,,,,P047,FENCOG,2,Post,2022_Jun_02_1152,N-Back (New Version 2021),2021.1.4,120.2948187
Conditions/Version_2Pr/threeback(1)_v2.xlsx,New rule: Press 'space' when you see 3-back (i.e. the same letter as the one that appeared 3 letters ago.),R,None,,,,,0,3,3,3,0,5,5,5,,,,,,,,,,,,,,,,,,,,,,,,,,,,,,,,,,,,,,,,,,,1.29,315.3397072,None,316.6318821,None,None,1,,316.6318821,None,318.6388542,None,,,,,,,,,,,,,,,,,,,,,,,,,,,,,,,P047,FENCOG,2,Post,2022_Jun_02_1152,N-Back (New Version 2021),2021.1.4,120.2948187
Conditions/Version_2Pr/threeback(1)_v2.xlsx,New rule: Press 'space' when you see 3-back (i.e. the same letter as the one that appeared 3 letters ago.),p,None,,,,,0,3,3,3,0,6,6,6,,,,,,,,,,,,,,,,,,,,,,,,,,,,,,,,,,,,,,,,,,,1.165,320.1382357,None,321.3060318,None,space,0,1.0812488,321.3060318,None,322.4028528,None,,,,,,,,,,,,,,,,,,,,,,,,,,,,,,,P047,FENCOG,2,Post,2022_Jun_02_1152,N-Back (New Version 2021),2021.1.4,120.2948187
Conditions/Version_2Pr/threeback(1)_v2.xlsx,New rule: Press 'space' when you see 3-back (i.e. the same letter as the one that appeared 3 letters ago.),E,space,,,,,0,3,3,3,0,7,7,7,,,,,,,,,,,,,,,,,,,,,,,,,,,,,,,,,,,,,,,,,,,1.64,323.9063984,None,325.5537555,None,space,1,0.3775732,325.5537555,None,325.948837,None,,,,,,,,,,,,,,,,,,,,,,,,,,,,,,,P047,FENCOG,2,Post,2022_Jun_02_1152,N-Back (New Version 2021),2021.1.4,120.2948187
Conditions/Version_2Pr/threeback(1)_v2.xlsx,New rule: Press 'space' when you see 3-back (i.e. the same letter as the one that appeared 3 letters ago.),k,None,,,,,0,3,3,3,0,8,8,8,,,,,,,,,,,,,,,,,,,,,,,,,,,,,,,,,,,,,,,,,,,1.09,327.4526602,None,328.5457757,None,None,1,,328.5457757,None,330.5570061,None,,,,,,,,,,,,,,,,,,,,,,,,,,,,,,,P047,FENCOG,2,Post,2022_Jun_02_1152,N-Back (New Version 2021),2021.1.4,120.2948187
Conditions/Version_2Pr/threeback(1)_v2.xlsx,New rule: Press 'space' when you see 3-back (i.e. the same letter as the one that appeared 3 letters ago.),m,None,,,,,0,3,3,3,0,9,9,9,,,,,,,,,,,,,,,,,,,,,,,,,,,,,,,,,,,,,,,,,,,1.69,332.0512683,None,333.7489824,None,space,0,1.2463043,333.7489824,None,335.0115807,None,,,,,,,,,,,,,,,,,,,,,,,,,,,,,,,P047,FENCOG,2,Post,2022_Jun_02_1152,N-Back (New Version 2021),2021.1.4,120.2948187
Conditions/Version_2Pr/threeback(1)_v2.xlsx,New rule: Press 'space' when you see 3-back (i.e. the same letter as the one that appeared 3 letters ago.),,,,,,,0,3,3,3,,,,,,,,,,,,,,,,,,,,,,,,,,,,,,,,,,,,,,,,,,,,,,,,,,,,,,,,,,,,,,,,,,,,,,,,,,,,,,,,,,,,,,,,,P047,FENCOG,2,Post,2022_Jun_02_1152,N-Back (New Version 2021),2021.1.4,120.2948187
,,,,,,,,,,,,,,,,,,,,,,,,,,,,,,,,,,,,,,,,,,,,,,,,,,,,,,,,,,,,,,,,,,,,,,336.5294291,None,space,3.8261537,337.024927,None,,,,,,,,,,,,,,,,,,,,,,,,,P047,FENCOG,2,Post,2022_Jun_02_1152,N-Back (New Version 2021),2021.1.4,120.2948187
,,,,,,,,,,,,,,,,,,,,,,,,,,,,,,,,,,,,,,,,,,,,,,,,,,,,,,,,,,,,,,,,,,,,,,,,,,,,340.8795377,None,space,2.733059,341.3741342,None,,,,,,,,,,,,,,,,,,,P047,FENCOG,2,Post,2022_Jun_02_1152,N-Back (New Version 2021),2021.1.4,120.2948187
,,,,Conditions/Version_1/zeroback(1)_v1.xlsx,Rule: Press 'space' when you see the letter 'x' or 'X'.,b,None,,,,,,,,,0,0,0,0,0,0,0,0,,,,,,,,,,,,,,,,,,,,,,,,,,,,,,,,,,,,,,,,,,,,,,,,,,,,,,,,,,,344.2171966,None,347.2069236,None,space,4.4443684,347.2069236,None,344.2171966,None,1.0162,352.7134048,None,None,1,352.7134048,None,,P047,FENCOG,2,Post,2022_Jun_02_1152,N-Back (New Version 2021),2021.1.4,120.2948187
,,,,Conditions/Version_1/zeroback(1)_v1.xlsx,Rule: Press 'space' when you see the letter 'x' or 'X'.,T,None,,,,,,,,,0,0,0,0,0,1,1,1,,,,,,,,,,,,,,,,,,,,,,,,,,,,,,,,,,,,,,,,,,,,,,,,,,,,,,,,,,,,,,,,,,,,,1.8966,356.6278956,None,None,1,356.6278956,None,,P047,FENCOG,2,Post,2022_Jun_02_1152,N-Back (New Version 2021),2021.1.4,120.2948187
,,,,Conditions/Version_1/zeroback(1)_v1.xlsx,Rule: Press 'space' when you see the letter 'x' or 'X'.,L,None,,,,,,,,,0,0,0,0,0,2,2,2,,,,,,,,,,,,,,,,,,,,,,,,,,,,,,,,,,,,,,,,,,,,,,,,,,,,,,,,,,,,,,,,,,,,,1.9338,360.5680707,None,None,1,360.5680707,None,,P047,FENCOG,2,Post,2022_Jun_02_1152,N-Back (New Version 2021),2021.1.4,120.2948187
,,,,Conditions/Version_1/zeroback(1)_v1.xlsx,Rule: Press 'space' when you see the letter 'x' or 'X'.,x,space,,,,,,,,,0,0,0,0,0,3,3,3,,,,,,,,,,,,,,,,,,,,,,,,,,,,,,,,,,,,,,,,,,,,,,,,,,,,,,,,,,,,,,,,,,,,,1.847,364.4171095,None,space,1,364.4171095,None,0.4260956,P047,FENCOG,2,Post,2022_Jun_02_1152,N-Back (New Version 2021),2021.1.4,120.2948187
,,,,Conditions/Version_1/zeroback(1)_v1.xlsx,Rule: Press 'space' when you see the letter 'x' or 'X'.,o,None,,,,,,,,,0,0,0,0,0,4,4,4,,,,,,,,,,,,,,,,,,,,,,,,,,,,,,,,,,,,,,,,,,,,,,,,,,,,,,,,,,,,,,,,,,,,,1.6052,368.0327791,None,None,1,368.0327791,None,,P047,FENCOG,2,Post,2022_Jun_02_1152,N-Back (New Version 2021),2021.1.4,120.2948187
,,,,Conditions/Version_1/zeroback(1)_v1.xlsx,Rule: Press 'space' when you see the letter 'x' or 'X'.,P,None,,,,,,,,,0,0,0,0,0,5,5,5,,,,,,,,,,,,,,,,,,,,,,,,,,,,,,,,,,,,,,,,,,,,,,,,,,,,,,,,,,,,,,,,,,,,,1.9648,371.9998066,None,None,1,371.9998066,None,,P047,FENCOG,2,Post,2022_Jun_02_1152,N-Back (New Version 2021),2021.1.4,120.2948187
,,,,Conditions/Version_1/zeroback(1)_v1.xlsx,Rule: Press 'space' when you see the letter 'x' or 'X'.,X,space,,,,,,,,,0,0,0,0,0,6,6,6,,,,,,,,,,,,,,,,,,,,,,,,,,,,,,,,,,,,,,,,,,,,,,,,,,,,,,,,,,,,,,,,,,,,,1.7974,375.8049846,None,space,1,375.8049846,None,0.4302657,P047,FENCOG,2,Post,2022_Jun_02_1152,N-Back (New Version 2021),2021.1.4,120.2948187
,,,,Conditions/Version_1/zeroback(1)_v1.xlsx,Rule: Press 'space' when you see the letter 'x' or 'X'.,n,None,,,,,,,,,0,0,0,0,0,7,7,7,,,,,,,,,,,,,,,,,,,,,,,,,,,,,,,,,,,,,,,,,,,,,,,,,,,,,,,,,,,,,,,,,,,,,1.8842,379.6959053,None,None,1,379.6959053,None,,P047,FENCOG,2,Post,2022_Jun_02_1152,N-Back (New Version 2021),2021.1.4,120.2948187
,,,,Conditions/Version_1/zeroback(1)_v1.xlsx,Rule: Press 'space' when you see the letter 'x' or 'X'.,M,None,,,,,,,,,0,0,0,0,0,8,8,8,,,,,,,,,,,,,,,,,,,,,,,,,,,,,,,,,,,,,,,,,,,,,,,,,,,,,,,,,,,,,,,,,,,,,1.0844,382.7876038,None,None,1,382.7876038,None,,P047,FENCOG,2,Post,2022_Jun_02_1152,N-Back (New Version 2021),2021.1.4,120.2948187
,,,,Conditions/Version_1/zeroback(1)_v1.xlsx,Rule: Press 'space' when you see the letter 'x' or 'X'.,a,None,,,,,,,,,0,0,0,0,0,9,9,9,,,,,,,,,,,,,,,,,,,,,,,,,,,,,,,,,,,,,,,,,,,,,,,,,,,,,,,,,,,,,,,,,,,,,1.3076,386.1022111,None,None,1,386.1022111,None,,P047,FENCOG,2,Post,2022_Jun_02_1152,N-Back (New Version 2021),2021.1.4,120.2948187
,,,,Conditions/Version_1/zeroback(1)_v1.xlsx,Rule: Press 'space' when you see the letter 'x' or 'X'.,,,,,,,,,,,0,0,0,0,,,,,,,,,,,,,,,,,,,,,,,,,,,,,,,,,,,,,,,,,,,,,,,,,,,,,,,,,,,,,,,,,,,,,,,,,,,,,,,,,P047,FENCOG,2,Post,2022_Jun_02_1152,N-Back (New Version 2021),2021.1.4,120.2948187
,,,,Conditions/Version_1/oneback(1)_v1.xlsx,New rule: Press 'space' when you see 1-back (i.e. the same letter as the one that appeared 1 letter ago.),b,None,,,,,,,,,0,1,1,1,0,0,0,0,,,,,,,,,,,,,,,,,,,,,,,,,,,,,,,,,,,,,,,,,,,,,,,,,,,,,,,,,,,388.1228285,None,391.1108002,None,space,0.4600866,391.1108002,None,388.1228285,None,1.8346,393.4430679,None,None,1,393.4430679,None,,P047,FENCOG,2,Post,2022_Jun_02_1152,N-Back (New Version 2021),2021.1.4,120.2948187
,,,,Conditions/Version_1/oneback(1)_v1.xlsx,New rule: Press 'space' when you see 1-back (i.e. the same letter as the one that appeared 1 letter ago.),p,None,,,,,,,,,0,1,1,1,0,1,1,1,,,,,,,,,,,,,,,,,,,,,,,,,,,,,,,,,,,,,,,,,,,,,,,,,,,,,,,,,,,,,,,,,,,,,1.4626,396.9232462,None,None,1,396.9232462,None,,P047,FENCOG,2,Post,2022_Jun_02_1152,N-Back (New Version 2021),2021.1.4,120.2948187
,,,,Conditions/Version_1/oneback(1)_v1.xlsx,New rule: Press 'space' when you see 1-back (i.e. the same letter as the one that appeared 1 letter ago.),M,None,,,,,,,,,0,1,1,1,0,2,2,2,,,,,,,,,,,,,,,,,,,,,,,,,,,,,,,,,,,,,,,,,,,,,,,,,,,,,,,,,,,,,,,,,,,,,1.1898,400.1148081,None,None,1,400.1148081,None,,P047,FENCOG,2,Post,2022_Jun_02_1152,N-Back (New Version 2021),2021.1.4,120.2948187
,,,,Conditions/Version_1/oneback(1)_v1.xlsx,New rule: Press 'space' when you see 1-back (i.e. the same letter as the one that appeared 1 letter ago.),M,space,,,,,,,,,0,1,1,1,0,3,3,3,,,,,,,,,,,,,,,,,,,,,,,,,,,,,,,,,,,,,,,,,,,,,,,,,,,,,,,,,,,,,,,,,,,,,1.9648,404.080002,None,space,1,404.080002,None,0.4911984,P047,FENCOG,2,Post,2022_Jun_02_1152,N-Back (New Version 2021),2021.1.4,120.2948187
,,,,Conditions/Version_1/oneback(1)_v1.xlsx,New rule: Press 'space' when you see 1-back (i.e. the same letter as the one that appeared 1 letter ago.),n,None,,,,,,,,,0,1,1,1,0,4,4,4,,,,,,,,,,,,,,,,,,,,,,,,,,,,,,,,,,,,,,,,,,,,,,,,,,,,,,,,,,,,,,,,,,,,,1.4316,407.5123693,None,None,1,407.5123693,None,,P047,FENCOG,2,Post,2022_Jun_02_1152,N-Back (New Version 2021),2021.1.4,120.2948187
,,,,Conditions/Version_1/oneback(1)_v1.xlsx,New rule: Press 'space' when you see 1-back (i.e. the same letter as the one that appeared 1 letter ago.),g,None,,,,,,,,,0,1,1,1,0,5,5,5,,,,,,,,,,,,,,,,,,,,,,,,,,,,,,,,,,,,,,,,,,,,,,,,,,,,,,,,,,,,,,,,,,,,,1.9834,411.5033243,None,None,1,411.5033243,None,,P047,FENCOG,2,Post,2022_Jun_02_1152,N-Back (New Version 2021),2021.1.4,120.2948187
,,,,Conditions/Version_1/oneback(1)_v1.xlsx,New rule: Press 'space' when you see 1-back (i.e. the same letter as the one that appeared 1 letter ago.),P,None,,,,,,,,,0,1,1,1,0,6,6,6,,,,,,,,,,,,,,,,,,,,,,,,,,,,,,,,,,,,,,,,,,,,,,,,,,,,,,,,,,,,,,,,,,,,,1.7416,415.2442901,None,None,1,415.2442901,None,,P047,FENCOG,2,Post,2022_Jun_02_1152,N-Back (New Version 2021),2021.1.4,120.2948187
,,,,Conditions/Version_1/oneback(1)_v1.xlsx,New rule: Press 'space' when you see 1-back (i.e. the same letter as the one that appeared 1 letter ago.),o,None,,,,,,,,,0,1,1,1,0,7,7,7,,,,,,,,,,,,,,,,,,,,,,,,,,,,,,,,,,,,,,,,,,,,,,,,,,,,,,,,,,,,,,,,,,,,,1.0968,418.3508876,None,None,1,418.3508876,None,,P047,FENCOG,2,Post,2022_Jun_02_1152,N-Back (New Version 2021),2021.1.4,120.2948187
,,,,Conditions/Version_1/oneback(1)_v1.xlsx,New rule: Press 'space' when you see 1-back (i.e. the same letter as the one that appeared 1 letter ago.),f,None,,,,,,,,,0,1,1,1,0,8,8,8,,,,,,,,,,,,,,,,,,,,,,,,,,,,,,,,,,,,,,,,,,,,,,,,,,,,,,,,,,,,,,,,,,,,,1.9958,422.3503622,None,None,1,422.3503622,None,,P047,FENCOG,2,Post,2022_Jun_02_1152,N-Back (New Version 2021),2021.1.4,120.2948187
,,,,Conditions/Version_1/oneback(1)_v1.xlsx,New rule: Press 'space' when you see 1-back (i.e. the same letter as the one that appeared 1 letter ago.),F,space,,,,,,,,,0,1,1,1,0,9,9,9,,,,,,,,,,,,,,,,,,,,,,,,,,,,,,,,,,,,,,,,,,,,,,,,,,,,,,,,,,,,,,,,,,,,,1.0472,425.408409,None,space,1,425.408409,None,0.554764,P047,FENCOG,2,Post,2022_Jun_02_1152,N-Back (New Version 2021),2021.1.4,120.2948187
,,,,Conditions/Version_1/oneback(1)_v1.xlsx,New rule: Press 'space' when you see 1-back (i.e. the same letter as the one that appeared 1 letter ago.),,,,,,,,,,,0,1,1,1,,,,,,,,,,,,,,,,,,,,,,,,,,,,,,,,,,,,,,,,,,,,,,,,,,,,,,,,,,,,,,,,,,,,,,,,,,,,,,,,,P047,FENCOG,2,Post,2022_Jun_02_1152,N-Back (New Version 2021),2021.1.4,120.2948187
,,,,Conditions/Version_1/twoback(1)_v1.xlsx,New rule: Press 'space' when you see 2-back (i.e. the same letter as the one that appeared 2 letters ago.),b,None,,,,,,,,,0,2,2,2,0,0,0,0,,,,,,,,,,,,,,,,,,,,,,,,,,,,,,,,,,,,,,,,,,,,,,,,,,,,,,,,,,,427.4401888,None,430.4243762,None,space,0.5067925,430.4243762,None,427.4401888,None,1.7788,432.7382539,None,None,1,432.7382539,None,,P047,FENCOG,2,Post,2022_Jun_02_1152,N-Back (New Version 2021),2021.1.4,120.2948187
,,,,Conditions/Version_1/twoback(1)_v1.xlsx,New rule: Press 'space' when you see 2-back (i.e. the same letter as the one that appeared 2 letters ago.),h,None,,,,,,,,,0,2,2,2,0,1,1,1,,,,,,,,,,,,,,,,,,,,,,,,,,,,,,,,,,,,,,,,,,,,,,,,,,,,,,,,,,,,,,,,,,,,,1.0224,435.766603,None,None,1,435.766603,None,,P047,FENCOG,2,Post,2022_Jun_02_1152,N-Back (New Version 2021),2021.1.4,120.2948187
,,,,Conditions/Version_1/twoback(1)_v1.xlsx,New rule: Press 'space' when you see 2-back (i.e. the same letter as the one that appeared 2 letters ago.),j,None,,,,,,,,,0,2,2,2,0,2,2,2,,,,,,,,,,,,,,,,,,,,,,,,,,,,,,,,,,,,,,,,,,,,,,,,,,,,,,,,,,,,,,,,,,,,,1.165,438.9380416,None,None,1,438.9380416,None,,P047,FENCOG,2,Post,2022_Jun_02_1152,N-Back (New Version 2021),2021.1.4,120.2948187
,,,,Conditions/Version_1/twoback(1)_v1.xlsx,New rule: Press 'space' when you see 2-back (i.e. the same letter as the one that appeared 2 letters ago.),H,space,,,,,,,,,0,2,2,2,0,3,3,3,,,,,,,,,,,,,,,,,,,,,,,,,,,,,,,,,,,,,,,,,,,,,,,,,,,,,,,,,,,,,,,,,,,,,1.5122,442.4616015,None,space,1,442.4616015,None,0.7892475,P047,FENCOG,2,Post,2022_Jun_02_1152,N-Back (New Version 2021),2021.1.4,120.2948187
,,,,Conditions/Version_1/twoback(1)_v1.xlsx,New rule: Press 'space' when you see 2-back (i.e. the same letter as the one that appeared 2 letters ago.),p,None,,,,,,,,,0,2,2,2,0,4,4,4,,,,,,,,,,,,,,,,,,,,,,,,,,,,,,,,,,,,,,,,,,,,,,,,,,,,,,,,,,,,,,,,,,,,,1.2828,445.7547783,None,None,1,445.7547783,None,,P047,FENCOG,2,Post,2022_Jun_02_1152,N-Back (New Version 2021),2021.1.4,120.2948187
,,,,Conditions/Version_1/twoback(1)_v1.xlsx,New rule: Press 'space' when you see 2-back (i.e. the same letter as the one that appeared 2 letters ago.),p,None,,,,,,,,,0,2,2,2,0,5,5,5,,,,,,,,,,,,,,,,,,,,,,,,,,,,,,,,,,,,,,,,,,,,,,,,,,,,,,,,,,,,,,,,,,,,,1.4564,449.2164762,None,None,1,449.2164762,None,,P047,FENCOG,2,Post,2022_Jun_02_1152,N-Back (New Version 2021),2021.1.4,120.2948187
,,,,Conditions/Version_1/twoback(1)_v1.xlsx,New rule: Press 'space' when you see 2-back (i.e. the same letter as the one that appeared 2 letters ago.),w,None,,,,,,,,,0,2,2,2,0,6,6,6,,,,,,,,,,,,,,,,,,,,,,,,,,,,,,,,,,,,,,,,,,,,,,,,,,,,,,,,,,,,,,,,,,,,,1.692,452.909116,None,None,1,452.909116,None,,P047,FENCOG,2,Post,2022_Jun_02_1152,N-Back (New Version 2021),2021.1.4,120.2948187
,,,,Conditions/Version_1/twoback(1)_v1.xlsx,New rule: Press 'space' when you see 2-back (i.e. the same letter as the one that appeared 2 letters ago.),R,None,,,,,,,,,0,2,2,2,0,7,7,7,,,,,,,,,,,,,,,,,,,,,,,,,,,,,,,,,,,,,,,,,,,,,,,,,,,,,,,,,,,,,,,,,,,,,1.4316,456.3467508,None,None,1,456.3467508,None,,P047,FENCOG,2,Post,2022_Jun_02_1152,N-Back (New Version 2021),2021.1.4,120.2948187
,,,,Conditions/Version_1/twoback(1)_v1.xlsx,New rule: Press 'space' when you see 2-back (i.e. the same letter as the one that appeared 2 letters ago.),a,None,,,,,,,,,0,2,2,2,0,8,8,8,,,,,,,,,,,,,,,,,,,,,,,,,,,,,,,,,,,,,,,,,,,,,,,,,,,,,,,,,,,,,,,,,,,,,1.4874,459.8387913,None,None,1,459.8387913,None,,P047,FENCOG,2,Post,2022_Jun_02_1152,N-Back (New Version 2021),2021.1.4,120.2948187
,,,,Conditions/Version_1/twoback(1)_v1.xlsx,New rule: Press 'space' when you see 2-back (i.e. the same letter as the one that appeared 2 letters ago.),r,space,,,,,,,,,0,2,2,2,0,9,9,9,,,,,,,,,,,,,,,,,,,,,,,,,,,,,,,,,,,,,,,,,,,,,,,,,,,,,,,,,,,,,,,,,,,,,1.3386,463.1794776,None,space,1,463.1794776,None,0.591648,P047,FENCOG,2,Post,2022_Jun_02_1152,N-Back (New Version 2021),2021.1.4,120.2948187
,,,,Conditions/Version_1/twoback(1)_v1.xlsx,New rule: Press 'space' when you see 2-back (i.e. the same letter as the one that appeared 2 letters ago.),,,,,,,,,,,0,2,2,2,,,,,,,,,,,,,,,,,,,,,,,,,,,,,,,,,,,,,,,,,,,,,,,,,,,,,,,,,,,,,,,,,,,,,,,,,,,,,,,,,P047,FENCOG,2,Post,2022_Jun_02_1152,N-Back (New Version 2021),2021.1.4,120.2948187
,,,,Conditions/Version_1/threeback(1)_v1.xlsx,New rule: Press 'space' when you see 3-back (i.e. the same letter as the one that appeared 3 letters ago.),r,None,,,,,,,,,0,3,3,3,0,0,0,0,,,,,,,,,,,,,,,,,,,,,,,,,,,,,,,,,,,,,,,,,,,,,,,,,,,,,,,,,,,465.2038162,None,468.180067,None,space,0.3988543,468.180067,None,465.2038162,None,1.2208,469.8274754,None,None,1,469.8274754,None,,P047,FENCOG,2,Post,2022_Jun_02_1152,N-Back (New Version 2021),2021.1.4,120.2948187
,,,,Conditions/Version_1/threeback(1)_v1.xlsx,New rule: Press 'space' when you see 3-back (i.e. the same letter as the one that appeared 3 letters ago.),o,None,,,,,,,,,0,3,3,3,0,1,1,1,,,,,,,,,,,,,,,,,,,,,,,,,,,,,,,,,,,,,,,,,,,,,,,,,,,,,,,,,,,,,,,,,,,,,1.5246,473.3523446,None,None,1,473.3523446,None,,P047,FENCOG,2,Post,2022_Jun_02_1152,N-Back (New Version 2021),2021.1.4,120.2948187
,,,,Conditions/Version_1/threeback(1)_v1.xlsx,New rule: Press 'space' when you see 3-back (i.e. the same letter as the one that appeared 3 letters ago.),P,None,,,,,,,,,0,3,3,3,0,2,2,2,,,,,,,,,,,,,,,,,,,,,,,,,,,,,,,,,,,,,,,,,,,,,,,,,,,,,,,,,,,,,,,,,,,,,1.3572,476.7178167,None,None,1,476.7178167,None,,P047,FENCOG,2,Post,2022_Jun_02_1152,N-Back (New Version 2021),2021.1.4,120.2948187
,,,,Conditions/Version_1/threeback(1)_v1.xlsx,New rule: Press 'space' when you see 3-back (i.e. the same letter as the one that appeared 3 letters ago.),R,space,,,,,,,,,0,3,3,3,0,3,3,3,,,,,,,,,,,,,,,,,,,,,,,,,,,,,,,,,,,,,,,,,,,,,,,,,,,,,,,,,,,,,,,,,,,,,1.6486,480.3789462,None,space,1,480.3789462,None,0.6322559,P047,FENCOG,2,Post,2022_Jun_02_1152,N-Back (New Version 2021),2021.1.4,120.2948187
,,,,Conditions/Version_1/threeback(1)_v1.xlsx,New rule: Press 'space' when you see 3-back (i.e. the same letter as the one that appeared 3 letters ago.),p,None,,,,,,,,,0,3,3,3,0,4,4,4,,,,,,,,,,,,,,,,,,,,,,,,,,,,,,,,,,,,,,,,,,,,,,,,,,,,,,,,,,,,,,,,,,,,,1.1898,483.5732072,None,None,1,483.5732072,None,,P047,FENCOG,2,Post,2022_Jun_02_1152,N-Back (New Version 2021),2021.1.4,120.2948187
,,,,Conditions/Version_1/threeback(1)_v1.xlsx,New rule: Press 'space' when you see 3-back (i.e. the same letter as the one that appeared 3 letters ago.),E,None,,,,,,,,,0,3,3,3,0,5,5,5,,,,,,,,,,,,,,,,,,,,,,,,,,,,,,,,,,,,,,,,,,,,,,,,,,,,,,,,,,,,,,,,,,,,,1.2642,486.8389385,None,None,1,486.8389385,None,,P047,FENCOG,2,Post,2022_Jun_02_1152,N-Back (New Version 2021),2021.1.4,120.2948187
,,,,Conditions/Version_1/threeback(1)_v1.xlsx,New rule: Press 'space' when you see 3-back (i.e. the same letter as the one that appeared 3 letters ago.),e,None,,,,,,,,,0,3,3,3,0,6,6,6,,,,,,,,,,,,,,,,,,,,,,,,,,,,,,,,,,,,,,,,,,,,,,,,,,,,,,,,,,,,,,,,,,,,,1.4998,490.3379432,None,space,0,490.3379432,None,0.5452115,P047,FENCOG,2,Post,2022_Jun_02_1152,N-Back (New Version 2021),2021.1.4,120.2948187
,,,,Conditions/Version_1/threeback(1)_v1.xlsx,New rule: Press 'space' when you see 3-back (i.e. the same letter as the one that appeared 3 letters ago.),m,None,,,,,,,,,0,3,3,3,0,7,7,7,,,,,,,,,,,,,,,,,,,,,,,,,,,,,,,,,,,,,,,,,,,,,,,,,,,,,,,,,,,,,,,,,,,,,1.4502,493.7938135,None,None,1,493.7938135,None,,P047,FENCOG,2,Post,2022_Jun_02_1152,N-Back (New Version 2021),2021.1.4,120.2948187
,,,,Conditions/Version_1/threeback(1)_v1.xlsx,New rule: Press 'space' when you see 3-back (i.e. the same letter as the one that appeared 3 letters ago.),n,None,,,,,,,,,0,3,3,3,0,8,8,8,,,,,,,,,,,,,,,,,,,,,,,,,,,,,,,,,,,,,,,,,,,,,,,,,,,,,,,,,,,,,,,,,,,,,1.1526,496.9535133,None,None,1,496.9535133,None,,P047,FENCOG,2,Post,2022_Jun_02_1152,N-Back (New Version 2021),2021.1.4,120.2948187
,,,,Conditions/Version_1/threeback(1)_v1.xlsx,New rule: Press 'space' when you see 3-back (i.e. the same letter as the one that appeared 3 letters ago.),e,space,,,,,,,,,0,3,3,3,0,9,9,9,,,,,,,,,,,,,,,,,,,,,,,,,,,,,,,,,,,,,,,,,,,,,,,,,,,,,,,,,,,,,,,,,,,,,1.9896,500.9520906,None,space,1,500.9520906,None,0.4195222,P047,FENCOG,2,Post,2022_Jun_02_1152,N-Back (New Version 2021),2021.1.4,120.2948187
,,,,Conditions/Version_1/threeback(1)_v1.xlsx,New rule: Press 'space' when you see 3-back (i.e. the same letter as the one that appeared 3 letters ago.),,,,,,,,,,,0,3,3,3,,,,,,,,,,,,,,,,,,,,,,,,,,,,,,,,,,,,,,,,,,,,,,,,,,,,,,,,,,,,,,,,,,,,,,,,,,,,,,,,,P047,FENCOG,2,Post,2022_Jun_02_1152,N-Back (New Version 2021),2021.1.4,120.2948187
,,,,Conditions/Version_1/oneback(2)_v1.xlsx,New rule: Press 'space' when you see 1-back (i.e. the same letter as the one that appeared 1 letter ago.),q,None,,,,,,,,,0,4,4,4,0,0,0,0,,,,,,,,,,,,,,,,,,,,,,,,,,,,,,,,,,,,,,,,,,,,,,,,,,,,,,,,,,,502.9800185,None,505.971694,None,space,0.3994089,505.971694,None,502.9800185,None,1.475,507.8838338,None,None,1,507.8838338,None,,P047,FENCOG,2,Post,2022_Jun_02_1152,N-Back (New Version 2021),2021.1.4,120.2948187
,,,,Conditions/Version_1/oneback(2)_v1.xlsx,New rule: Press 'space' when you see 1-back (i.e. the same letter as the one that appeared 1 letter ago.),Q,space,,,,,,,,,0,4,4,4,0,1,1,1,,,,,,,,,,,,,,,,,,,,,,,,,,,,,,,,,,,,,,,,,,,,,,,,,,,,,,,,,,,,,,,,,,,,,1.8284,511.7234808,None,space,1,511.7234808,None,0.2957226,P047,FENCOG,2,Post,2022_Jun_02_1152,N-Back (New Version 2021),2021.1.4,120.2948187
,,,,Conditions/Version_1/oneback(2)_v1.xlsx,New rule: Press 'space' when you see 1-back (i.e. the same letter as the one that appeared 1 letter ago.),P,None,,,,,,,,,0,4,4,4,0,2,2,2,,,,,,,,,,,,,,,,,,,,,,,,,,,,,,,,,,,,,,,,,,,,,,,,,,,,,,,,,,,,,,,,,,,,,1.9896,515.7135871,None,None,1,515.7135871,None,,P047,FENCOG,2,Post,2022_Jun_02_1152,N-Back (New Version 2021),2021.1.4,120.2948187
,,,,Conditions/Version_1/oneback(2)_v1.xlsx,New rule: Press 'space' when you see 1-back (i.e. the same letter as the one that appeared 1 letter ago.),o,None,,,,,,,,,0,4,4,4,0,3,3,3,,,,,,,,,,,,,,,,,,,,,,,,,,,,,,,,,,,,,,,,,,,,,,,,,,,,,,,,,,,,,,,,,,,,,1.8346,519.5541459,None,None,1,519.5541459,None,,P047,FENCOG,2,Post,2022_Jun_02_1152,N-Back (New Version 2021),2021.1.4,120.2948187
,,,,Conditions/Version_1/oneback(2)_v1.xlsx,New rule: Press 'space' when you see 1-back (i.e. the same letter as the one that appeared 1 letter ago.),m,None,,,,,,,,,0,4,4,4,0,4,4,4,,,,,,,,,,,,,,,,,,,,,,,,,,,,,,,,,,,,,,,,,,,,,,,,,,,,,,,,,,,,,,,,,,,,,1.1712,522.7284126,None,None,1,522.7284126,None,,P047,FENCOG,2,Post,2022_Jun_02_1152,N-Back (New Version 2021),2021.1.4,120.2948187
,,,,Conditions/Version_1/oneback(2)_v1.xlsx,New rule: Press 'space' when you see 1-back (i.e. the same letter as the one that appeared 1 letter ago.),Z,None,,,,,,,,,0,4,4,4,0,5,5,5,,,,,,,,,,,,,,,,,,,,,,,,,,,,,,,,,,,,,,,,,,,,,,,,,,,,,,,,,,,,,,,,,,,,,1.785,526.5202822,None,None,1,526.5202822,None,,P047,FENCOG,2,Post,2022_Jun_02_1152,N-Back (New Version 2021),2021.1.4,120.2948187
,,,,Conditions/Version_1/oneback(2)_v1.xlsx,New rule: Press 'space' when you see 1-back (i.e. the same letter as the one that appeared 1 letter ago.),c,None,,,,,,,,,0,4,4,4,0,6,6,6,,,,,,,,,,,,,,,,,,,,,,,,,,,,,,,,,,,,,,,,,,,,,,,,,,,,,,,,,,,,,,,,,,,,,1.1154,529.6433911,None,None,1,529.6433911,None,,P047,FENCOG,2,Post,2022_Jun_02_1152,N-Back (New Version 2021),2021.1.4,120.2948187
,,,,Conditions/Version_1/oneback(2)_v1.xlsx,New rule: Press 'space' when you see 1-back (i.e. the same letter as the one that appeared 1 letter ago.),c,space,,,,,,,,,0,4,4,4,0,7,7,7,,,,,,,,,,,,,,,,,,,,,,,,,,,,,,,,,,,,,,,,,,,,,,,,,,,,,,,,,,,,,,,,,,,,,1.8966,533.5417932,None,space,1,533.5417932,None,0.3173795,P047,FENCOG,2,Post,2022_Jun_02_1152,N-Back (New Version 2021),2021.1.4,120.2948187
,,,,Conditions/Version_1/oneback(2)_v1.xlsx,New rule: Press 'space' when you see 1-back (i.e. the same letter as the one that appeared 1 letter ago.),P,None,,,,,,,,,0,4,4,4,0,8,8,8,,,,,,,,,,,,,,,,,,,,,,,,,,,,,,,,,,,,,,,,,,,,,,,,,,,,,,,,,,,,,,,,,,,,,1.7664,537.3105943,None,None,1,537.3105943,None,,P047,FENCOG,2,Post,2022_Jun_02_1152,N-Back (New Version 2021),2021.1.4,120.2948187
,,,,Conditions/Version_1/oneback(2)_v1.xlsx,New rule: Press 'space' when you see 1-back (i.e. the same letter as the one that appeared 1 letter ago.),p,space,,,,,,,,,0,4,4,4,0,9,9,9,,,,,,,,,,,,,,,,,,,,,,,,,,,,,,,,,,,,,,,,,,,,,,,,,,,,,,,,,,,,,,,,,,,,,1.8656,541.1815302,None,space,1,541.1815302,None,0.4214443,P047,FENCOG,2,Post,2022_Jun_02_1152,N-Back (New Version 2021),2021.1.4,120.2948187
,,,,Conditions/Version_1/oneback(2)_v1.xlsx,New rule: Press 'space' when you see 1-back (i.e. the same letter as the one that appeared 1 letter ago.),,,,,,,,,,,0,4,4,4,,,,,,,,,,,,,,,,,,,,,,,,,,,,,,,,,,,,,,,,,,,,,,,,,,,,,,,,,,,,,,,,,,,,,,,,,,,,,,,,,P047,FENCOG,2,Post,2022_Jun_02_1152,N-Back (New Version 2021),2021.1.4,120.2948187
,,,,Conditions/Version_1/zeroback(2)_v1.xlsx,New rule: Press 'space' when you see the letter 'x' or 'X'.,p,None,,,,,,,,,0,5,5,5,0,0,0,0,,,,,,,,,,,,,,,,,,,,,,,,,,,,,,,,,,,,,,,,,,,,,,,,,,,,,,,,,,,543.2021483,None,546.1989484,None,space,0.3559638,546.1989484,None,543.2021483,None,1.0286,547.6211662,None,None,1,547.6211662,None,,P047,FENCOG,2,Post,2022_Jun_02_1152,N-Back (New Version 2021),2021.1.4,120.2948187
,,,,Conditions/Version_1/zeroback(2)_v1.xlsx,New rule: Press 'space' when you see the letter 'x' or 'X'.,L,None,,,,,,,,,0,5,5,5,0,1,1,1,,,,,,,,,,,,,,,,,,,,,,,,,,,,,,,,,,,,,,,,,,,,,,,,,,,,,,,,,,,,,,,,,,,,,1.32,550.9469576,None,None,1,550.9469576,None,,P047,FENCOG,2,Post,2022_Jun_02_1152,N-Back (New Version 2021),2021.1.4,120.2948187
,,,,Conditions/Version_1/zeroback(2)_v1.xlsx,New rule: Press 'space' when you see the letter 'x' or 'X'.,G,None,,,,,,,,,0,5,5,5,0,2,2,2,,,,,,,,,,,,,,,,,,,,,,,,,,,,,,,,,,,,,,,,,,,,,,,,,,,,,,,,,,,,,,,,,,,,,1.6796,554.6372935,None,None,1,554.6372935,None,,P047,FENCOG,2,Post,2022_Jun_02_1152,N-Back (New Version 2021),2021.1.4,120.2948187
,,,,Conditions/Version_1/zeroback(2)_v1.xlsx,New rule: Press 'space' when you see the letter 'x' or 'X'.,y,None,,,,,,,,,0,5,5,5,0,3,3,3,,,,,,,,,,,,,,,,,,,,,,,,,,,,,,,,,,,,,,,,,,,,,,,,,,,,,,,,,,,,,,,,,,,,,1.9586,558.6012238,None,None,1,558.6012238,None,,P047,FENCOG,2,Post,2022_Jun_02_1152,N-Back (New Version 2021),2021.1.4,120.2948187
,,,,Conditions/Version_1/zeroback(2)_v1.xlsx,New rule: Press 'space' when you see the letter 'x' or 'X'.,Y,None,,,,,,,,,0,5,5,5,0,4,4,4,,,,,,,,,,,,,,,,,,,,,,,,,,,,,,,,,,,,,,,,,,,,,,,,,,,,,,,,,,,,,,,,,,,,,1.3014,561.9083492,None,None,1,561.9083492,None,,P047,FENCOG,2,Post,2022_Jun_02_1152,N-Back (New Version 2021),2021.1.4,120.2948187
,,,,Conditions/Version_1/zeroback(2)_v1.xlsx,New rule: Press 'space' when you see the letter 'x' or 'X'.,W,None,,,,,,,,,0,5,5,5,0,5,5,5,,,,,,,,,,,,,,,,,,,,,,,,,,,,,,,,,,,,,,,,,,,,,,,,,,,,,,,,,,,,,,,,,,,,,1.9834,565.892735,None,None,1,565.892735,None,,P047,FENCOG,2,Post,2022_Jun_02_1152,N-Back (New Version 2021),2021.1.4,120.2948187
,,,,Conditions/Version_1/zeroback(2)_v1.xlsx,New rule: Press 'space' when you see the letter 'x' or 'X'.,x,space,,,,,,,,,0,5,5,5,0,6,6,6,,,,,,,,,,,,,,,,,,,,,,,,,,,,,,,,,,,,,,,,,,,,,,,,,,,,,,,,,,,,,,,,,,,,,1.3262,569.223392,None,space,1,569.223392,None,0.4759266,P047,FENCOG,2,Post,2022_Jun_02_1152,N-Back (New Version 2021),2021.1.4,120.2948187
,,,,Conditions/Version_1/zeroback(2)_v1.xlsx,New rule: Press 'space' when you see the letter 'x' or 'X'.,X,space,,,,,,,,,0,5,5,5,0,7,7,7,,,,,,,,,,,,,,,,,,,,,,,,,,,,,,,,,,,,,,,,,,,,,,,,,,,,,,,,,,,,,,,,,,,,,1.1836,572.4063699,None,space,1,572.4063699,None,0.4768181,P047,FENCOG,2,Post,2022_Jun_02_1152,N-Back (New Version 2021),2021.1.4,120.2948187
,,,,Conditions/Version_1/zeroback(2)_v1.xlsx,New rule: Press 'space' when you see the letter 'x' or 'X'.,p,None,,,,,,,,,0,5,5,5,0,8,8,8,,,,,,,,,,,,,,,,,,,,,,,,,,,,,,,,,,,,,,,,,,,,,,,,,,,,,,,,,,,,,,,,,,,,,1.6114,576.0295183,None,None,1,576.0295183,None,,P047,FENCOG,2,Post,2022_Jun_02_1152,N-Back (New Version 2021),2021.1.4,120.2948187
,,,,Conditions/Version_1/zeroback(2)_v1.xlsx,New rule: Press 'space' when you see the letter 'x' or 'X'.,h,None,,,,,,,,,0,5,5,5,0,9,9,9,,,,,,,,,,,,,,,,,,,,,,,,,,,,,,,,,,,,,,,,,,,,,,,,,,,,,,,,,,,,,,,,,,,,,1.0596,579.0947925,None,None,1,579.0947925,None,,P047,FENCOG,2,Post,2022_Jun_02_1152,N-Back (New Version 2021),2021.1.4,120.2948187
,,,,Conditions/Version_1/zeroback(2)_v1.xlsx,New rule: Press 'space' when you see the letter 'x' or 'X'.,,,,,,,,,,,0,5,5,5,,,,,,,,,,,,,,,,,,,,,,,,,,,,,,,,,,,,,,,,,,,,,,,,,,,,,,,,,,,,,,,,,,,,,,,,,,,,,,,,,P047,FENCOG,2,Post,2022_Jun_02_1152,N-Back (New Version 2021),2021.1.4,120.2948187
,,,,Conditions/Version_1/threeback(2)_v1.xlsx,New rule: Press 'space' when you see 3-back (i.e. the same letter as the one that appeared 3 letters ago.),q,None,,,,,,,,,0,6,6,6,0,0,0,0,,,,,,,,,,,,,,,,,,,,,,,,,,,,,,,,,,,,,,,,,,,,,,,,,,,,,,,,,,,581.1171687,None,584.1051312,None,space,0.4977518,584.1051312,None,581.1171687,None,1.0162,585.6515584,None,None,1,585.6515584,None,,P047,FENCOG,2,Post,2022_Jun_02_1152,N-Back (New Version 2021),2021.1.4,120.2948187
,,,,Conditions/Version_1/threeback(2)_v1.xlsx,New rule: Press 'space' when you see 3-back (i.e. the same letter as the one that appeared 3 letters ago.),Y,None,,,,,,,,,0,6,6,6,0,1,1,1,,,,,,,,,,,,,,,,,,,,,,,,,,,,,,,,,,,,,,,,,,,,,,,,,,,,,,,,,,,,,,,,,,,,,1.8408,589.4926044,None,None,1,589.4926044,None,,P047,FENCOG,2,Post,2022_Jun_02_1152,N-Back (New Version 2021),2021.1.4,120.2948187
,,,,Conditions/Version_1/threeback(2)_v1.xlsx,New rule: Press 'space' when you see 3-back (i.e. the same letter as the one that appeared 3 letters ago.),p,None,,,,,,,,,0,6,6,6,0,2,2,2,,,,,,,,,,,,,,,,,,,,,,,,,,,,,,,,,,,,,,,,,,,,,,,,,,,,,,,,,,,,,,,,,,,,,1.6114,593.1077931,None,None,1,593.1077931,None,,P047,FENCOG,2,Post,2022_Jun_02_1152,N-Back (New Version 2021),2021.1.4,120.2948187
,,,,Conditions/Version_1/threeback(2)_v1.xlsx,New rule: Press 'space' when you see 3-back (i.e. the same letter as the one that appeared 3 letters ago.),p,None,,,,,,,,,0,6,6,6,0,3,3,3,,,,,,,,,,,,,,,,,,,,,,,,,,,,,,,,,,,,,,,,,,,,,,,,,,,,,,,,,,,,,,,,,,,,,1.289,596.398152,None,None,1,596.398152,None,,P047,FENCOG,2,Post,2022_Jun_02_1152,N-Back (New Version 2021),2021.1.4,120.2948187
,,,,Conditions/Version_1/threeback(2)_v1.xlsx,New rule: Press 'space' when you see 3-back (i.e. the same letter as the one that appeared 3 letters ago.),y,space,,,,,,,,,0,6,6,6,0,4,4,4,,,,,,,,,,,,,,,,,,,,,,,,,,,,,,,,,,,,,,,,,,,,,,,,,,,,,,,,,,,,,,,,,,,,,1.785,600.1886518,None,space,1,600.1886518,None,0.5743401,P047,FENCOG,2,Post,2022_Jun_02_1152,N-Back (New Version 2021),2021.1.4,120.2948187
,,,,Conditions/Version_1/threeback(2)_v1.xlsx,New rule: Press 'space' when you see 3-back (i.e. the same letter as the one that appeared 3 letters ago.),u,None,,,,,,,,,0,6,6,6,0,5,5,5,,,,,,,,,,,,,,,,,,,,,,,,,,,,,,,,,,,,,,,,,,,,,,,,,,,,,,,,,,,,,,,,,,,,,1.3572,603.5549207,None,None,1,603.5549207,None,,P047,FENCOG,2,Post,2022_Jun_02_1152,N-Back (New Version 2021),2021.1.4,120.2948187
,,,,Conditions/Version_1/threeback(2)_v1.xlsx,New rule: Press 'space' when you see 3-back (i.e. the same letter as the one that appeared 3 letters ago.),P,space,,,,,,,,,0,6,6,6,0,6,6,6,,,,,,,,,,,,,,,,,,,,,,,,,,,,,,,,,,,,,,,,,,,,,,,,,,,,,,,,,,,,,,,,,,,,,1.506,607.0716608,None,space,1,607.0716608,None,0.5234257,P047,FENCOG,2,Post,2022_Jun_02_1152,N-Back (New Version 2021),2021.1.4,120.2948187
,,,,Conditions/Version_1/threeback(2)_v1.xlsx,New rule: Press 'space' when you see 3-back (i.e. the same letter as the one that appeared 3 letters ago.),a,None,,,,,,,,,0,6,6,6,0,7,7,7,,,,,,,,,,,,,,,,,,,,,,,,,,,,,,,,,,,,,,,,,,,,,,,,,,,,,,,,,,,,,,,,,,,,,1.7416,610.8226671,None,None,1,610.8226671,None,,P047,FENCOG,2,Post,2022_Jun_02_1152,N-Back (New Version 2021),2021.1.4,120.2948187
,,,,Conditions/Version_1/threeback(2)_v1.xlsx,New rule: Press 'space' when you see 3-back (i.e. the same letter as the one that appeared 3 letters ago.),U,space,,,,,,,,,0,6,6,6,0,8,8,8,,,,,,,,,,,,,,,,,,,,,,,,,,,,,,,,,,,,,,,,,,,,,,,,,,,,,,,,,,,,,,,,,,,,,1.7478,614.5771633,None,space,1,614.5771633,None,0.3538801,P047,FENCOG,2,Post,2022_Jun_02_1152,N-Back (New Version 2021),2021.1.4,120.2948187
,,,,Conditions/Version_1/threeback(2)_v1.xlsx,New rule: Press 'space' when you see 3-back (i.e. the same letter as the one that appeared 3 letters ago.),q,None,,,,,,,,,0,6,6,6,0,9,9,9,,,,,,,,,,,,,,,,,,,,,,,,,,,,,,,,,,,,,,,,,,,,,,,,,,,,,,,,,,,,,,,,,,,,,1.6424,618.233467,None,None,1,618.233467,None,,P047,FENCOG,2,Post,2022_Jun_02_1152,N-Back (New Version 2021),2021.1.4,120.2948187
,,,,Conditions/Version_1/threeback(2)_v1.xlsx,New rule: Press 'space' when you see 3-back (i.e. the same letter as the one that appeared 3 letters ago.),,,,,,,,,,,0,6,6,6,,,,,,,,,,,,,,,,,,,,,,,,,,,,,,,,,,,,,,,,,,,,,,,,,,,,,,,,,,,,,,,,,,,,,,,,,,,,,,,,,P047,FENCOG,2,Post,2022_Jun_02_1152,N-Back (New Version 2021),2021.1.4,120.2948187
,,,,Conditions/Version_1/twoback(2)_v1.xlsx,New rule: Press 'space' when you see 2-back (i.e. the same letter as the one that appeared 2 letters ago.),q,None,,,,,,,,,0,7,7,7,0,0,0,0,,,,,,,,,,,,,,,,,,,,,,,,,,,,,,,,,,,,,,,,,,,,,,,,,,,,,,,,,,,620.2567973,None,623.2426735,None,space,0.4167651,623.2426735,None,620.2567973,None,1.072,624.7647899,None,None,1,624.7647899,None,,P047,FENCOG,2,Post,2022_Jun_02_1152,N-Back (New Version 2021),2021.1.4,120.2948187
,,,,Conditions/Version_1/twoback(2)_v1.xlsx,New rule: Press 'space' when you see 2-back (i.e. the same letter as the one that appeared 2 letters ago.),r,None,,,,,,,,,0,7,7,7,0,1,1,1,,,,,,,,,,,,,,,,,,,,,,,,,,,,,,,,,,,,,,,,,,,,,,,,,,,,,,,,,,,,,,,,,,,,,1.7974,628.5645202,None,None,1,628.5645202,None,,P047,FENCOG,2,Post,2022_Jun_02_1152,N-Back (New Version 2021),2021.1.4,120.2948187
,,,,Conditions/Version_1/twoback(2)_v1.xlsx,New rule: Press 'space' when you see 2-back (i.e. the same letter as the one that appeared 2 letters ago.),q,space,,,,,,,,,0,7,7,7,0,2,2,2,,,,,,,,,,,,,,,,,,,,,,,,,,,,,,,,,,,,,,,,,,,,,,,,,,,,,,,,,,,,,,,,,,,,,1.9772,632.5485558,None,space,1,632.5485558,None,0.3742701,P047,FENCOG,2,Post,2022_Jun_02_1152,N-Back (New Version 2021),2021.1.4,120.2948187
,,,,Conditions/Version_1/twoback(2)_v1.xlsx,New rule: Press 'space' when you see 2-back (i.e. the same letter as the one that appeared 2 letters ago.),P,None,,,,,,,,,0,7,7,7,0,3,3,3,,,,,,,,,,,,,,,,,,,,,,,,,,,,,,,,,,,,,,,,,,,,,,,,,,,,,,,,,,,,,,,,,,,,,1.5804,636.1374147,None,None,1,636.1374147,None,,P047,FENCOG,2,Post,2022_Jun_02_1152,N-Back (New Version 2021),2021.1.4,120.2948187
,,,,Conditions/Version_1/twoback(2)_v1.xlsx,New rule: Press 'space' when you see 2-back (i.e. the same letter as the one that appeared 2 letters ago.),p,None,,,,,,,,,0,7,7,7,0,4,4,4,,,,,,,,,,,,,,,,,,,,,,,,,,,,,,,,,,,,,,,,,,,,,,,,,,,,,,,,,,,,,,,,,,,,,1.2146,639.3630767,None,space,0,639.3630767,None,1.5519649,P047,FENCOG,2,Post,2022_Jun_02_1152,N-Back (New Version 2021),2021.1.4,120.2948187
,,,,Conditions/Version_1/twoback(2)_v1.xlsx,New rule: Press 'space' when you see 2-back (i.e. the same letter as the one that appeared 2 letters ago.),H,None,,,,,,,,,0,7,7,7,0,5,5,5,,,,,,,,,,,,,,,,,,,,,,,,,,,,,,,,,,,,,,,,,,,,,,,,,,,,,,,,,,,,,,,,,,,,,1.816,643.1892959,None,None,1,643.1892959,None,,P047,FENCOG,2,Post,2022_Jun_02_1152,N-Back (New Version 2021),2021.1.4,120.2948187
,,,,Conditions/Version_1/twoback(2)_v1.xlsx,New rule: Press 'space' when you see 2-back (i.e. the same letter as the one that appeared 2 letters ago.),g,None,,,,,,,,,0,7,7,7,0,6,6,6,,,,,,,,,,,,,,,,,,,,,,,,,,,,,,,,,,,,,,,,,,,,,,,,,,,,,,,,,,,,,,,,,,,,,1.2394,646.4423608,None,None,1,646.4423608,None,,P047,FENCOG,2,Post,2022_Jun_02_1152,N-Back (New Version 2021),2021.1.4,120.2948187
,,,,Conditions/Version_1/twoback(2)_v1.xlsx,New rule: Press 'space' when you see 2-back (i.e. the same letter as the one that appeared 2 letters ago.),j,None,,,,,,,,,0,7,7,7,0,7,7,7,,,,,,,,,,,,,,,,,,,,,,,,,,,,,,,,,,,,,,,,,,,,,,,,,,,,,,,,,,,,,,,,,,,,,1.971,650.4276198,None,None,1,650.4276198,None,,P047,FENCOG,2,Post,2022_Jun_02_1152,N-Back (New Version 2021),2021.1.4,120.2948187
,,,,Conditions/Version_1/twoback(2)_v1.xlsx,New rule: Press 'space' when you see 2-back (i.e. the same letter as the one that appeared 2 letters ago.),g,space,,,,,,,,,0,7,7,7,0,8,8,8,,,,,,,,,,,,,,,,,,,,,,,,,,,,,,,,,,,,,,,,,,,,,,,,,,,,,,,,,,,,,,,,,,,,,1.6982,654.1312089,None,space,1,654.1312089,None,0.3998626,P047,FENCOG,2,Post,2022_Jun_02_1152,N-Back (New Version 2021),2021.1.4,120.2948187
,,,,Conditions/Version_1/twoback(2)_v1.xlsx,New rule: Press 'space' when you see 2-back (i.e. the same letter as the one that appeared 2 letters ago.),G,None,,,,,,,,,0,7,7,7,0,9,9,9,,,,,,,,,,,,,,,,,,,,,,,,,,,,,,,,,,,,,,,,,,,,,,,,,,,,,,,,,,,,,,,,,,,,,1.258,657.3892026,None,None,1,657.3892026,None,,P047,FENCOG,2,Post,2022_Jun_02_1152,N-Back (New Version 2021),2021.1.4,120.2948187
,,,,Conditions/Version_1/twoback(2)_v1.xlsx,New rule: Press 'space' when you see 2-back (i.e. the same letter as the one that appeared 2 letters ago.),,,,,,,,,,,0,7,7,7,,,,,,,,,,,,,,,,,,,,,,,,,,,,,,,,,,,,,,,,,,,,,,,,,,,,,,,,,,,,,,,,,,,,,,,,,,,,,,,,,P047,FENCOG,2,Post,2022_Jun_02_1152,N-Back (New Version 2021),2021.1.4,120.2948187
,,,,Conditions/Version_1/threeback(3)_v1.xlsx,New rule: Press 'space' when you see 3-back (i.e. the same letter as the one that appeared 3 letters ago.),w,None,,,,,,,,,0,8,8,8,0,0,0,0,,,,,,,,,,,,,,,,,,,,,,,,,,,,,,,,,,,,,,,,,,,,,,,,,,,,,,,,,,,659.4174151,None,662.4064523,None,space,0.4445635,662.4064523,None,659.4174151,None,1.9524,664.8385309,None,None,1,664.8385309,None,,P047,FENCOG,2,Post,2022_Jun_02_1152,N-Back (New Version 2021),2021.1.4,120.2948187
,,,,Conditions/Version_1/threeback(3)_v1.xlsx,New rule: Press 'space' when you see 3-back (i.e. the same letter as the one that appeared 3 letters ago.),p,None,,,,,,,,,0,8,8,8,0,1,1,1,,,,,,,,,,,,,,,,,,,,,,,,,,,,,,,,,,,,,,,,,,,,,,,,,,,,,,,,,,,,,,,,,,,,,1.041,667.8875765,None,None,1,667.8875765,None,,P047,FENCOG,2,Post,2022_Jun_02_1152,N-Back (New Version 2021),2021.1.4,120.2948187
,,,,Conditions/Version_1/threeback(3)_v1.xlsx,New rule: Press 'space' when you see 3-back (i.e. the same letter as the one that appeared 3 letters ago.),P,None,,,,,,,,,0,8,8,8,0,2,2,2,,,,,,,,,,,,,,,,,,,,,,,,,,,,,,,,,,,,,,,,,,,,,,,,,,,,,,,,,,,,,,,,,,,,,1.0658,670.960312,None,None,1,670.960312,None,,P047,FENCOG,2,Post,2022_Jun_02_1152,N-Back (New Version 2021),2021.1.4,120.2948187
,,,,Conditions/Version_1/threeback(3)_v1.xlsx,New rule: Press 'space' when you see 3-back (i.e. the same letter as the one that appeared 3 letters ago.),i,None,,,,,,,,,0,8,8,8,0,3,3,3,,,,,,,,,,,,,,,,,,,,,,,,,,,,,,,,,,,,,,,,,,,,,,,,,,,,,,,,,,,,,,,,,,,,,1.9028,674.8768657,None,None,1,674.8768657,None,,P047,FENCOG,2,Post,2022_Jun_02_1152,N-Back (New Version 2021),2021.1.4,120.2948187
,,,,Conditions/Version_1/threeback(3)_v1.xlsx,New rule: Press 'space' when you see 3-back (i.e. the same letter as the one that appeared 3 letters ago.),f,None,,,,,,,,,0,8,8,8,0,4,4,4,,,,,,,,,,,,,,,,,,,,,,,,,,,,,,,,,,,,,,,,,,,,,,,,,,,,,,,,,,,,,,,,,,,,,1.1526,678.0323843,None,None,1,678.0323843,None,,P047,FENCOG,2,Post,2022_Jun_02_1152,N-Back (New Version 2021),2021.1.4,120.2948187
,,,,Conditions/Version_1/threeback(3)_v1.xlsx,New rule: Press 'space' when you see 3-back (i.e. the same letter as the one that appeared 3 letters ago.),o,None,,,,,,,,,0,8,8,8,0,5,5,5,,,,,,,,,,,,,,,,,,,,,,,,,,,,,,,,,,,,,,,,,,,,,,,,,,,,,,,,,,,,,,,,,,,,,1.6672,681.6991332,None,None,1,681.6991332,None,,P047,FENCOG,2,Post,2022_Jun_02_1152,N-Back (New Version 2021),2021.1.4,120.2948187
,,,,Conditions/Version_1/threeback(3)_v1.xlsx,New rule: Press 'space' when you see 3-back (i.e. the same letter as the one that appeared 3 letters ago.),w,None,,,,,,,,,0,8,8,8,0,6,6,6,,,,,,,,,,,,,,,,,,,,,,,,,,,,,,,,,,,,,,,,,,,,,,,,,,,,,,,,,,,,,,,,,,,,,1.1836,684.8886326,None,space,0,684.8886326,None,0.4902042,P047,FENCOG,2,Post,2022_Jun_02_1152,N-Back (New Version 2021),2021.1.4,120.2948187
,,,,Conditions/Version_1/threeback(3)_v1.xlsx,New rule: Press 'space' when you see 3-back (i.e. the same letter as the one that appeared 3 letters ago.),F,space,,,,,,,,,0,8,8,8,0,7,7,7,,,,,,,,,,,,,,,,,,,,,,,,,,,,,,,,,,,,,,,,,,,,,,,,,,,,,,,,,,,,,,,,,,,,,1.7602,688.6549426,None,space,1,688.6549426,None,1.0997852,P047,FENCOG,2,Post,2022_Jun_02_1152,N-Back (New Version 2021),2021.1.4,120.2948187
,,,,Conditions/Version_1/threeback(3)_v1.xlsx,New rule: Press 'space' when you see 3-back (i.e. the same letter as the one that appeared 3 letters ago.),p,None,,,,,,,,,0,8,8,8,0,8,8,8,,,,,,,,,,,,,,,,,,,,,,,,,,,,,,,,,,,,,,,,,,,,,,,,,,,,,,,,,,,,,,,,,,,,,1.1774,691.837033,None,None,1,691.837033,None,,P047,FENCOG,2,Post,2022_Jun_02_1152,N-Back (New Version 2021),2021.1.4,120.2948187
,,,,Conditions/Version_1/threeback(3)_v1.xlsx,New rule: Press 'space' when you see 3-back (i.e. the same letter as the one that appeared 3 letters ago.),W,space,,,,,,,,,0,8,8,8,0,9,9,9,,,,,,,,,,,,,,,,,,,,,,,,,,,,,,,,,,,,,,,,,,,,,,,,,,,,,,,,,,,,,,,,,,,,,1.3262,695.1729667,None,None,0,695.1729667,None,,P047,FENCOG,2,Post,2022_Jun_02_1152,N-Back (New Version 2021),2021.1.4,120.2948187
,,,,Conditions/Version_1/threeback(3)_v1.xlsx,New rule: Press 'space' when you see 3-back (i.e. the same letter as the one that appeared 3 letters ago.),,,,,,,,,,,0,8,8,8,,,,,,,,,,,,,,,,,,,,,,,,,,,,,,,,,,,,,,,,,,,,,,,,,,,,,,,,,,,,,,,,,,,,,,,,,,,,,,,,,P047,FENCOG,2,Post,2022_Jun_02_1152,N-Back (New Version 2021),2021.1.4,120.2948187
,,,,Conditions/Version_1/zeroback(3)_v1.xlsx,New rule: Press 'space' when you see the letter 'x' or 'X'.,X,space,,,,,,,,,0,9,9,9,0,0,0,0,,,,,,,,,,,,,,,,,,,,,,,,,,,,,,,,,,,,,,,,,,,,,,,,,,,,,,,,,,,697.2153599,None,700.1942401,None,space,6.3128046,700.1942401,None,697.2153599,None,1.3076,707.8486,None,space,1,707.8486,None,0.5624436,P047,FENCOG,2,Post,2022_Jun_02_1152,N-Back (New Version 2021),2021.1.4,120.2948187
,,,,Conditions/Version_1/zeroback(3)_v1.xlsx,New rule: Press 'space' when you see the letter 'x' or 'X'.,B,None,,,,,,,,,0,9,9,9,0,1,1,1,,,,,,,,,,,,,,,,,,,,,,,,,,,,,,,,,,,,,,,,,,,,,,,,,,,,,,,,,,,,,,,,,,,,,1.2456,711.098542,None,None,1,711.098542,None,,P047,FENCOG,2,Post,2022_Jun_02_1152,N-Back (New Version 2021),2021.1.4,120.2948187
,,,,Conditions/Version_1/zeroback(3)_v1.xlsx,New rule: Press 'space' when you see the letter 'x' or 'X'.,m,None,,,,,,,,,0,9,9,9,0,2,2,2,,,,,,,,,,,,,,,,,,,,,,,,,,,,,,,,,,,,,,,,,,,,,,,,,,,,,,,,,,,,,,,,,,,,,1.3882,714.4966859,None,None,1,714.4966859,None,,P047,FENCOG,2,Post,2022_Jun_02_1152,N-Back (New Version 2021),2021.1.4,120.2948187
,,,,Conditions/Version_1/zeroback(3)_v1.xlsx,New rule: Press 'space' when you see the letter 'x' or 'X'.,m,None,,,,,,,,,0,9,9,9,0,3,3,3,,,,,,,,,,,,,,,,,,,,,,,,,,,,,,,,,,,,,,,,,,,,,,,,,,,,,,,,,,,,,,,,,,,,,1.3758,717.8799661,None,None,1,717.8799661,None,,P047,FENCOG,2,Post,2022_Jun_02_1152,N-Back (New Version 2021),2021.1.4,120.2948187
,,,,Conditions/Version_1/zeroback(3)_v1.xlsx,New rule: Press 'space' when you see the letter 'x' or 'X'.,o,None,,,,,,,,,0,9,9,9,0,4,4,4,,,,,,,,,,,,,,,,,,,,,,,,,,,,,,,,,,,,,,,,,,,,,,,,,,,,,,,,,,,,,,,,,,,,,1.9276,721.8200507,None,None,1,721.8200507,None,,P047,FENCOG,2,Post,2022_Jun_02_1152,N-Back (New Version 2021),2021.1.4,120.2948187
,,,,Conditions/Version_1/zeroback(3)_v1.xlsx,New rule: Press 'space' when you see the letter 'x' or 'X'.,p,None,,,,,,,,,0,9,9,9,0,5,5,5,,,,,,,,,,,,,,,,,,,,,,,,,,,,,,,,,,,,,,,,,,,,,,,,,,,,,,,,,,,,,,,,,,,,,1.2208,725.0458673,None,None,1,725.0458673,None,,P047,FENCOG,2,Post,2022_Jun_02_1152,N-Back (New Version 2021),2021.1.4,120.2948187
,,,,Conditions/Version_1/zeroback(3)_v1.xlsx,New rule: Press 'space' when you see the letter 'x' or 'X'.,G,None,,,,,,,,,0,9,9,9,0,6,6,6,,,,,,,,,,,,,,,,,,,,,,,,,,,,,,,,,,,,,,,,,,,,,,,,,,,,,,,,,,,,,,,,,,,,,1.6486,728.7015069,None,None,1,728.7015069,None,,P047,FENCOG,2,Post,2022_Jun_02_1152,N-Back (New Version 2021),2021.1.4,120.2948187
,,,,Conditions/Version_1/zeroback(3)_v1.xlsx,New rule: Press 'space' when you see the letter 'x' or 'X'.,X,space,,,,,,,,,0,9,9,9,0,7,7,7,,,,,,,,,,,,,,,,,,,,,,,,,,,,,,,,,,,,,,,,,,,,,,,,,,,,,,,,,,,,,,,,,,,,,1.1216,731.8336583,None,space,1,731.8336583,None,0.4170721,P047,FENCOG,2,Post,2022_Jun_02_1152,N-Back (New Version 2021),2021.1.4,120.2948187
,,,,Conditions/Version_1/zeroback(3)_v1.xlsx,New rule: Press 'space' when you see the letter 'x' or 'X'.,p,None,,,,,,,,,0,9,9,9,0,8,8,8,,,,,,,,,,,,,,,,,,,,,,,,,,,,,,,,,,,,,,,,,,,,,,,,,,,,,,,,,,,,,,,,,,,,,1.7726,735.6072743,None,None,1,735.6072743,None,,P047,FENCOG,2,Post,2022_Jun_02_1152,N-Back (New Version 2021),2021.1.4,120.2948187
,,,,Conditions/Version_1/zeroback(3)_v1.xlsx,New rule: Press 'space' when you see the letter 'x' or 'X'.,x,space,,,,,,,,,0,9,9,9,0,9,9,9,,,,,,,,,,,,,,,,,,,,,,,,,,,,,,,,,,,,,,,,,,,,,,,,,,,,,,,,,,,,,,,,,,,,,1.1402,738.7490869,None,space,1,738.7490869,None,0.5175665,P047,FENCOG,2,Post,2022_Jun_02_1152,N-Back (New Version 2021),2021.1.4,120.2948187
,,,,Conditions/Version_1/zeroback(3)_v1.xlsx,New rule: Press 'space' when you see the letter 'x' or 'X'.,,,,,,,,,,,0,9,9,9,,,,,,,,,,,,,,,,,,,,,,,,,,,,,,,,,,,,,,,,,,,,,,,,,,,,,,,,,,,,,,,,,,,,,,,,,,,,,,,,,P047,FENCOG,2,Post,2022_Jun_02_1152,N-Back (New Version 2021),2021.1.4,120.2948187
,,,,Conditions/Version_1/twoback(3)_v1.xlsx,New rule: Press 'space' when you see 2-back (i.e. the same letter as the one that appeared 2 letters ago.),e,None,,,,,,,,,0,10,10,10,0,0,0,0,,,,,,,,,,,,,,,,,,,,,,,,,,,,,,,,,,,,,,,,,,,,,,,,,,,,,,,,,,,740.7782484,None,743.7656999,None,space,3.6449891,743.7656999,None,740.7782484,None,1.196,748.6375007,None,None,1,748.6375007,None,,P047,FENCOG,2,Post,2022_Jun_02_1152,N-Back (New Version 2021),2021.1.4,120.2948187
,,,,Conditions/Version_1/twoback(3)_v1.xlsx,New rule: Press 'space' when you see 2-back (i.e. the same letter as the one that appeared 2 letters ago.),o,None,,,,,,,,,0,10,10,10,0,1,1,1,,,,,,,,,,,,,,,,,,,,,,,,,,,,,,,,,,,,,,,,,,,,,,,,,,,,,,,,,,,,,,,,,,,,,1.3758,752.0195514,None,None,1,752.0195514,None,,P047,FENCOG,2,Post,2022_Jun_02_1152,N-Back (New Version 2021),2021.1.4,120.2948187
,,,,Conditions/Version_1/twoback(3)_v1.xlsx,New rule: Press 'space' when you see 2-back (i.e. the same letter as the one that appeared 2 letters ago.),P,None,,,,,,,,,0,10,10,10,0,2,2,2,,,,,,,,,,,,,,,,,,,,,,,,,,,,,,,,,,,,,,,,,,,,,,,,,,,,,,,,,,,,,,,,,,,,,1.506,755.5337053,None,None,1,755.5337053,None,,P047,FENCOG,2,Post,2022_Jun_02_1152,N-Back (New Version 2021),2021.1.4,120.2948187
,,,,Conditions/Version_1/twoback(3)_v1.xlsx,New rule: Press 'space' when you see 2-back (i.e. the same letter as the one that appeared 2 letters ago.),z,None,,,,,,,,,0,10,10,10,0,3,3,3,,,,,,,,,,,,,,,,,,,,,,,,,,,,,,,,,,,,,,,,,,,,,,,,,,,,,,,,,,,,,,,,,,,,,1.6982,759.227547,None,None,1,759.227547,None,,P047,FENCOG,2,Post,2022_Jun_02_1152,N-Back (New Version 2021),2021.1.4,120.2948187
,,,,Conditions/Version_1/twoback(3)_v1.xlsx,New rule: Press 'space' when you see 2-back (i.e. the same letter as the one that appeared 2 letters ago.),X,None,,,,,,,,,0,10,10,10,0,4,4,4,,,,,,,,,,,,,,,,,,,,,,,,,,,,,,,,,,,,,,,,,,,,,,,,,,,,,,,,,,,,,,,,,,,,,1.537,762.774311,None,None,1,762.774311,None,,P047,FENCOG,2,Post,2022_Jun_02_1152,N-Back (New Version 2021),2021.1.4,120.2948187
,,,,Conditions/Version_1/twoback(3)_v1.xlsx,New rule: Press 'space' when you see 2-back (i.e. the same letter as the one that appeared 2 letters ago.),z,space,,,,,,,,,0,10,10,10,0,5,5,5,,,,,,,,,,,,,,,,,,,,,,,,,,,,,,,,,,,,,,,,,,,,,,,,,,,,,,,,,,,,,,,,,,,,,1.2766,766.0570613,None,space,1,766.0570613,None,0.513557,P047,FENCOG,2,Post,2022_Jun_02_1152,N-Back (New Version 2021),2021.1.4,120.2948187
,,,,Conditions/Version_1/twoback(3)_v1.xlsx,New rule: Press 'space' when you see 2-back (i.e. the same letter as the one that appeared 2 letters ago.),x,space,,,,,,,,,0,10,10,10,0,6,6,6,,,,,,,,,,,,,,,,,,,,,,,,,,,,,,,,,,,,,,,,,,,,,,,,,,,,,,,,,,,,,,,,,,,,,1.1712,769.2414269,None,space,1,769.2414269,None,0.321436,P047,FENCOG,2,Post,2022_Jun_02_1152,N-Back (New Version 2021),2021.1.4,120.2948187
,,,,Conditions/Version_1/twoback(3)_v1.xlsx,New rule: Press 'space' when you see 2-back (i.e. the same letter as the one that appeared 2 letters ago.),c,None,,,,,,,,,0,10,10,10,0,7,7,7,,,,,,,,,,,,,,,,,,,,,,,,,,,,,,,,,,,,,,,,,,,,,,,,,,,,,,,,,,,,,,,,,,,,,1.8098,773.0670375,None,None,1,773.0670375,None,,P047,FENCOG,2,Post,2022_Jun_02_1152,N-Back (New Version 2021),2021.1.4,120.2948187
,,,,Conditions/Version_1/twoback(3)_v1.xlsx,New rule: Press 'space' when you see 2-back (i.e. the same letter as the one that appeared 2 letters ago.),i,None,,,,,,,,,0,10,10,10,0,8,8,8,,,,,,,,,,,,,,,,,,,,,,,,,,,,,,,,,,,,,,,,,,,,,,,,,,,,,,,,,,,,,,,,,,,,,1.7292,776.8040566,None,None,1,776.8040566,None,,P047,FENCOG,2,Post,2022_Jun_02_1152,N-Back (New Version 2021),2021.1.4,120.2948187
,,,,Conditions/Version_1/twoback(3)_v1.xlsx,New rule: Press 'space' when you see 2-back (i.e. the same letter as the one that appeared 2 letters ago.),C,space,,,,,,,,,0,10,10,10,0,9,9,9,,,,,,,,,,,,,,,,,,,,,,,,,,,,,,,,,,,,,,,,,,,,,,,,,,,,,,,,,,,,,,,,,,,,,1.4502,780.2634139,None,space,1,780.2634139,None,0.3074484,P047,FENCOG,2,Post,2022_Jun_02_1152,N-Back (New Version 2021),2021.1.4,120.2948187
,,,,Conditions/Version_1/twoback(3)_v1.xlsx,New rule: Press 'space' when you see 2-back (i.e. the same letter as the one that appeared 2 letters ago.),,,,,,,,,,,0,10,10,10,,,,,,,,,,,,,,,,,,,,,,,,,,,,,,,,,,,,,,,,,,,,,,,,,,,,,,,,,,,,,,,,,,,,,,,,,,,,,,,,,P047,FENCOG,2,Post,2022_Jun_02_1152,N-Back (New Version 2021),2021.1.4,120.2948187
,,,,Conditions/Version_1/oneback(3)_v1.xlsx,New rule: Press 'space' when you see 1-back (i.e. the same letter as the one that appeared 1 letter ago.),o,None,,,,,,,,,0,11,11,11,0,0,0,0,,,,,,,,,,,,,,,,,,,,,,,,,,,,,,,,,,,,,,,,,,,,,,,,,,,,,,,,,,,782.2900504,None,785.277675,None,space,0.5811271,785.277675,None,782.2900504,None,1.9462,787.8444106,None,None,1,787.8444106,None,,P047,FENCOG,2,Post,2022_Jun_02_1152,N-Back (New Version 2021),2021.1.4,120.2948187
,,,,Conditions/Version_1/oneback(3)_v1.xlsx,New rule: Press 'space' when you see 1-back (i.e. the same letter as the one that appeared 1 letter ago.),O,space,,,,,,,,,0,11,11,11,0,1,1,1,,,,,,,,,,,,,,,,,,,,,,,,,,,,,,,,,,,,,,,,,,,,,,,,,,,,,,,,,,,,,,,,,,,,,1.0534,790.9093195,None,space,1,790.9093195,None,0.3413003,P047,FENCOG,2,Post,2022_Jun_02_1152,N-Back (New Version 2021),2021.1.4,120.2948187
,,,,Conditions/Version_1/oneback(3)_v1.xlsx,New rule: Press 'space' when you see 1-back (i.e. the same letter as the one that appeared 1 letter ago.),h,None,,,,,,,,,0,11,11,11,0,2,2,2,,,,,,,,,,,,,,,,,,,,,,,,,,,,,,,,,,,,,,,,,,,,,,,,,,,,,,,,,,,,,,,,,,,,,1.3572,794.2736399,None,None,1,794.2736399,None,,P047,FENCOG,2,Post,2022_Jun_02_1152,N-Back (New Version 2021),2021.1.4,120.2948187
,,,,Conditions/Version_1/oneback(3)_v1.xlsx,New rule: Press 'space' when you see 1-back (i.e. the same letter as the one that appeared 1 letter ago.),g,None,,,,,,,,,0,11,11,11,0,3,3,3,,,,,,,,,,,,,,,,,,,,,,,,,,,,,,,,,,,,,,,,,,,,,,,,,,,,,,,,,,,,,,,,,,,,,1.6548,797.9395584,None,None,1,797.9395584,None,,P047,FENCOG,2,Post,2022_Jun_02_1152,N-Back (New Version 2021),2021.1.4,120.2948187
,,,,Conditions/Version_1/oneback(3)_v1.xlsx,New rule: Press 'space' when you see 1-back (i.e. the same letter as the one that appeared 1 letter ago.),n,None,,,,,,,,,0,11,11,11,0,4,4,4,,,,,,,,,,,,,,,,,,,,,,,,,,,,,,,,,,,,,,,,,,,,,,,,,,,,,,,,,,,,,,,,,,,,,1.0658,801.0136433,None,None,1,801.0136433,None,,P047,FENCOG,2,Post,2022_Jun_02_1152,N-Back (New Version 2021),2021.1.4,120.2948187
,,,,Conditions/Version_1/oneback(3)_v1.xlsx,New rule: Press 'space' when you see 1-back (i.e. the same letter as the one that appeared 1 letter ago.),z,None,,,,,,,,,0,11,11,11,0,5,5,5,,,,,,,,,,,,,,,,,,,,,,,,,,,,,,,,,,,,,,,,,,,,,,,,,,,,,,,,,,,,,,,,,,,,,1.6734,804.6949814,None,None,1,804.6949814,None,,P047,FENCOG,2,Post,2022_Jun_02_1152,N-Back (New Version 2021),2021.1.4,120.2948187
,,,,Conditions/Version_1/oneback(3)_v1.xlsx,New rule: Press 'space' when you see 1-back (i.e. the same letter as the one that appeared 1 letter ago.),X,None,,,,,,,,,0,11,11,11,0,6,6,6,,,,,,,,,,,,,,,,,,,,,,,,,,,,,,,,,,,,,,,,,,,,,,,,,,,,,,,,,,,,,,,,,,,,,1.258,807.9973251,None,None,1,807.9973251,None,,P047,FENCOG,2,Post,2022_Jun_02_1152,N-Back (New Version 2021),2021.1.4,120.2948187
,,,,Conditions/Version_1/oneback(3)_v1.xlsx,New rule: Press 'space' when you see 1-back (i.e. the same letter as the one that appeared 1 letter ago.),r,None,,,,,,,,,0,11,11,11,0,7,7,7,,,,,,,,,,,,,,,,,,,,,,,,,,,,,,,,,,,,,,,,,,,,,,,,,,,,,,,,,,,,,,,,,,,,,1.8408,811.8190214,None,None,1,811.8190214,None,,P047,FENCOG,2,Post,2022_Jun_02_1152,N-Back (New Version 2021),2021.1.4,120.2948187
,,,,Conditions/Version_1/oneback(3)_v1.xlsx,New rule: Press 'space' when you see 1-back (i.e. the same letter as the one that appeared 1 letter ago.),r,space,,,,,,,,,0,11,11,11,0,8,8,8,,,,,,,,,,,,,,,,,,,,,,,,,,,,,,,,,,,,,,,,,,,,,,,,,,,,,,,,,,,,,,,,,,,,,1.5494,815.3754726,None,space,1,815.3754726,None,0.3961025,P047,FENCOG,2,Post,2022_Jun_02_1152,N-Back (New Version 2021),2021.1.4,120.2948187
,,,,Conditions/Version_1/oneback(3)_v1.xlsx,New rule: Press 'space' when you see 1-back (i.e. the same letter as the one that appeared 1 letter ago.),P,None,,,,,,,,,0,11,11,11,0,9,9,9,,,,,,,,,,,,,,,,,,,,,,,,,,,,,,,,,,,,,,,,,,,,,,,,,,,,,,,,,,,,,,,,,,,,,1.8284,819.2074181,None,None,1,819.2074181,None,,P047,FENCOG,2,Post,2022_Jun_02_1152,N-Back (New Version 2021),2021.1.4,120.2948187
,,,,Conditions/Version_1/oneback(3)_v1.xlsx,New rule: Press 'space' when you see 1-back (i.e. the same letter as the one that appeared 1 letter ago.),,,,,,,,,,,0,11,11,11,,,,,,,,,,,,,,,,,,,,,,,,,,,,,,,,,,,,,,,,,,,,,,,,,,,,,,,,,,,,,,,,,,,,,,,,,,,,,,,,,P047,FENCOG,2,Post,2022_Jun_02_1152,N-Back (New Version 2021),2021.1.4,120.2948187
,,,,Conditions/Version_1/twoback(4)_v1.xlsx,New rule: Press 'space' when you see 2-back (i.e. the same letter as the one that appeared 2 letters ago.),r,None,,,,,,,,,0,12,12,12,0,0,0,0,,,,,,,,,,,,,,,,,,,,,,,,,,,,,,,,,,,,,,,,,,,,,,,,,,,,,,,,,,,821.2286913,None,824.2233206,None,space,0.3874496,824.2233206,None,821.2286913,None,1.6176,826.2802743,None,None,1,826.2802743,None,,P047,FENCOG,2,Post,2022_Jun_02_1152,N-Back (New Version 2021),2021.1.4,120.2948187
,,,,Conditions/Version_1/twoback(4)_v1.xlsx,New rule: Press 'space' when you see 2-back (i.e. the same letter as the one that appeared 2 letters ago.),T,None,,,,,,,,,0,12,12,12,0,1,1,1,,,,,,,,,,,,,,,,,,,,,,,,,,,,,,,,,,,,,,,,,,,,,,,,,,,,,,,,,,,,,,,,,,,,,1.9214,830.2039915,None,None,1,830.2039915,None,,P047,FENCOG,2,Post,2022_Jun_02_1152,N-Back (New Version 2021),2021.1.4,120.2948187
,,,,Conditions/Version_1/twoback(4)_v1.xlsx,New rule: Press 'space' when you see 2-back (i.e. the same letter as the one that appeared 2 letters ago.),o,None,,,,,,,,,0,12,12,12,0,2,2,2,,,,,,,,,,,,,,,,,,,,,,,,,,,,,,,,,,,,,,,,,,,,,,,,,,,,,,,,,,,,,,,,,,,,,1.165,833.3703578,None,None,1,833.3703578,None,,P047,FENCOG,2,Post,2022_Jun_02_1152,N-Back (New Version 2021),2021.1.4,120.2948187
,,,,Conditions/Version_1/twoback(4)_v1.xlsx,New rule: Press 'space' when you see 2-back (i.e. the same letter as the one that appeared 2 letters ago.),p,None,,,,,,,,,0,12,12,12,0,3,3,3,,,,,,,,,,,,,,,,,,,,,,,,,,,,,,,,,,,,,,,,,,,,,,,,,,,,,,,,,,,,,,,,,,,,,1.8594,837.2361453,None,None,1,837.2361453,None,,P047,FENCOG,2,Post,2022_Jun_02_1152,N-Back (New Version 2021),2021.1.4,120.2948187
,,,,Conditions/Version_1/twoback(4)_v1.xlsx,New rule: Press 'space' when you see 2-back (i.e. the same letter as the one that appeared 2 letters ago.),p,None,,,,,,,,,0,12,12,12,0,4,4,4,,,,,,,,,,,,,,,,,,,,,,,,,,,,,,,,,,,,,,,,,,,,,,,,,,,,,,,,,,,,,,,,,,,,,1.3324,840.5768028,None,None,1,840.5768028,None,,P047,FENCOG,2,Post,2022_Jun_02_1152,N-Back (New Version 2021),2021.1.4,120.2948187
,,,,Conditions/Version_1/twoback(4)_v1.xlsx,New rule: Press 'space' when you see 2-back (i.e. the same letter as the one that appeared 2 letters ago.),y,None,,,,,,,,,0,12,12,12,0,5,5,5,,,,,,,,,,,,,,,,,,,,,,,,,,,,,,,,,,,,,,,,,,,,,,,,,,,,,,,,,,,,,,,,,,,,,1.1154,843.7013076,None,None,1,843.7013076,None,,P047,FENCOG,2,Post,2022_Jun_02_1152,N-Back (New Version 2021),2021.1.4,120.2948187
,,,,Conditions/Version_1/twoback(4)_v1.xlsx,New rule: Press 'space' when you see 2-back (i.e. the same letter as the one that appeared 2 letters ago.),P,space,,,,,,,,,0,12,12,12,0,6,6,6,,,,,,,,,,,,,,,,,,,,,,,,,,,,,,,,,,,,,,,,,,,,,,,,,,,,,,,,,,,,,,,,,,,,,1.134,846.8409036,None,space,1,846.8409036,None,0.3862721,P047,FENCOG,2,Post,2022_Jun_02_1152,N-Back (New Version 2021),2021.1.4,120.2948187
,,,,Conditions/Version_1/twoback(4)_v1.xlsx,New rule: Press 'space' when you see 2-back (i.e. the same letter as the one that appeared 2 letters ago.),y,None,,,,,,,,,0,12,12,12,0,7,7,7,,,,,,,,,,,,,,,,,,,,,,,,,,,,,,,,,,,,,,,,,,,,,,,,,,,,,,,,,,,,,,,,,,,,,1.8346,850.6822534,None,space,0,850.6822534,None,0.3289171,P047,FENCOG,2,Post,2022_Jun_02_1152,N-Back (New Version 2021),2021.1.4,120.2948187
,,,,Conditions/Version_1/twoback(4)_v1.xlsx,New rule: Press 'space' when you see 2-back (i.e. the same letter as the one that appeared 2 letters ago.),y,space,,,,,,,,,0,12,12,12,0,8,8,8,,,,,,,,,,,,,,,,,,,,,,,,,,,,,,,,,,,,,,,,,,,,,,,,,,,,,,,,,,,,,,,,,,,,,1.1898,853.8805872,None,None,0,853.8805872,None,,P047,FENCOG,2,Post,2022_Jun_02_1152,N-Back (New Version 2021),2021.1.4,120.2948187
,,,,Conditions/Version_1/twoback(4)_v1.xlsx,New rule: Press 'space' when you see 2-back (i.e. the same letter as the one that appeared 2 letters ago.),,,,,,,,,,,0,12,12,12,,,,,,,,,,,,,,,,,,,,,,,,,,,,,,,,,,,,,,,,,,,,,,,,,,,,,,,,,,,,,,,,,,,,,,,,,,,,,,,,,P047,FENCOG,2,Post,2022_Jun_02_1152,N-Back (New Version 2021),2021.1.4,120.2948187
,,,,Conditions/Version_1/zeroback(4)_v1.xlsx,New rule: Press 'space' when you see the letter 'x' or 'X'.,o,None,,,,,,,,,0,13,13,13,0,0,0,0,,,,,,,,,,,,,,,,,,,,,,,,,,,,,,,,,,,,,,,,,,,,,,,,,,,,,,,,,,,855.9007769,None,858.8811212,None,space,0.3695984,858.8811212,None,855.9007769,None,1.3386,860.6210211,None,None,1,860.6210211,None,,P047,FENCOG,2,Post,2022_Jun_02_1152,N-Back (New Version 2021),2021.1.4,120.2948187
,,,,Conditions/Version_1/zeroback(4)_v1.xlsx,New rule: Press 'space' when you see the letter 'x' or 'X'.,X,space,,,,,,,,,0,13,13,13,0,1,1,1,,,,,,,,,,,,,,,,,,,,,,,,,,,,,,,,,,,,,,,,,,,,,,,,,,,,,,,,,,,,,,,,,,,,,1.6796,864.3032424,None,space,1,864.3032424,None,0.4034991,P047,FENCOG,2,Post,2022_Jun_02_1152,N-Back (New Version 2021),2021.1.4,120.2948187
,,,,Conditions/Version_1/zeroback(4)_v1.xlsx,New rule: Press 'space' when you see the letter 'x' or 'X'.,p,None,,,,,,,,,0,13,13,13,0,2,2,2,,,,,,,,,,,,,,,,,,,,,,,,,,,,,,,,,,,,,,,,,,,,,,,,,,,,,,,,,,,,,,,,,,,,,1.1216,867.4273243,None,None,1,867.4273243,None,,P047,FENCOG,2,Post,2022_Jun_02_1152,N-Back (New Version 2021),2021.1.4,120.2948187
,,,,Conditions/Version_1/zeroback(4)_v1.xlsx,New rule: Press 'space' when you see the letter 'x' or 'X'.,m,None,,,,,,,,,0,13,13,13,0,3,3,3,,,,,,,,,,,,,,,,,,,,,,,,,,,,,,,,,,,,,,,,,,,,,,,,,,,,,,,,,,,,,,,,,,,,,1.6238,871.058829,None,None,1,871.058829,None,,P047,FENCOG,2,Post,2022_Jun_02_1152,N-Back (New Version 2021),2021.1.4,120.2948187
,,,,Conditions/Version_1/zeroback(4)_v1.xlsx,New rule: Press 'space' when you see the letter 'x' or 'X'.,n,None,,,,,,,,,0,13,13,13,0,4,4,4,,,,,,,,,,,,,,,,,,,,,,,,,,,,,,,,,,,,,,,,,,,,,,,,,,,,,,,,,,,,,,,,,,,,,1.3262,874.3910957,None,None,1,874.3910957,None,,P047,FENCOG,2,Post,2022_Jun_02_1152,N-Back (New Version 2021),2021.1.4,120.2948187
,,,,Conditions/Version_1/zeroback(4)_v1.xlsx,New rule: Press 'space' when you see the letter 'x' or 'X'.,m,None,,,,,,,,,0,13,13,13,0,5,5,5,,,,,,,,,,,,,,,,,,,,,,,,,,,,,,,,,,,,,,,,,,,,,,,,,,,,,,,,,,,,,,,,,,,,,1.909,878.3129688,None,space,0,878.3129688,None,0.6415728,P047,FENCOG,2,Post,2022_Jun_02_1152,N-Back (New Version 2021),2021.1.4,120.2948187
,,,,Conditions/Version_1/zeroback(4)_v1.xlsx,New rule: Press 'space' when you see the letter 'x' or 'X'.,C,None,,,,,,,,,0,13,13,13,0,6,6,6,,,,,,,,,,,,,,,,,,,,,,,,,,,,,,,,,,,,,,,,,,,,,,,,,,,,,,,,,,,,,,,,,,,,,1.1092,881.4254751,None,None,1,881.4254751,None,,P047,FENCOG,2,Post,2022_Jun_02_1152,N-Back (New Version 2021),2021.1.4,120.2948187
,,,,Conditions/Version_1/zeroback(4)_v1.xlsx,New rule: Press 'space' when you see the letter 'x' or 'X'.,m,None,,,,,,,,,0,13,13,13,0,7,7,7,,,,,,,,,,,,,,,,,,,,,,,,,,,,,,,,,,,,,,,,,,,,,,,,,,,,,,,,,,,,,,,,,,,,,1.5866,885.0229914,None,None,1,885.0229914,None,,P047,FENCOG,2,Post,2022_Jun_02_1152,N-Back (New Version 2021),2021.1.4,120.2948187
,,,,Conditions/Version_1/zeroback(4)_v1.xlsx,New rule: Press 'space' when you see the letter 'x' or 'X'.,p,None,,,,,,,,,0,13,13,13,0,8,8,8,,,,,,,,,,,,,,,,,,,,,,,,,,,,,,,,,,,,,,,,,,,,,,,,,,,,,,,,,,,,,,,,,,,,,1.351,888.3868315,None,None,1,888.3868315,None,,P047,FENCOG,2,Post,2022_Jun_02_1152,N-Back (New Version 2021),2021.1.4,120.2948187
,,,,Conditions/Version_1/zeroback(4)_v1.xlsx,New rule: Press 'space' when you see the letter 'x' or 'X'.,X,space,,,,,,,,,0,13,13,13,0,9,9,9,,,,,,,,,,,,,,,,,,,,,,,,,,,,,,,,,,,,,,,,,,,,,,,,,,,,,,,,,,,,,,,,,,,,,1.6052,891.9942761,None,space,1,891.9942761,None,0.4090345,P047,FENCOG,2,Post,2022_Jun_02_1152,N-Back (New Version 2021),2021.1.4,120.2948187
,,,,Conditions/Version_1/zeroback(4)_v1.xlsx,New rule: Press 'space' when you see the letter 'x' or 'X'.,,,,,,,,,,,0,13,13,13,,,,,,,,,,,,,,,,,,,,,,,,,,,,,,,,,,,,,,,,,,,,,,,,,,,,,,,,,,,,,,,,,,,,,,,,,,,,,,,,,P047,FENCOG,2,Post,2022_Jun_02_1152,N-Back (New Version 2021),2021.1.4,120.2948187
,,,,Conditions/Version_1/oneback(4)_v1.xlsx,New rule: Press 'space' when you see 1-back (i.e. the same letter as the one that appeared 1 letter ago.),w,None,,,,,,,,,0,14,14,14,0,0,0,0,,,,,,,,,,,,,,,,,,,,,,,,,,,,,,,,,,,,,,,,,,,,,,,,,,,,,,,,,,,894.0164553,None,897.0015398,None,space,0.4571307,897.0015398,None,894.0164553,None,1.5618,899.0505064,None,None,1,899.0505064,None,,P047,FENCOG,2,Post,2022_Jun_02_1152,N-Back (New Version 2021),2021.1.4,120.2948187
,,,,Conditions/Version_1/oneback(4)_v1.xlsx,New rule: Press 'space' when you see 1-back (i.e. the same letter as the one that appeared 1 letter ago.),q,None,,,,,,,,,0,14,14,14,0,1,1,1,,,,,,,,,,,,,,,,,,,,,,,,,,,,,,,,,,,,,,,,,,,,,,,,,,,,,,,,,,,,,,,,,,,,,1.8718,902.9243289,None,None,1,902.9243289,None,,P047,FENCOG,2,Post,2022_Jun_02_1152,N-Back (New Version 2021),2021.1.4,120.2948187
,,,,Conditions/Version_1/oneback(4)_v1.xlsx,New rule: Press 'space' when you see 1-back (i.e. the same letter as the one that appeared 1 letter ago.),i,None,,,,,,,,,0,14,14,14,0,2,2,2,,,,,,,,,,,,,,,,,,,,,,,,,,,,,,,,,,,,,,,,,,,,,,,,,,,,,,,,,,,,,,,,,,,,,1.134,906.0568111,None,None,1,906.0568111,None,,P047,FENCOG,2,Post,2022_Jun_02_1152,N-Back (New Version 2021),2021.1.4,120.2948187
,,,,Conditions/Version_1/oneback(4)_v1.xlsx,New rule: Press 'space' when you see 1-back (i.e. the same letter as the one that appeared 1 letter ago.),t,None,,,,,,,,,0,14,14,14,0,3,3,3,,,,,,,,,,,,,,,,,,,,,,,,,,,,,,,,,,,,,,,,,,,,,,,,,,,,,,,,,,,,,,,,,,,,,1.3572,909.4142761,None,None,1,909.4142761,None,,P047,FENCOG,2,Post,2022_Jun_02_1152,N-Back (New Version 2021),2021.1.4,120.2948187
,,,,Conditions/Version_1/oneback(4)_v1.xlsx,New rule: Press 'space' when you see 1-back (i.e. the same letter as the one that appeared 1 letter ago.),v,None,,,,,,,,,0,14,14,14,0,4,4,4,,,,,,,,,,,,,,,,,,,,,,,,,,,,,,,,,,,,,,,,,,,,,,,,,,,,,,,,,,,,,,,,,,,,,1.9958,913.4146477,None,None,1,913.4146477,None,,P047,FENCOG,2,Post,2022_Jun_02_1152,N-Back (New Version 2021),2021.1.4,120.2948187
,,,,Conditions/Version_1/oneback(4)_v1.xlsx,New rule: Press 'space' when you see 1-back (i.e. the same letter as the one that appeared 1 letter ago.),V,space,,,,,,,,,0,14,14,14,0,5,5,5,,,,,,,,,,,,,,,,,,,,,,,,,,,,,,,,,,,,,,,,,,,,,,,,,,,,,,,,,,,,,,,,,,,,,1.2518,916.6801644,None,space,1,916.6801644,None,0.5384399,P047,FENCOG,2,Post,2022_Jun_02_1152,N-Back (New Version 2021),2021.1.4,120.2948187
,,,,Conditions/Version_1/oneback(4)_v1.xlsx,New rule: Press 'space' when you see 1-back (i.e. the same letter as the one that appeared 1 letter ago.),v,space,,,,,,,,,0,14,14,14,0,6,6,6,,,,,,,,,,,,,,,,,,,,,,,,,,,,,,,,,,,,,,,,,,,,,,,,,,,,,,,,,,,,,,,,,,,,,1.2456,919.9429852,None,space,1,919.9429852,None,0.5155704,P047,FENCOG,2,Post,2022_Jun_02_1152,N-Back (New Version 2021),2021.1.4,120.2948187
,,,,Conditions/Version_1/oneback(4)_v1.xlsx,New rule: Press 'space' when you see 1-back (i.e. the same letter as the one that appeared 1 letter ago.),p,None,,,,,,,,,0,14,14,14,0,7,7,7,,,,,,,,,,,,,,,,,,,,,,,,,,,,,,,,,,,,,,,,,,,,,,,,,,,,,,,,,,,,,,,,,,,,,1.754,923.7023234,None,None,1,923.7023234,None,,P047,FENCOG,2,Post,2022_Jun_02_1152,N-Back (New Version 2021),2021.1.4,120.2948187
,,,,Conditions/Version_1/oneback(4)_v1.xlsx,New rule: Press 'space' when you see 1-back (i.e. the same letter as the one that appeared 1 letter ago.),w,None,,,,,,,,,0,14,14,14,0,8,8,8,,,,,,,,,,,,,,,,,,,,,,,,,,,,,,,,,,,,,,,,,,,,,,,,,,,,,,,,,,,,,,,,,,,,,1.4068,927.1182645,None,None,1,927.1182645,None,,P047,FENCOG,2,Post,2022_Jun_02_1152,N-Back (New Version 2021),2021.1.4,120.2948187
,,,,Conditions/Version_1/oneback(4)_v1.xlsx,New rule: Press 'space' when you see 1-back (i.e. the same letter as the one that appeared 1 letter ago.),W,space,,,,,,,,,0,14,14,14,0,9,9,9,,,,,,,,,,,,,,,,,,,,,,,,,,,,,,,,,,,,,,,,,,,,,,,,,,,,,,,,,,,,,,,,,,,,,1.3882,930.5168372,None,space,1,930.5168372,None,0.3498452,P047,FENCOG,2,Post,2022_Jun_02_1152,N-Back (New Version 2021),2021.1.4,120.2948187
,,,,Conditions/Version_1/oneback(4)_v1.xlsx,New rule: Press 'space' when you see 1-back (i.e. the same letter as the one that appeared 1 letter ago.),,,,,,,,,,,0,14,14,14,,,,,,,,,,,,,,,,,,,,,,,,,,,,,,,,,,,,,,,,,,,,,,,,,,,,,,,,,,,,,,,,,,,,,,,,,,,,,,,,,P047,FENCOG,2,Post,2022_Jun_02_1152,N-Back (New Version 2021),2021.1.4,120.2948187
,,,,Conditions/Version_1/threeback(4)_v1.xlsx,New rule: Press 'space' when you see 3-back (i.e. the same letter as the one that appeared 3 letters ago.),A,None,,,,,,,,,0,15,15,15,0,0,0,0,,,,,,,,,,,,,,,,,,,,,,,,,,,,,,,,,,,,,,,,,,,,,,,,,,,,,,,,,,,932.5542258,None,935.5338552,None,space,90.1243643,935.5338552,None,932.5542258,None,1.6734,1027.363903,None,space,0,1027.363903,None,0.878359,P047,FENCOG,2,Post,2022_Jun_02_1152,N-Back (New Version 2021),2021.1.4,120.2948187
,,,,Conditions/Version_1/threeback(4)_v1.xlsx,New rule: Press 'space' when you see 3-back (i.e. the same letter as the one that appeared 3 letters ago.),n,None,,,,,,,,,0,15,15,15,0,1,1,1,,,,,,,,,,,,,,,,,,,,,,,,,,,,,,,,,,,,,,,,,,,,,,,,,,,,,,,,,,,,,,,,,,,,,1.599,1030.969611,None,None,1,1030.969611,None,,P047,FENCOG,2,Post,2022_Jun_02_1152,N-Back (New Version 2021),2021.1.4,120.2948187
,,,,Conditions/Version_1/threeback(4)_v1.xlsx,New rule: Press 'space' when you see 3-back (i.e. the same letter as the one that appeared 3 letters ago.),g,None,,,,,,,,,0,15,15,15,0,2,2,2,,,,,,,,,,,,,,,,,,,,,,,,,,,,,,,,,,,,,,,,,,,,,,,,,,,,,,,,,,,,,,,,,,,,,1.723,1034.693499,None,None,1,1034.693499,None,,P047,FENCOG,2,Post,2022_Jun_02_1152,N-Back (New Version 2021),2021.1.4,120.2948187
,,,,Conditions/Version_1/threeback(4)_v1.xlsx,New rule: Press 'space' when you see 3-back (i.e. the same letter as the one that appeared 3 letters ago.),A,space,,,,,,,,,0,15,15,15,0,3,3,3,,,,,,,,,,,,,,,,,,,,,,,,,,,,,,,,,,,,,,,,,,,,,,,,,,,,,,,,,,,,,,,,,,,,,1.5246,1038.217497,None,space,1,1038.217497,None,0.3767297,P047,FENCOG,2,Post,2022_Jun_02_1152,N-Back (New Version 2021),2021.1.4,120.2948187
,,,,Conditions/Version_1/threeback(4)_v1.xlsx,New rule: Press 'space' when you see 3-back (i.e. the same letter as the one that appeared 3 letters ago.),p,None,,,,,,,,,0,15,15,15,0,4,4,4,,,,,,,,,,,,,,,,,,,,,,,,,,,,,,,,,,,,,,,,,,,,,,,,,,,,,,,,,,,,,,,,,,,,,1.134,1041.349872,None,None,1,1041.349872,None,,P047,FENCOG,2,Post,2022_Jun_02_1152,N-Back (New Version 2021),2021.1.4,120.2948187
,,,,Conditions/Version_1/threeback(4)_v1.xlsx,New rule: Press 'space' when you see 3-back (i.e. the same letter as the one that appeared 3 letters ago.),O,None,,,,,,,,,0,15,15,15,0,5,5,5,,,,,,,,,,,,,,,,,,,,,,,,,,,,,,,,,,,,,,,,,,,,,,,,,,,,,,,,,,,,,,,,,,,,,1.3882,1044.740547,None,None,1,1044.740547,None,,P047,FENCOG,2,Post,2022_Jun_02_1152,N-Back (New Version 2021),2021.1.4,120.2948187
,,,,Conditions/Version_1/threeback(4)_v1.xlsx,New rule: Press 'space' when you see 3-back (i.e. the same letter as the one that appeared 3 letters ago.),a,space,,,,,,,,,0,15,15,15,0,6,6,6,,,,,,,,,,,,,,,,,,,,,,,,,,,,,,,,,,,,,,,,,,,,,,,,,,,,,,,,,,,,,,,,,,,,,1.5494,1048.289489,None,space,1,1048.289489,None,0.4007704,P047,FENCOG,2,Post,2022_Jun_02_1152,N-Back (New Version 2021),2021.1.4,120.2948187
,,,,Conditions/Version_1/threeback(4)_v1.xlsx,New rule: Press 'space' when you see 3-back (i.e. the same letter as the one that appeared 3 letters ago.),p,space,,,,,,,,,0,15,15,15,0,7,7,7,,,,,,,,,,,,,,,,,,,,,,,,,,,,,,,,,,,,,,,,,,,,,,,,,,,,,,,,,,,,,,,,,,,,,1.0534,1051.34694,None,space,1,1051.34694,None,0.3673408,P047,FENCOG,2,Post,2022_Jun_02_1152,N-Back (New Version 2021),2021.1.4,120.2948187
,,,,Conditions/Version_1/threeback(4)_v1.xlsx,New rule: Press 'space' when you see 3-back (i.e. the same letter as the one that appeared 3 letters ago.),x,None,,,,,,,,,0,15,15,15,0,8,8,8,,,,,,,,,,,,,,,,,,,,,,,,,,,,,,,,,,,,,,,,,,,,,,,,,,,,,,,,,,,,,,,,,,,,,1.3138,1054.663544,None,None,1,1054.663544,None,,P047,FENCOG,2,Post,2022_Jun_02_1152,N-Back (New Version 2021),2021.1.4,120.2948187
,,,,Conditions/Version_1/threeback(4)_v1.xlsx,New rule: Press 'space' when you see 3-back (i.e. the same letter as the one that appeared 3 letters ago.),X,None,,,,,,,,,0,15,15,15,0,9,9,9,,,,,,,,,,,,,,,,,,,,,,,,,,,,,,,,,,,,,,,,,,,,,,,,,,,,,,,,,,,,,,,,,,,,,1.351,1058.028246,None,None,1,1058.028246,None,,P047,FENCOG,2,Post,2022_Jun_02_1152,N-Back (New Version 2021),2021.1.4,120.2948187
,,,,Conditions/Version_1/threeback(4)_v1.xlsx,New rule: Press 'space' when you see 3-back (i.e. the same letter as the one that appeared 3 letters ago.),,,,,,,,,,,0,15,15,15,,,,,,,,,,,,,,,,,,,,,,,,,,,,,,,,,,,,,,,,,,,,,,,,,,,,,,,,,,,,,,,,,,,,,,,,,,,,,,,,,P047,FENCOG,2,Post,2022_Jun_02_1152,N-Back (New Version 2021),2021.1.4,120.2948187
