CondFileP,InstructionsP,LettersDisplayedP,CorrectnessP,CondFile,Instructions,LettersDisplayed,Correctness,practicetrials.thisRepN,practicetrials.thisTrialN,practicetrials.thisN,practicetrials.thisIndex,InnerLoopPractice.thisRepN,InnerLoopPractice.thisTrialN,InnerLoopPractice.thisN,InnerLoopPractice.thisIndex,trials.thisRepN,trials.thisTrialN,trials.thisN,trials.thisIndex,InnerLoop.thisRepN,InnerLoop.thisTrialN,InnerLoop.thisN,InnerLoop.thisIndex,TaskVersionText.started,TaskVersionText.stopped,InstrKey1.keys,InstrKey1.rt,InstrKey1.started,InstrKey1.stopped,text.started,text.stopped,key_resp_4.keys,key_resp_4.rt,key_resp_4.started,key_resp_4.stopped,text_2.started,text_2.stopped,key_resp_3.keys,key_resp_3.rt,key_resp_3.started,key_resp_3.stopped,text_3.started,text_3.stopped,key_resp_2.keys,key_resp_2.rt,key_resp_2.started,key_resp_2.stopped,PractIn1.started,PractIn1.stopped,PractIn2.started,PractIn2.stopped,PractInstructionPass.keys,PractInstructionPass.rt,PractInstructionPass.started,PractInstructionPass.stopped,PractBlock1.started,PractBlock1.stopped,ISIjitterPractice,ISI_Pract_Fixation.started,ISI_Pract_Fixation.stopped,N_backP.started,N_backP.stopped,KeyPractice.keys,KeyPractice.corr,KeyPractice.started,KeyPractice.stopped,text_4.started,text_4.stopped,KeyPractice.rt,TransitionText.started,TransitionText.stopped,key_resp_6.keys,key_resp_6.rt,key_resp_6.started,key_resp_6.stopped,text_5.started,text_5.stopped,key_resp_5.keys,key_resp_5.rt,key_resp_5.started,key_resp_5.stopped,MainInt1.started,MainInt1.stopped,MainInt2.started,MainInt2.stopped,InstructionPass.keys,InstructionPass.rt,InstructionPass.started,InstructionPass.stopped,Blocks1.started,Blocks1.stopped,ISIjitter,N_backD.started,N_backD.stopped,key_resp.keys,key_resp.corr,key_resp.started,key_resp.stopped,key_resp.rt,participant,Study Name,Task Version (required to run),PRE/POST,date,expName,psychopyVersion,frameRate
,,,,,,,,,,,,,,,,,,,,,,,,62.2484422,None,space,120.1305639,62.7409671,None,,,,,,,,,,,,,,,,,,,,,,,,,,,,,,,,,,,,,,,,,,,,,,,,,,,,,,,,,,,,,,,,,,,,,,,P047,FENCOG,1,Pre,2022_May_26_1101,N-Back (New Version 2021),2021.1.4,119.8257733
,,,,,,,,,,,,,,,,,,,,,,,,,,,,,,182.904368,None,space,53.7774949,183.3973707,None,,,,,,,,,,,,,,,,,,,,,,,,,,,,,,,,,,,,,,,,,,,,,,,,,,,,,,,,,,,,,,,,,P047,FENCOG,1,Pre,2022_May_26_1101,N-Back (New Version 2021),2021.1.4,119.8257733
,,,,,,,,,,,,,,,,,,,,,,,,,,,,,,,,,,,,237.2076964,None,space,18.9483332,237.6983046,None,,,,,,,,,,,,,,,,,,,,,,,,,,,,,,,,,,,,,,,,,,,,,,,,,,,,,,,,,,,P047,FENCOG,1,Pre,2022_May_26_1101,N-Back (New Version 2021),2021.1.4,119.8257733
,,,,,,,,,,,,,,,,,,,,,,,,,,,,,,,,,,,,,,,,,,256.6765588,None,space,13.2393685,257.1674281,None,,,,,,,,,,,,,,,,,,,,,,,,,,,,,,,,,,,,,,,,,,,,,,,,,,,,,P047,FENCOG,1,Pre,2022_May_26_1101,N-Back (New Version 2021),2021.1.4,119.8257733
Conditions/Version_1Pr/zeroback(1)_v1.xlsx,Rule: Press 'space' when you see the letter 'x' or 'X'.,Z,None,,,,,0,0,0,0,0,0,0,0,,,,,,,,,,,,,,,,,,,,,,,,,,,,,,,,,271.803507,None,274.7882754,None,space,1.3624048,274.7882754,None,271.803507,None,1.715,276.1821716,None,277.908087,None,None,1,277.908087,None,279.9114242,None,,,,,,,,,,,,,,,,,,,,,,,,,,,,,,,,P047,FENCOG,1,Pre,2022_May_26_1101,N-Back (New Version 2021),2021.1.4,119.8257733
Conditions/Version_1Pr/zeroback(1)_v1.xlsx,Rule: Press 'space' when you see the letter 'x' or 'X'.,r,None,,,,,0,0,0,0,0,1,1,1,,,,,,,,,,,,,,,,,,,,,,,,,,,,,,,,,,,,,,,,,,,1.215,281.4094296,None,282.6270821,None,None,1,282.6270821,None,284.6334067,None,,,,,,,,,,,,,,,,,,,,,,,,,,,,,,,,P047,FENCOG,1,Pre,2022_May_26_1101,N-Back (New Version 2021),2021.1.4,119.8257733
Conditions/Version_1Pr/zeroback(1)_v1.xlsx,Rule: Press 'space' when you see the letter 'x' or 'X'.,X,space,,,,,0,0,0,0,0,2,2,2,,,,,,,,,,,,,,,,,,,,,,,,,,,,,,,,,,,,,,,,,,,1.89,286.132963,None,288.0266318,None,space,1,288.0266318,None,288.5750626,None,0.5402,,,,,,,,,,,,,,,,,,,,,,,,,,,,,,,P047,FENCOG,1,Pre,2022_May_26_1101,N-Back (New Version 2021),2021.1.4,119.8257733
Conditions/Version_1Pr/zeroback(1)_v1.xlsx,Rule: Press 'space' when you see the letter 'x' or 'X'.,p,None,,,,,0,0,0,0,0,3,3,3,,,,,,,,,,,,,,,,,,,,,,,,,,,,,,,,,,,,,,,,,,,1.615,290.0816124,None,291.6985843,None,None,1,291.6985843,None,293.7057934,None,,,,,,,,,,,,,,,,,,,,,,,,,,,,,,,,P047,FENCOG,1,Pre,2022_May_26_1101,N-Back (New Version 2021),2021.1.4,119.8257733
Conditions/Version_1Pr/zeroback(1)_v1.xlsx,Rule: Press 'space' when you see the letter 'x' or 'X'.,w,None,,,,,0,0,0,0,0,4,4,4,,,,,,,,,,,,,,,,,,,,,,,,,,,,,,,,,,,,,,,,,,,1.19,295.2052953,None,296.3968786,None,None,1,296.3968786,None,298.3960245,None,,,,,,,,,,,,,,,,,,,,,,,,,,,,,,,,P047,FENCOG,1,Pre,2022_May_26_1101,N-Back (New Version 2021),2021.1.4,119.8257733
Conditions/Version_1Pr/zeroback(1)_v1.xlsx,Rule: Press 'space' when you see the letter 'x' or 'X'.,e,None,,,,,0,0,0,0,0,5,5,5,,,,,,,,,,,,,,,,,,,,,,,,,,,,,,,,,,,,,,,,,,,1.465,299.8955773,None,301.3680274,None,None,1,301.3680274,None,303.3695708,None,,,,,,,,,,,,,,,,,,,,,,,,,,,,,,,,P047,FENCOG,1,Pre,2022_May_26_1101,N-Back (New Version 2021),2021.1.4,119.8257733
Conditions/Version_1Pr/zeroback(1)_v1.xlsx,Rule: Press 'space' when you see the letter 'x' or 'X'.,X,space,,,,,0,0,0,0,0,6,6,6,,,,,,,,,,,,,,,,,,,,,,,,,,,,,,,,,,,,,,,,,,,1.59,304.8691567,None,306.461146,None,space,1,306.461146,None,306.7785281,None,0.3056724,,,,,,,,,,,,,,,,,,,,,,,,,,,,,,,P047,FENCOG,1,Pre,2022_May_26_1101,N-Back (New Version 2021),2021.1.4,119.8257733
Conditions/Version_1Pr/zeroback(1)_v1.xlsx,Rule: Press 'space' when you see the letter 'x' or 'X'.,x,space,,,,,0,0,0,0,0,7,7,7,,,,,,,,,,,,,,,,,,,,,,,,,,,,,,,,,,,,,,,,,,,1.99,308.2848152,None,310.2774932,None,space,1,310.2774932,None,310.7773028,None,0.4891767,,,,,,,,,,,,,,,,,,,,,,,,,,,,,,,P047,FENCOG,1,Pre,2022_May_26_1101,N-Back (New Version 2021),2021.1.4,119.8257733
Conditions/Version_1Pr/zeroback(1)_v1.xlsx,Rule: Press 'space' when you see the letter 'x' or 'X'.,p,None,,,,,0,0,0,0,0,8,8,8,,,,,,,,,,,,,,,,,,,,,,,,,,,,,,,,,,,,,,,,,,,1.34,312.2834126,None,313.6259143,None,None,1,313.6259143,None,315.6271735,None,,,,,,,,,,,,,,,,,,,,,,,,,,,,,,,,P047,FENCOG,1,Pre,2022_May_26_1101,N-Back (New Version 2021),2021.1.4,119.8257733
Conditions/Version_1Pr/zeroback(1)_v1.xlsx,Rule: Press 'space' when you see the letter 'x' or 'X'.,r,None,,,,,0,0,0,0,0,9,9,9,,,,,,,,,,,,,,,,,,,,,,,,,,,,,,,,,,,,,,,,,,,1.54,317.1321675,None,318.6747876,None,None,1,318.6747876,None,320.6811888,None,,,,,,,,,,,,,,,,,,,,,,,,,,,,,,,,P047,FENCOG,1,Pre,2022_May_26_1101,N-Back (New Version 2021),2021.1.4,119.8257733
Conditions/Version_1Pr/zeroback(1)_v1.xlsx,Rule: Press 'space' when you see the letter 'x' or 'X'.,,,,,,,0,0,0,0,,,,,,,,,,,,,,,,,,,,,,,,,,,,,,,,,,,,,,,,,,,,,,,,,,,,,,,,,,,,,,,,,,,,,,,,,,,,,,,,,,,,,,,,,P047,FENCOG,1,Pre,2022_May_26_1101,N-Back (New Version 2021),2021.1.4,119.8257733
Conditions/Version_1Pr/oneback(1)_v1.xlsx,New rule: Press 'space' when you see 1-back (i.e. the same letter as the one that appeared 1 letter ago.),a,None,,,,,0,1,1,1,0,0,0,0,,,,,,,,,,,,,,,,,,,,,,,,,,,,,,,,,322.2034541,None,325.1935811,None,space,16.4531715,325.1935811,None,322.2034541,None,1.065,341.6807668,None,342.7534341,None,None,1,342.7534341,None,344.7573779,None,,,,,,,,,,,,,,,,,,,,,,,,,,,,,,,,P047,FENCOG,1,Pre,2022_May_26_1101,N-Back (New Version 2021),2021.1.4,119.8257733
Conditions/Version_1Pr/oneback(1)_v1.xlsx,New rule: Press 'space' when you see 1-back (i.e. the same letter as the one that appeared 1 letter ago.),x,None,,,,,0,1,1,1,0,1,1,1,,,,,,,,,,,,,,,,,,,,,,,,,,,,,,,,,,,,,,,,,,,1.665,346.2569684,None,347.9261733,None,None,1,347.9261733,None,349.932623,None,,,,,,,,,,,,,,,,,,,,,,,,,,,,,,,,P047,FENCOG,1,Pre,2022_May_26_1101,N-Back (New Version 2021),2021.1.4,119.8257733
Conditions/Version_1Pr/oneback(1)_v1.xlsx,New rule: Press 'space' when you see 1-back (i.e. the same letter as the one that appeared 1 letter ago.),g,None,,,,,0,1,1,1,0,2,2,2,,,,,,,,,,,,,,,,,,,,,,,,,,,,,,,,,,,,,,,,,,,2.015,351.4301821,None,353.4470332,None,None,1,353.4470332,None,355.4540606,None,,,,,,,,,,,,,,,,,,,,,,,,,,,,,,,,P047,FENCOG,1,Pre,2022_May_26_1101,N-Back (New Version 2021),2021.1.4,119.8257733
Conditions/Version_1Pr/oneback(1)_v1.xlsx,New rule: Press 'space' when you see 1-back (i.e. the same letter as the one that appeared 1 letter ago.),G,space,,,,,0,1,1,1,0,3,3,3,,,,,,,,,,,,,,,,,,,,,,,,,,,,,,,,,,,,,,,,,,,1.94,356.9537603,None,358.8978803,None,space,1,358.8978803,None,359.2809097,None,0.3726358,,,,,,,,,,,,,,,,,,,,,,,,,,,,,,,P047,FENCOG,1,Pre,2022_May_26_1101,N-Back (New Version 2021),2021.1.4,119.8257733
Conditions/Version_1Pr/oneback(1)_v1.xlsx,New rule: Press 'space' when you see 1-back (i.e. the same letter as the one that appeared 1 letter ago.),u,None,,,,,0,1,1,1,0,4,4,4,,,,,,,,,,,,,,,,,,,,,,,,,,,,,,,,,,,,,,,,,,,1.615,360.785896,None,362.4046539,None,None,1,362.4046539,None,364.409899,None,,,,,,,,,,,,,,,,,,,,,,,,,,,,,,,,P047,FENCOG,1,Pre,2022_May_26_1101,N-Back (New Version 2021),2021.1.4,119.8257733
Conditions/Version_1Pr/oneback(1)_v1.xlsx,New rule: Press 'space' when you see 1-back (i.e. the same letter as the one that appeared 1 letter ago.),y,None,,,,,0,1,1,1,0,5,5,5,,,,,,,,,,,,,,,,,,,,,,,,,,,,,,,,,,,,,,,,,,,1.09,365.9093873,None,367.0024106,None,None,1,367.0024106,None,369.0085167,None,,,,,,,,,,,,,,,,,,,,,,,,,,,,,,,,P047,FENCOG,1,Pre,2022_May_26_1101,N-Back (New Version 2021),2021.1.4,119.8257733
Conditions/Version_1Pr/oneback(1)_v1.xlsx,New rule: Press 'space' when you see 1-back (i.e. the same letter as the one that appeared 1 letter ago.),y,space,,,,,0,1,1,1,0,6,6,6,,,,,,,,,,,,,,,,,,,,,,,,,,,,,,,,,,,,,,,,,,,1.765,370.5086406,None,372.2742575,None,space,1,372.2742575,None,373.8337688,None,1.5483867,,,,,,,,,,,,,,,,,,,,,,,,,,,,,,,P047,FENCOG,1,Pre,2022_May_26_1101,N-Back (New Version 2021),2021.1.4,119.8257733
Conditions/Version_1Pr/oneback(1)_v1.xlsx,New rule: Press 'space' when you see 1-back (i.e. the same letter as the one that appeared 1 letter ago.),k,None,,,,,0,1,1,1,0,7,7,7,,,,,,,,,,,,,,,,,,,,,,,,,,,,,,,,,,,,,,,,,,,1.54,375.339945,None,376.8827888,None,None,1,376.8827888,None,378.8889447,None,,,,,,,,,,,,,,,,,,,,,,,,,,,,,,,,P047,FENCOG,1,Pre,2022_May_26_1101,N-Back (New Version 2021),2021.1.4,119.8257733
Conditions/Version_1Pr/oneback(1)_v1.xlsx,New rule: Press 'space' when you see 1-back (i.e. the same letter as the one that appeared 1 letter ago.),c,None,,,,,0,1,1,1,0,8,8,8,,,,,,,,,,,,,,,,,,,,,,,,,,,,,,,,,,,,,,,,,,,1.64,380.3885336,None,382.0304674,None,None,1,382.0304674,None,384.0373914,None,,,,,,,,,,,,,,,,,,,,,,,,,,,,,,,,P047,FENCOG,1,Pre,2022_May_26_1101,N-Back (New Version 2021),2021.1.4,119.8257733
Conditions/Version_1Pr/oneback(1)_v1.xlsx,New rule: Press 'space' when you see 1-back (i.e. the same letter as the one that appeared 1 letter ago.),r,None,,,,,0,1,1,1,0,9,9,9,,,,,,,,,,,,,,,,,,,,,,,,,,,,,,,,,,,,,,,,,,,1.515,385.5369603,None,387.054782,None,None,1,387.054782,None,389.0608749,None,,,,,,,,,,,,,,,,,,,,,,,,,,,,,,,,P047,FENCOG,1,Pre,2022_May_26_1101,N-Back (New Version 2021),2021.1.4,119.8257733
Conditions/Version_1Pr/oneback(1)_v1.xlsx,New rule: Press 'space' when you see 1-back (i.e. the same letter as the one that appeared 1 letter ago.),,,,,,,0,1,1,1,,,,,,,,,,,,,,,,,,,,,,,,,,,,,,,,,,,,,,,,,,,,,,,,,,,,,,,,,,,,,,,,,,,,,,,,,,,,,,,,,,,,,,,,,P047,FENCOG,1,Pre,2022_May_26_1101,N-Back (New Version 2021),2021.1.4,119.8257733
Conditions/Version_1Pr/twoback(1)_v1.xlsx,New rule: Press 'space' when you see 2-back (i.e. the same letter as the one that appeared 2 letters ago.),E,None,,,,,0,2,2,2,0,0,0,0,,,,,,,,,,,,,,,,,,,,,,,,,,,,,,,,,390.5860499,None,393.5703303,None,space,1.6923815,393.5703303,None,390.5860499,None,1.54,395.297588,None,396.8447943,None,None,1,396.8447943,None,398.8417357,None,,,,,,,,,,,,,,,,,,,,,,,,,,,,,,,,P047,FENCOG,1,Pre,2022_May_26_1101,N-Back (New Version 2021),2021.1.4,119.8257733
Conditions/Version_1Pr/twoback(1)_v1.xlsx,New rule: Press 'space' when you see 2-back (i.e. the same letter as the one that appeared 2 letters ago.),p,None,,,,,0,2,2,2,0,1,1,1,,,,,,,,,,,,,,,,,,,,,,,,,,,,,,,,,,,,,,,,,,,1.14,400.3407033,None,401.4822542,None,None,1,401.4822542,None,403.4816746,None,,,,,,,,,,,,,,,,,,,,,,,,,,,,,,,,P047,FENCOG,1,Pre,2022_May_26_1101,N-Back (New Version 2021),2021.1.4,119.8257733
Conditions/Version_1Pr/twoback(1)_v1.xlsx,New rule: Press 'space' when you see 2-back (i.e. the same letter as the one that appeared 2 letters ago.),e,space,,,,,0,2,2,2,0,2,2,2,,,,,,,,,,,,,,,,,,,,,,,,,,,,,,,,,,,,,,,,,,,1.215,404.9810257,None,406.1994814,None,space,1,406.1994814,None,406.5980067,None,0.3831846,,,,,,,,,,,,,,,,,,,,,,,,,,,,,,,P047,FENCOG,1,Pre,2022_May_26_1101,N-Back (New Version 2021),2021.1.4,119.8257733
Conditions/Version_1Pr/twoback(1)_v1.xlsx,New rule: Press 'space' when you see 2-back (i.e. the same letter as the one that appeared 2 letters ago.),s,None,,,,,0,2,2,2,0,3,3,3,,,,,,,,,,,,,,,,,,,,,,,,,,,,,,,,,,,,,,,,,,,1.04,408.0969466,None,409.1400095,None,None,1,409.1400095,None,411.1389717,None,,,,,,,,,,,,,,,,,,,,,,,,,,,,,,,,P047,FENCOG,1,Pre,2022_May_26_1101,N-Back (New Version 2021),2021.1.4,119.8257733
Conditions/Version_1Pr/twoback(1)_v1.xlsx,New rule: Press 'space' when you see 2-back (i.e. the same letter as the one that appeared 2 letters ago.),S,None,,,,,0,2,2,2,0,4,4,4,,,,,,,,,,,,,,,,,,,,,,,,,,,,,,,,,,,,,,,,,,,1.865,412.6456032,None,414.515631,None,None,1,414.515631,None,416.5194746,None,,,,,,,,,,,,,,,,,,,,,,,,,,,,,,,,P047,FENCOG,1,Pre,2022_May_26_1101,N-Back (New Version 2021),2021.1.4,119.8257733
Conditions/Version_1Pr/twoback(1)_v1.xlsx,New rule: Press 'space' when you see 2-back (i.e. the same letter as the one that appeared 2 letters ago.),s,space,,,,,0,2,2,2,0,5,5,5,,,,,,,,,,,,,,,,,,,,,,,,,,,,,,,,,,,,,,,,,,,1.39,418.0189195,None,419.4109828,None,space,1,419.4109828,None,419.7784525,None,0.3557628,,,,,,,,,,,,,,,,,,,,,,,,,,,,,,,P047,FENCOG,1,Pre,2022_May_26_1101,N-Back (New Version 2021),2021.1.4,119.8257733
Conditions/Version_1Pr/twoback(1)_v1.xlsx,New rule: Press 'space' when you see 2-back (i.e. the same letter as the one that appeared 2 letters ago.),P,None,,,,,0,2,2,2,0,6,6,6,,,,,,,,,,,,,,,,,,,,,,,,,,,,,,,,,,,,,,,,,,,1.24,421.2847017,None,422.5293871,None,None,1,422.5293871,None,424.5337803,None,,,,,,,,,,,,,,,,,,,,,,,,,,,,,,,,P047,FENCOG,1,Pre,2022_May_26_1101,N-Back (New Version 2021),2021.1.4,119.8257733
Conditions/Version_1Pr/twoback(1)_v1.xlsx,New rule: Press 'space' when you see 2-back (i.e. the same letter as the one that appeared 2 letters ago.),C,None,,,,,0,2,2,2,0,7,7,7,,,,,,,,,,,,,,,,,,,,,,,,,,,,,,,,,,,,,,,,,,,2.015,426.0329296,None,428.0509429,None,None,1,428.0509429,None,430.0570591,None,,,,,,,,,,,,,,,,,,,,,,,,,,,,,,,,P047,FENCOG,1,Pre,2022_May_26_1101,N-Back (New Version 2021),2021.1.4,119.8257733
Conditions/Version_1Pr/twoback(1)_v1.xlsx,New rule: Press 'space' when you see 2-back (i.e. the same letter as the one that appeared 2 letters ago.),x,None,,,,,0,2,2,2,0,8,8,8,,,,,,,,,,,,,,,,,,,,,,,,,,,,,,,,,,,,,,,,,,,1.665,431.5567342,None,433.2248914,None,None,1,433.2248914,None,435.2306097,None,,,,,,,,,,,,,,,,,,,,,,,,,,,,,,,,P047,FENCOG,1,Pre,2022_May_26_1101,N-Back (New Version 2021),2021.1.4,119.8257733
Conditions/Version_1Pr/twoback(1)_v1.xlsx,New rule: Press 'space' when you see 2-back (i.e. the same letter as the one that appeared 2 letters ago.),Z,None,,,,,0,2,2,2,0,9,9,9,,,,,,,,,,,,,,,,,,,,,,,,,,,,,,,,,,,,,,,,,,,1.915,436.7301628,None,438.6474406,None,None,1,438.6474406,None,440.6540501,None,,,,,,,,,,,,,,,,,,,,,,,,,,,,,,,,P047,FENCOG,1,Pre,2022_May_26_1101,N-Back (New Version 2021),2021.1.4,119.8257733
Conditions/Version_1Pr/twoback(1)_v1.xlsx,New rule: Press 'space' when you see 2-back (i.e. the same letter as the one that appeared 2 letters ago.),,,,,,,0,2,2,2,,,,,,,,,,,,,,,,,,,,,,,,,,,,,,,,,,,,,,,,,,,,,,,,,,,,,,,,,,,,,,,,,,,,,,,,,,,,,,,,,,,,,,,,,P047,FENCOG,1,Pre,2022_May_26_1101,N-Back (New Version 2021),2021.1.4,119.8257733
Conditions/Version_1Pr/threeback(1)_v1.xlsx,New rule: Press 'space' when you see 3-back (i.e. the same letter as the one that appeared 3 letters ago.),r,None,,,,,0,3,3,3,0,0,0,0,,,,,,,,,,,,,,,,,,,,,,,,,,,,,,,,,442.1747395,None,445.1640188,None,space,0.5707037,445.1640188,None,442.1747395,None,1.365,445.7654611,None,447.1390039,None,None,1,447.1390039,None,449.1431748,None,,,,,,,,,,,,,,,,,,,,,,,,,,,,,,,,P047,FENCOG,1,Pre,2022_May_26_1101,N-Back (New Version 2021),2021.1.4,119.8257733
Conditions/Version_1Pr/threeback(1)_v1.xlsx,New rule: Press 'space' when you see 3-back (i.e. the same letter as the one that appeared 3 letters ago.),a,None,,,,,0,3,3,3,0,1,1,1,,,,,,,,,,,,,,,,,,,,,,,,,,,,,,,,,,,,,,,,,,,1.04,450.6427187,None,451.6860359,None,None,1,451.6860359,None,453.69185,None,,,,,,,,,,,,,,,,,,,,,,,,,,,,,,,,P047,FENCOG,1,Pre,2022_May_26_1101,N-Back (New Version 2021),2021.1.4,119.8257733
Conditions/Version_1Pr/threeback(1)_v1.xlsx,New rule: Press 'space' when you see 3-back (i.e. the same letter as the one that appeared 3 letters ago.),t,None,,,,,0,3,3,3,0,2,2,2,,,,,,,,,,,,,,,,,,,,,,,,,,,,,,,,,,,,,,,,,,,1.29,455.1914088,None,456.4831988,None,None,1,456.4831988,None,458.4902452,None,,,,,,,,,,,,,,,,,,,,,,,,,,,,,,,,P047,FENCOG,1,Pre,2022_May_26_1101,N-Back (New Version 2021),2021.1.4,119.8257733
Conditions/Version_1Pr/threeback(1)_v1.xlsx,New rule: Press 'space' when you see 3-back (i.e. the same letter as the one that appeared 3 letters ago.),r,space,,,,,0,3,3,3,0,3,3,3,,,,,,,,,,,,,,,,,,,,,,,,,,,,,,,,,,,,,,,,,,,1.965,459.9906815,None,461.9576276,None,space,1,461.9576276,None,462.2908079,None,0.3210015,,,,,,,,,,,,,,,,,,,,,,,,,,,,,,,P047,FENCOG,1,Pre,2022_May_26_1101,N-Back (New Version 2021),2021.1.4,119.8257733
Conditions/Version_1Pr/threeback(1)_v1.xlsx,New rule: Press 'space' when you see 3-back (i.e. the same letter as the one that appeared 3 letters ago.),a,None,,,,,0,3,3,3,0,4,4,4,,,,,,,,,,,,,,,,,,,,,,,,,,,,,,,,,,,,,,,,,,,1.915,463.796922,None,465.7131656,None,space,0,465.7131656,None,466.2634002,None,0.5335845,,,,,,,,,,,,,,,,,,,,,,,,,,,,,,,P047,FENCOG,1,Pre,2022_May_26_1101,N-Back (New Version 2021),2021.1.4,119.8257733
Conditions/Version_1Pr/threeback(1)_v1.xlsx,New rule: Press 'space' when you see 3-back (i.e. the same letter as the one that appeared 3 letters ago.),Y,None,,,,,0,3,3,3,0,5,5,5,,,,,,,,,,,,,,,,,,,,,,,,,,,,,,,,,,,,,,,,,,,1.79,467.762499,None,469.5556732,None,None,1,469.5556732,None,471.5627841,None,,,,,,,,,,,,,,,,,,,,,,,,,,,,,,,,P047,FENCOG,1,Pre,2022_May_26_1101,N-Back (New Version 2021),2021.1.4,119.8257733
Conditions/Version_1Pr/threeback(1)_v1.xlsx,New rule: Press 'space' when you see 3-back (i.e. the same letter as the one that appeared 3 letters ago.),q,None,,,,,0,3,3,3,0,6,6,6,,,,,,,,,,,,,,,,,,,,,,,,,,,,,,,,,,,,,,,,,,,1.665,473.0611154,None,474.7288329,None,None,1,474.7288329,None,476.7349286,None,,,,,,,,,,,,,,,,,,,,,,,,,,,,,,,,P047,FENCOG,1,Pre,2022_May_26_1101,N-Back (New Version 2021),2021.1.4,119.8257733
Conditions/Version_1Pr/threeback(1)_v1.xlsx,New rule: Press 'space' when you see 3-back (i.e. the same letter as the one that appeared 3 letters ago.),A,space,,,,,0,3,3,3,0,7,7,7,,,,,,,,,,,,,,,,,,,,,,,,,,,,,,,,,,,,,,,,,,,1.615,478.2345242,None,479.8536384,None,space,1,479.8536384,None,480.6687106,None,0.8008681,,,,,,,,,,,,,,,,,,,,,,,,,,,,,,,P047,FENCOG,1,Pre,2022_May_26_1101,N-Back (New Version 2021),2021.1.4,119.8257733
Conditions/Version_1Pr/threeback(1)_v1.xlsx,New rule: Press 'space' when you see 3-back (i.e. the same letter as the one that appeared 3 letters ago.),y,None,,,,,0,3,3,3,0,8,8,8,,,,,,,,,,,,,,,,,,,,,,,,,,,,,,,,,,,,,,,,,,,1.09,482.1750213,None,483.2662872,None,None,1,483.2662872,None,485.2656846,None,,,,,,,,,,,,,,,,,,,,,,,,,,,,,,,,P047,FENCOG,1,Pre,2022_May_26_1101,N-Back (New Version 2021),2021.1.4,119.8257733
Conditions/Version_1Pr/threeback(1)_v1.xlsx,New rule: Press 'space' when you see 3-back (i.e. the same letter as the one that appeared 3 letters ago.),r,None,,,,,0,3,3,3,0,9,9,9,,,,,,,,,,,,,,,,,,,,,,,,,,,,,,,,,,,,,,,,,,,2.015,486.7653751,None,488.7821628,None,space,0,488.7821628,None,489.3601248,None,0.5603585,,,,,,,,,,,,,,,,,,,,,,,,,,,,,,,P047,FENCOG,1,Pre,2022_May_26_1101,N-Back (New Version 2021),2021.1.4,119.8257733
Conditions/Version_1Pr/threeback(1)_v1.xlsx,New rule: Press 'space' when you see 3-back (i.e. the same letter as the one that appeared 3 letters ago.),,,,,,,0,3,3,3,,,,,,,,,,,,,,,,,,,,,,,,,,,,,,,,,,,,,,,,,,,,,,,,,,,,,,,,,,,,,,,,,,,,,,,,,,,,,,,,,,,,,,,,,P047,FENCOG,1,Pre,2022_May_26_1101,N-Back (New Version 2021),2021.1.4,119.8257733
,,,,,,,,,,,,,,,,,,,,,,,,,,,,,,,,,,,,,,,,,,,,,,,,,,,,,,,,,,,,,,,,,,,,,,490.8879074,None,space,8.2897956,491.3725791,None,,,,,,,,,,,,,,,,,,,,,,,,,P047,FENCOG,1,Pre,2022_May_26_1101,N-Back (New Version 2021),2021.1.4,119.8257733
,,,,,,,,,,,,,,,,,,,,,,,,,,,,,,,,,,,,,,,,,,,,,,,,,,,,,,,,,,,,,,,,,,,,,,,,,,,,499.6815741,None,space,4.1961231,500.1786778,None,,,,,,,,,,,,,,,,,,,P047,FENCOG,1,Pre,2022_May_26_1101,N-Back (New Version 2021),2021.1.4,119.8257733
,,,,Conditions/Version_1/zeroback(1)_v1.xlsx,Rule: Press 'space' when you see the letter 'x' or 'X'.,b,None,,,,,,,,,0,0,0,0,0,0,0,0,,,,,,,,,,,,,,,,,,,,,,,,,,,,,,,,,,,,,,,,,,,,,,,,,,,,,,,,,,,504.4877897,None,507.4777916,None,space,0.640825,507.4777916,None,504.4877897,None,1.0782,509.2349213,None,None,1,509.2349213,None,,P047,FENCOG,1,Pre,2022_May_26_1101,N-Back (New Version 2021),2021.1.4,119.8257733
,,,,Conditions/Version_1/zeroback(1)_v1.xlsx,Rule: Press 'space' when you see the letter 'x' or 'X'.,T,None,,,,,,,,,0,0,0,0,0,1,1,1,,,,,,,,,,,,,,,,,,,,,,,,,,,,,,,,,,,,,,,,,,,,,,,,,,,,,,,,,,,,,,,,,,,,,1.01,512.2591707,None,None,1,512.2591707,None,,P047,FENCOG,1,Pre,2022_May_26_1101,N-Back (New Version 2021),2021.1.4,119.8257733
,,,,Conditions/Version_1/zeroback(1)_v1.xlsx,Rule: Press 'space' when you see the letter 'x' or 'X'.,L,None,,,,,,,,,0,0,0,0,0,2,2,2,,,,,,,,,,,,,,,,,,,,,,,,,,,,,,,,,,,,,,,,,,,,,,,,,,,,,,,,,,,,,,,,,,,,,1.723,515.9906291,None,None,1,515.9906291,None,,P047,FENCOG,1,Pre,2022_May_26_1101,N-Back (New Version 2021),2021.1.4,119.8257733
,,,,Conditions/Version_1/zeroback(1)_v1.xlsx,Rule: Press 'space' when you see the letter 'x' or 'X'.,x,space,,,,,,,,,0,0,0,0,0,3,3,3,,,,,,,,,,,,,,,,,,,,,,,,,,,,,,,,,,,,,,,,,,,,,,,,,,,,,,,,,,,,,,,,,,,,,1.413,519.4158516,None,space,1,519.4158516,None,1.3985207,P047,FENCOG,1,Pre,2022_May_26_1101,N-Back (New Version 2021),2021.1.4,119.8257733
,,,,Conditions/Version_1/zeroback(1)_v1.xlsx,Rule: Press 'space' when you see the letter 'x' or 'X'.,o,None,,,,,,,,,0,0,0,0,0,4,4,4,,,,,,,,,,,,,,,,,,,,,,,,,,,,,,,,,,,,,,,,,,,,,,,,,,,,,,,,,,,,,,,,,,,,,1.4564,522.8811753,None,None,1,522.8811753,None,,P047,FENCOG,1,Pre,2022_May_26_1101,N-Back (New Version 2021),2021.1.4,119.8257733
,,,,Conditions/Version_1/zeroback(1)_v1.xlsx,Rule: Press 'space' when you see the letter 'x' or 'X'.,P,None,,,,,,,,,0,0,0,0,0,5,5,5,,,,,,,,,,,,,,,,,,,,,,,,,,,,,,,,,,,,,,,,,,,,,,,,,,,,,,,,,,,,,,,,,,,,,1.661,526.5534893,None,None,1,526.5534893,None,,P047,FENCOG,1,Pre,2022_May_26_1101,N-Back (New Version 2021),2021.1.4,119.8257733
,,,,Conditions/Version_1/zeroback(1)_v1.xlsx,Rule: Press 'space' when you see the letter 'x' or 'X'.,X,space,,,,,,,,,0,0,0,0,0,6,6,6,,,,,,,,,,,,,,,,,,,,,,,,,,,,,,,,,,,,,,,,,,,,,,,,,,,,,,,,,,,,,,,,,,,,,1.3386,529.9024845,None,space,1,529.9024845,None,0.4238963,P047,FENCOG,1,Pre,2022_May_26_1101,N-Back (New Version 2021),2021.1.4,119.8257733
,,,,Conditions/Version_1/zeroback(1)_v1.xlsx,Rule: Press 'space' when you see the letter 'x' or 'X'.,n,None,,,,,,,,,0,0,0,0,0,7,7,7,,,,,,,,,,,,,,,,,,,,,,,,,,,,,,,,,,,,,,,,,,,,,,,,,,,,,,,,,,,,,,,,,,,,,1.1154,533.020137,None,None,1,533.020137,None,,P047,FENCOG,1,Pre,2022_May_26_1101,N-Back (New Version 2021),2021.1.4,119.8257733
,,,,Conditions/Version_1/zeroback(1)_v1.xlsx,Rule: Press 'space' when you see the letter 'x' or 'X'.,M,None,,,,,,,,,0,0,0,0,0,8,8,8,,,,,,,,,,,,,,,,,,,,,,,,,,,,,,,,,,,,,,,,,,,,,,,,,,,,,,,,,,,,,,,,,,,,,1.7602,536.794834,None,None,1,536.794834,None,,P047,FENCOG,1,Pre,2022_May_26_1101,N-Back (New Version 2021),2021.1.4,119.8257733
,,,,Conditions/Version_1/zeroback(1)_v1.xlsx,Rule: Press 'space' when you see the letter 'x' or 'X'.,a,None,,,,,,,,,0,0,0,0,0,9,9,9,,,,,,,,,,,,,,,,,,,,,,,,,,,,,,,,,,,,,,,,,,,,,,,,,,,,,,,,,,,,,,,,,,,,,1.2022,540.0079901,None,None,1,540.0079901,None,,P047,FENCOG,1,Pre,2022_May_26_1101,N-Back (New Version 2021),2021.1.4,119.8257733
,,,,Conditions/Version_1/zeroback(1)_v1.xlsx,Rule: Press 'space' when you see the letter 'x' or 'X'.,,,,,,,,,,,0,0,0,0,,,,,,,,,,,,,,,,,,,,,,,,,,,,,,,,,,,,,,,,,,,,,,,,,,,,,,,,,,,,,,,,,,,,,,,,,,,,,,,,,P047,FENCOG,1,Pre,2022_May_26_1101,N-Back (New Version 2021),2021.1.4,119.8257733
,,,,Conditions/Version_1/oneback(1)_v1.xlsx,New rule: Press 'space' when you see 1-back (i.e. the same letter as the one that appeared 1 letter ago.),b,None,,,,,,,,,0,1,1,1,0,0,0,0,,,,,,,,,,,,,,,,,,,,,,,,,,,,,,,,,,,,,,,,,,,,,,,,,,,,,,,,,,,542.0299797,None,545.0169303,None,space,0.8934706,545.0169303,None,542.0299797,None,1.1712,547.1140888,None,None,1,547.1140888,None,,P047,FENCOG,1,Pre,2022_May_26_1101,N-Back (New Version 2021),2021.1.4,119.8257733
,,,,Conditions/Version_1/oneback(1)_v1.xlsx,New rule: Press 'space' when you see 1-back (i.e. the same letter as the one that appeared 1 letter ago.),p,None,,,,,,,,,0,1,1,1,0,1,1,1,,,,,,,,,,,,,,,,,,,,,,,,,,,,,,,,,,,,,,,,,,,,,,,,,,,,,,,,,,,,,,,,,,,,,1.7168,550.8418065,None,None,1,550.8418065,None,,P047,FENCOG,1,Pre,2022_May_26_1101,N-Back (New Version 2021),2021.1.4,119.8257733
,,,,Conditions/Version_1/oneback(1)_v1.xlsx,New rule: Press 'space' when you see 1-back (i.e. the same letter as the one that appeared 1 letter ago.),M,None,,,,,,,,,0,1,1,1,0,2,2,2,,,,,,,,,,,,,,,,,,,,,,,,,,,,,,,,,,,,,,,,,,,,,,,,,,,,,,,,,,,,,,,,,,,,,1.5866,554.439664,None,None,1,554.439664,None,,P047,FENCOG,1,Pre,2022_May_26_1101,N-Back (New Version 2021),2021.1.4,119.8257733
,,,,Conditions/Version_1/oneback(1)_v1.xlsx,New rule: Press 'space' when you see 1-back (i.e. the same letter as the one that appeared 1 letter ago.),M,space,,,,,,,,,0,1,1,1,0,3,3,3,,,,,,,,,,,,,,,,,,,,,,,,,,,,,,,,,,,,,,,,,,,,,,,,,,,,,,,,,,,,,,,,,,,,,1.7726,558.2193395,None,space,1,558.2193395,None,0.3870121,P047,FENCOG,1,Pre,2022_May_26_1101,N-Back (New Version 2021),2021.1.4,119.8257733
,,,,Conditions/Version_1/oneback(1)_v1.xlsx,New rule: Press 'space' when you see 1-back (i.e. the same letter as the one that appeared 1 letter ago.),n,None,,,,,,,,,0,1,1,1,0,4,4,4,,,,,,,,,,,,,,,,,,,,,,,,,,,,,,,,,,,,,,,,,,,,,,,,,,,,,,,,,,,,,,,,,,,,,1.8346,562.0595862,None,None,1,562.0595862,None,,P047,FENCOG,1,Pre,2022_May_26_1101,N-Back (New Version 2021),2021.1.4,119.8257733
,,,,Conditions/Version_1/oneback(1)_v1.xlsx,New rule: Press 'space' when you see 1-back (i.e. the same letter as the one that appeared 1 letter ago.),g,None,,,,,,,,,0,1,1,1,0,5,5,5,,,,,,,,,,,,,,,,,,,,,,,,,,,,,,,,,,,,,,,,,,,,,,,,,,,,,,,,,,,,,,,,,,,,,1.4564,565.5276889,None,None,1,565.5276889,None,,P047,FENCOG,1,Pre,2022_May_26_1101,N-Back (New Version 2021),2021.1.4,119.8257733
,,,,Conditions/Version_1/oneback(1)_v1.xlsx,New rule: Press 'space' when you see 1-back (i.e. the same letter as the one that appeared 1 letter ago.),P,None,,,,,,,,,0,1,1,1,0,6,6,6,,,,,,,,,,,,,,,,,,,,,,,,,,,,,,,,,,,,,,,,,,,,,,,,,,,,,,,,,,,,,,,,,,,,,1.8408,569.3741004,None,None,1,569.3741004,None,,P047,FENCOG,1,Pre,2022_May_26_1101,N-Back (New Version 2021),2021.1.4,119.8257733
,,,,Conditions/Version_1/oneback(1)_v1.xlsx,New rule: Press 'space' when you see 1-back (i.e. the same letter as the one that appeared 1 letter ago.),o,None,,,,,,,,,0,1,1,1,0,7,7,7,,,,,,,,,,,,,,,,,,,,,,,,,,,,,,,,,,,,,,,,,,,,,,,,,,,,,,,,,,,,,,,,,,,,,1.692,573.0737723,None,None,1,573.0737723,None,,P047,FENCOG,1,Pre,2022_May_26_1101,N-Back (New Version 2021),2021.1.4,119.8257733
,,,,Conditions/Version_1/oneback(1)_v1.xlsx,New rule: Press 'space' when you see 1-back (i.e. the same letter as the one that appeared 1 letter ago.),f,None,,,,,,,,,0,1,1,1,0,8,8,8,,,,,,,,,,,,,,,,,,,,,,,,,,,,,,,,,,,,,,,,,,,,,,,,,,,,,,,,,,,,,,,,,,,,,1.9338,577.0237755,None,None,1,577.0237755,None,,P047,FENCOG,1,Pre,2022_May_26_1101,N-Back (New Version 2021),2021.1.4,119.8257733
,,,,Conditions/Version_1/oneback(1)_v1.xlsx,New rule: Press 'space' when you see 1-back (i.e. the same letter as the one that appeared 1 letter ago.),F,space,,,,,,,,,0,1,1,1,0,9,9,9,,,,,,,,,,,,,,,,,,,,,,,,,,,,,,,,,,,,,,,,,,,,,,,,,,,,,,,,,,,,,,,,,,,,,1.4812,580.5139736,None,space,1,580.5139736,None,0.5812888,P047,FENCOG,1,Pre,2022_May_26_1101,N-Back (New Version 2021),2021.1.4,119.8257733
,,,,Conditions/Version_1/oneback(1)_v1.xlsx,New rule: Press 'space' when you see 1-back (i.e. the same letter as the one that appeared 1 letter ago.),,,,,,,,,,,0,1,1,1,,,,,,,,,,,,,,,,,,,,,,,,,,,,,,,,,,,,,,,,,,,,,,,,,,,,,,,,,,,,,,,,,,,,,,,,,,,,,,,,,P047,FENCOG,1,Pre,2022_May_26_1101,N-Back (New Version 2021),2021.1.4,119.8257733
,,,,Conditions/Version_1/twoback(1)_v1.xlsx,New rule: Press 'space' when you see 2-back (i.e. the same letter as the one that appeared 2 letters ago.),b,None,,,,,,,,,0,2,2,2,0,0,0,0,,,,,,,,,,,,,,,,,,,,,,,,,,,,,,,,,,,,,,,,,,,,,,,,,,,,,,,,,,,582.5410877,None,585.5305386,None,space,0.5797246,585.5305386,None,582.5410877,None,1.9276,588.0698586,None,None,1,588.0698586,None,,P047,FENCOG,1,Pre,2022_May_26_1101,N-Back (New Version 2021),2021.1.4,119.8257733
,,,,Conditions/Version_1/twoback(1)_v1.xlsx,New rule: Press 'space' when you see 2-back (i.e. the same letter as the one that appeared 2 letters ago.),h,None,,,,,,,,,0,2,2,2,0,1,1,1,,,,,,,,,,,,,,,,,,,,,,,,,,,,,,,,,,,,,,,,,,,,,,,,,,,,,,,,,,,,,,,,,,,,,1.3262,591.411036,None,None,1,591.411036,None,,P047,FENCOG,1,Pre,2022_May_26_1101,N-Back (New Version 2021),2021.1.4,119.8257733
,,,,Conditions/Version_1/twoback(1)_v1.xlsx,New rule: Press 'space' when you see 2-back (i.e. the same letter as the one that appeared 2 letters ago.),j,None,,,,,,,,,0,2,2,2,0,2,2,2,,,,,,,,,,,,,,,,,,,,,,,,,,,,,,,,,,,,,,,,,,,,,,,,,,,,,,,,,,,,,,,,,,,,,1.8842,595.3097817,None,None,1,595.3097817,None,,P047,FENCOG,1,Pre,2022_May_26_1101,N-Back (New Version 2021),2021.1.4,119.8257733
,,,,Conditions/Version_1/twoback(1)_v1.xlsx,New rule: Press 'space' when you see 2-back (i.e. the same letter as the one that appeared 2 letters ago.),H,space,,,,,,,,,0,2,2,2,0,3,3,3,,,,,,,,,,,,,,,,,,,,,,,,,,,,,,,,,,,,,,,,,,,,,,,,,,,,,,,,,,,,,,,,,,,,,1.1278,598.4513697,None,space,1,598.4513697,None,0.8590512,P047,FENCOG,1,Pre,2022_May_26_1101,N-Back (New Version 2021),2021.1.4,119.8257733
,,,,Conditions/Version_1/twoback(1)_v1.xlsx,New rule: Press 'space' when you see 2-back (i.e. the same letter as the one that appeared 2 letters ago.),p,None,,,,,,,,,0,2,2,2,0,4,4,4,,,,,,,,,,,,,,,,,,,,,,,,,,,,,,,,,,,,,,,,,,,,,,,,,,,,,,,,,,,,,,,,,,,,,1.7354,602.1975527,None,None,1,602.1975527,None,,P047,FENCOG,1,Pre,2022_May_26_1101,N-Back (New Version 2021),2021.1.4,119.8257733
,,,,Conditions/Version_1/twoback(1)_v1.xlsx,New rule: Press 'space' when you see 2-back (i.e. the same letter as the one that appeared 2 letters ago.),p,None,,,,,,,,,0,2,2,2,0,5,5,5,,,,,,,,,,,,,,,,,,,,,,,,,,,,,,,,,,,,,,,,,,,,,,,,,,,,,,,,,,,,,,,,,,,,,1.8904,606.0882977,None,None,1,606.0882977,None,,P047,FENCOG,1,Pre,2022_May_26_1101,N-Back (New Version 2021),2021.1.4,119.8257733
,,,,Conditions/Version_1/twoback(1)_v1.xlsx,New rule: Press 'space' when you see 2-back (i.e. the same letter as the one that appeared 2 letters ago.),w,None,,,,,,,,,0,2,2,2,0,6,6,6,,,,,,,,,,,,,,,,,,,,,,,,,,,,,,,,,,,,,,,,,,,,,,,,,,,,,,,,,,,,,,,,,,,,,1.196,609.2912478,None,None,1,609.2912478,None,,P047,FENCOG,1,Pre,2022_May_26_1101,N-Back (New Version 2021),2021.1.4,119.8257733
,,,,Conditions/Version_1/twoback(1)_v1.xlsx,New rule: Press 'space' when you see 2-back (i.e. the same letter as the one that appeared 2 letters ago.),R,None,,,,,,,,,0,2,2,2,0,7,7,7,,,,,,,,,,,,,,,,,,,,,,,,,,,,,,,,,,,,,,,,,,,,,,,,,,,,,,,,,,,,,,,,,,,,,1.4068,612.7044605,None,None,1,612.7044605,None,,P047,FENCOG,1,Pre,2022_May_26_1101,N-Back (New Version 2021),2021.1.4,119.8257733
,,,,Conditions/Version_1/twoback(1)_v1.xlsx,New rule: Press 'space' when you see 2-back (i.e. the same letter as the one that appeared 2 letters ago.),a,None,,,,,,,,,0,2,2,2,0,8,8,8,,,,,,,,,,,,,,,,,,,,,,,,,,,,,,,,,,,,,,,,,,,,,,,,,,,,,,,,,,,,,,,,,,,,,1.7168,616.4285703,None,None,1,616.4285703,None,,P047,FENCOG,1,Pre,2022_May_26_1101,N-Back (New Version 2021),2021.1.4,119.8257733
,,,,Conditions/Version_1/twoback(1)_v1.xlsx,New rule: Press 'space' when you see 2-back (i.e. the same letter as the one that appeared 2 letters ago.),r,space,,,,,,,,,0,2,2,2,0,9,9,9,,,,,,,,,,,,,,,,,,,,,,,,,,,,,,,,,,,,,,,,,,,,,,,,,,,,,,,,,,,,,,,,,,,,,1.6362,620.0758531,None,space,1,620.0758531,None,0.4186112,P047,FENCOG,1,Pre,2022_May_26_1101,N-Back (New Version 2021),2021.1.4,119.8257733
,,,,Conditions/Version_1/twoback(1)_v1.xlsx,New rule: Press 'space' when you see 2-back (i.e. the same letter as the one that appeared 2 letters ago.),,,,,,,,,,,0,2,2,2,,,,,,,,,,,,,,,,,,,,,,,,,,,,,,,,,,,,,,,,,,,,,,,,,,,,,,,,,,,,,,,,,,,,,,,,,,,,,,,,,P047,FENCOG,1,Pre,2022_May_26_1101,N-Back (New Version 2021),2021.1.4,119.8257733
,,,,Conditions/Version_1/threeback(1)_v1.xlsx,New rule: Press 'space' when you see 3-back (i.e. the same letter as the one that appeared 3 letters ago.),r,None,,,,,,,,,0,3,3,3,0,0,0,0,,,,,,,,,,,,,,,,,,,,,,,,,,,,,,,,,,,,,,,,,,,,,,,,,,,,,,,,,,,622.0967973,None,625.0851875,None,space,2.0731798,625.0851875,None,622.0967973,None,1.6486,628.8399507,None,None,1,628.8399507,None,,P047,FENCOG,1,Pre,2022_May_26_1101,N-Back (New Version 2021),2021.1.4,119.8257733
,,,,Conditions/Version_1/threeback(1)_v1.xlsx,New rule: Press 'space' when you see 3-back (i.e. the same letter as the one that appeared 3 letters ago.),o,None,,,,,,,,,0,3,3,3,0,1,1,1,,,,,,,,,,,,,,,,,,,,,,,,,,,,,,,,,,,,,,,,,,,,,,,,,,,,,,,,,,,,,,,,,,,,,1.2084,632.0482686,None,None,1,632.0482686,None,,P047,FENCOG,1,Pre,2022_May_26_1101,N-Back (New Version 2021),2021.1.4,119.8257733
,,,,Conditions/Version_1/threeback(1)_v1.xlsx,New rule: Press 'space' when you see 3-back (i.e. the same letter as the one that appeared 3 letters ago.),P,None,,,,,,,,,0,3,3,3,0,2,2,2,,,,,,,,,,,,,,,,,,,,,,,,,,,,,,,,,,,,,,,,,,,,,,,,,,,,,,,,,,,,,,,,,,,,,1.7788,635.8413487,None,None,1,635.8413487,None,,P047,FENCOG,1,Pre,2022_May_26_1101,N-Back (New Version 2021),2021.1.4,119.8257733
,,,,Conditions/Version_1/threeback(1)_v1.xlsx,New rule: Press 'space' when you see 3-back (i.e. the same letter as the one that appeared 3 letters ago.),R,space,,,,,,,,,0,3,3,3,0,3,3,3,,,,,,,,,,,,,,,,,,,,,,,,,,,,,,,,,,,,,,,,,,,,,,,,,,,,,,,,,,,,,,,,,,,,,1.5866,639.4377726,None,space,1,639.4377726,None,0.4724536,P047,FENCOG,1,Pre,2022_May_26_1101,N-Back (New Version 2021),2021.1.4,119.8257733
,,,,Conditions/Version_1/threeback(1)_v1.xlsx,New rule: Press 'space' when you see 3-back (i.e. the same letter as the one that appeared 3 letters ago.),p,None,,,,,,,,,0,3,3,3,0,4,4,4,,,,,,,,,,,,,,,,,,,,,,,,,,,,,,,,,,,,,,,,,,,,,,,,,,,,,,,,,,,,,,,,,,,,,1.4378,642.8857183,None,None,1,642.8857183,None,,P047,FENCOG,1,Pre,2022_May_26_1101,N-Back (New Version 2021),2021.1.4,119.8257733
,,,,Conditions/Version_1/threeback(1)_v1.xlsx,New rule: Press 'space' when you see 3-back (i.e. the same letter as the one that appeared 3 letters ago.),E,None,,,,,,,,,0,3,3,3,0,5,5,5,,,,,,,,,,,,,,,,,,,,,,,,,,,,,,,,,,,,,,,,,,,,,,,,,,,,,,,,,,,,,,,,,,,,,1.6734,646.5600474,None,None,1,646.5600474,None,,P047,FENCOG,1,Pre,2022_May_26_1101,N-Back (New Version 2021),2021.1.4,119.8257733
,,,,Conditions/Version_1/threeback(1)_v1.xlsx,New rule: Press 'space' when you see 3-back (i.e. the same letter as the one that appeared 3 letters ago.),e,None,,,,,,,,,0,3,3,3,0,6,6,6,,,,,,,,,,,,,,,,,,,,,,,,,,,,,,,,,,,,,,,,,,,,,,,,,,,,,,,,,,,,,,,,,,,,,1.3758,649.9424971,None,None,1,649.9424971,None,,P047,FENCOG,1,Pre,2022_May_26_1101,N-Back (New Version 2021),2021.1.4,119.8257733
,,,,Conditions/Version_1/threeback(1)_v1.xlsx,New rule: Press 'space' when you see 3-back (i.e. the same letter as the one that appeared 3 letters ago.),m,None,,,,,,,,,0,3,3,3,0,7,7,7,,,,,,,,,,,,,,,,,,,,,,,,,,,,,,,,,,,,,,,,,,,,,,,,,,,,,,,,,,,,,,,,,,,,,1.3696,653.3179689,None,None,1,653.3179689,None,,P047,FENCOG,1,Pre,2022_May_26_1101,N-Back (New Version 2021),2021.1.4,119.8257733
,,,,Conditions/Version_1/threeback(1)_v1.xlsx,New rule: Press 'space' when you see 3-back (i.e. the same letter as the one that appeared 3 letters ago.),n,None,,,,,,,,,0,3,3,3,0,8,8,8,,,,,,,,,,,,,,,,,,,,,,,,,,,,,,,,,,,,,,,,,,,,,,,,,,,,,,,,,,,,,,,,,,,,,1.661,656.9918609,None,None,1,656.9918609,None,,P047,FENCOG,1,Pre,2022_May_26_1101,N-Back (New Version 2021),2021.1.4,119.8257733
,,,,Conditions/Version_1/threeback(1)_v1.xlsx,New rule: Press 'space' when you see 3-back (i.e. the same letter as the one that appeared 3 letters ago.),e,space,,,,,,,,,0,3,3,3,0,9,9,9,,,,,,,,,,,,,,,,,,,,,,,,,,,,,,,,,,,,,,,,,,,,,,,,,,,,,,,,,,,,,,,,,,,,,1.4068,660.4055195,None,None,0,660.4055195,None,,P047,FENCOG,1,Pre,2022_May_26_1101,N-Back (New Version 2021),2021.1.4,119.8257733
,,,,Conditions/Version_1/threeback(1)_v1.xlsx,New rule: Press 'space' when you see 3-back (i.e. the same letter as the one that appeared 3 letters ago.),,,,,,,,,,,0,3,3,3,,,,,,,,,,,,,,,,,,,,,,,,,,,,,,,,,,,,,,,,,,,,,,,,,,,,,,,,,,,,,,,,,,,,,,,,,,,,,,,,,P047,FENCOG,1,Pre,2022_May_26_1101,N-Back (New Version 2021),2021.1.4,119.8257733
,,,,Conditions/Version_1/oneback(2)_v1.xlsx,New rule: Press 'space' when you see 1-back (i.e. the same letter as the one that appeared 1 letter ago.),q,None,,,,,,,,,0,4,4,4,0,0,0,0,,,,,,,,,,,,,,,,,,,,,,,,,,,,,,,,,,,,,,,,,,,,,,,,,,,,,,,,,,,662.4296429,None,665.4149176,None,space,0.0552506,665.4149176,None,662.4296429,None,1.8718,667.3793759,None,None,1,667.3793759,None,,P047,FENCOG,1,Pre,2022_May_26_1101,N-Back (New Version 2021),2021.1.4,119.8257733
,,,,Conditions/Version_1/oneback(2)_v1.xlsx,New rule: Press 'space' when you see 1-back (i.e. the same letter as the one that appeared 1 letter ago.),Q,space,,,,,,,,,0,4,4,4,0,1,1,1,,,,,,,,,,,,,,,,,,,,,,,,,,,,,,,,,,,,,,,,,,,,,,,,,,,,,,,,,,,,,,,,,,,,,1.7974,671.1886792,None,space,1,671.1886792,None,0.3455369,P047,FENCOG,1,Pre,2022_May_26_1101,N-Back (New Version 2021),2021.1.4,119.8257733
,,,,Conditions/Version_1/oneback(2)_v1.xlsx,New rule: Press 'space' when you see 1-back (i.e. the same letter as the one that appeared 1 letter ago.),P,None,,,,,,,,,0,4,4,4,0,2,2,2,,,,,,,,,,,,,,,,,,,,,,,,,,,,,,,,,,,,,,,,,,,,,,,,,,,,,,,,,,,,,,,,,,,,,1.289,674.4849291,None,None,1,674.4849291,None,,P047,FENCOG,1,Pre,2022_May_26_1101,N-Back (New Version 2021),2021.1.4,119.8257733
,,,,Conditions/Version_1/oneback(2)_v1.xlsx,New rule: Press 'space' when you see 1-back (i.e. the same letter as the one that appeared 1 letter ago.),o,None,,,,,,,,,0,4,4,4,0,3,3,3,,,,,,,,,,,,,,,,,,,,,,,,,,,,,,,,,,,,,,,,,,,,,,,,,,,,,,,,,,,,,,,,,,,,,1.5432,678.0343377,None,None,1,678.0343377,None,,P047,FENCOG,1,Pre,2022_May_26_1101,N-Back (New Version 2021),2021.1.4,119.8257733
,,,,Conditions/Version_1/oneback(2)_v1.xlsx,New rule: Press 'space' when you see 1-back (i.e. the same letter as the one that appeared 1 letter ago.),m,None,,,,,,,,,0,4,4,4,0,4,4,4,,,,,,,,,,,,,,,,,,,,,,,,,,,,,,,,,,,,,,,,,,,,,,,,,,,,,,,,,,,,,,,,,,,,,1.4502,681.4909833,None,None,1,681.4909833,None,,P047,FENCOG,1,Pre,2022_May_26_1101,N-Back (New Version 2021),2021.1.4,119.8257733
,,,,Conditions/Version_1/oneback(2)_v1.xlsx,New rule: Press 'space' when you see 1-back (i.e. the same letter as the one that appeared 1 letter ago.),Z,None,,,,,,,,,0,4,4,4,0,5,5,5,,,,,,,,,,,,,,,,,,,,,,,,,,,,,,,,,,,,,,,,,,,,,,,,,,,,,,,,,,,,,,,,,,,,,1.103,684.5983728,None,None,1,684.5983728,None,,P047,FENCOG,1,Pre,2022_May_26_1101,N-Back (New Version 2021),2021.1.4,119.8257733
,,,,Conditions/Version_1/oneback(2)_v1.xlsx,New rule: Press 'space' when you see 1-back (i.e. the same letter as the one that appeared 1 letter ago.),c,None,,,,,,,,,0,4,4,4,0,6,6,6,,,,,,,,,,,,,,,,,,,,,,,,,,,,,,,,,,,,,,,,,,,,,,,,,,,,,,,,,,,,,,,,,,,,,1.32,687.9244687,None,None,1,687.9244687,None,,P047,FENCOG,1,Pre,2022_May_26_1101,N-Back (New Version 2021),2021.1.4,119.8257733
,,,,Conditions/Version_1/oneback(2)_v1.xlsx,New rule: Press 'space' when you see 1-back (i.e. the same letter as the one that appeared 1 letter ago.),c,space,,,,,,,,,0,4,4,4,0,7,7,7,,,,,,,,,,,,,,,,,,,,,,,,,,,,,,,,,,,,,,,,,,,,,,,,,,,,,,,,,,,,,,,,,,,,,1.3014,691.2380008,None,space,1,691.2380008,None,0.3764775,P047,FENCOG,1,Pre,2022_May_26_1101,N-Back (New Version 2021),2021.1.4,119.8257733
,,,,Conditions/Version_1/oneback(2)_v1.xlsx,New rule: Press 'space' when you see 1-back (i.e. the same letter as the one that appeared 1 letter ago.),P,None,,,,,,,,,0,4,4,4,0,8,8,8,,,,,,,,,,,,,,,,,,,,,,,,,,,,,,,,,,,,,,,,,,,,,,,,,,,,,,,,,,,,,,,,,,,,,1.1712,694.4212071,None,None,1,694.4212071,None,,P047,FENCOG,1,Pre,2022_May_26_1101,N-Back (New Version 2021),2021.1.4,119.8257733
,,,,Conditions/Version_1/oneback(2)_v1.xlsx,New rule: Press 'space' when you see 1-back (i.e. the same letter as the one that appeared 1 letter ago.),p,space,,,,,,,,,0,4,4,4,0,9,9,9,,,,,,,,,,,,,,,,,,,,,,,,,,,,,,,,,,,,,,,,,,,,,,,,,,,,,,,,,,,,,,,,,,,,,1.7354,698.1704959,None,space,1,698.1704959,None,0.3556198,P047,FENCOG,1,Pre,2022_May_26_1101,N-Back (New Version 2021),2021.1.4,119.8257733
,,,,Conditions/Version_1/oneback(2)_v1.xlsx,New rule: Press 'space' when you see 1-back (i.e. the same letter as the one that appeared 1 letter ago.),,,,,,,,,,,0,4,4,4,,,,,,,,,,,,,,,,,,,,,,,,,,,,,,,,,,,,,,,,,,,,,,,,,,,,,,,,,,,,,,,,,,,,,,,,,,,,,,,,,P047,FENCOG,1,Pre,2022_May_26_1101,N-Back (New Version 2021),2021.1.4,119.8257733
,,,,Conditions/Version_1/zeroback(2)_v1.xlsx,New rule: Press 'space' when you see the letter 'x' or 'X'.,p,None,,,,,,,,,0,5,5,5,0,0,0,0,,,,,,,,,,,,,,,,,,,,,,,,,,,,,,,,,,,,,,,,,,,,,,,,,,,,,,,,,,,700.1969559,None,703.1782663,None,space,0.5799624,703.1782663,None,700.1969559,None,1.258,705.0509287,None,None,1,705.0509287,None,,P047,FENCOG,1,Pre,2022_May_26_1101,N-Back (New Version 2021),2021.1.4,119.8257733
,,,,Conditions/Version_1/zeroback(2)_v1.xlsx,New rule: Press 'space' when you see the letter 'x' or 'X'.,L,None,,,,,,,,,0,5,5,5,0,1,1,1,,,,,,,,,,,,,,,,,,,,,,,,,,,,,,,,,,,,,,,,,,,,,,,,,,,,,,,,,,,,,,,,,,,,,1.1092,708.1666092,None,None,1,708.1666092,None,,P047,FENCOG,1,Pre,2022_May_26_1101,N-Back (New Version 2021),2021.1.4,119.8257733
,,,,Conditions/Version_1/zeroback(2)_v1.xlsx,New rule: Press 'space' when you see the letter 'x' or 'X'.,G,None,,,,,,,,,0,5,5,5,0,2,2,2,,,,,,,,,,,,,,,,,,,,,,,,,,,,,,,,,,,,,,,,,,,,,,,,,,,,,,,,,,,,,,,,,,,,,1.5804,711.7487164,None,None,1,711.7487164,None,,P047,FENCOG,1,Pre,2022_May_26_1101,N-Back (New Version 2021),2021.1.4,119.8257733
,,,,Conditions/Version_1/zeroback(2)_v1.xlsx,New rule: Press 'space' when you see the letter 'x' or 'X'.,y,None,,,,,,,,,0,5,5,5,0,3,3,3,,,,,,,,,,,,,,,,,,,,,,,,,,,,,,,,,,,,,,,,,,,,,,,,,,,,,,,,,,,,,,,,,,,,,1.3076,715.0560798,None,None,1,715.0560798,None,,P047,FENCOG,1,Pre,2022_May_26_1101,N-Back (New Version 2021),2021.1.4,119.8257733
,,,,Conditions/Version_1/zeroback(2)_v1.xlsx,New rule: Press 'space' when you see the letter 'x' or 'X'.,Y,None,,,,,,,,,0,5,5,5,0,4,4,4,,,,,,,,,,,,,,,,,,,,,,,,,,,,,,,,,,,,,,,,,,,,,,,,,,,,,,,,,,,,,,,,,,,,,1.7168,718.7725491,None,None,1,718.7725491,None,,P047,FENCOG,1,Pre,2022_May_26_1101,N-Back (New Version 2021),2021.1.4,119.8257733
,,,,Conditions/Version_1/zeroback(2)_v1.xlsx,New rule: Press 'space' when you see the letter 'x' or 'X'.,W,None,,,,,,,,,0,5,5,5,0,5,5,5,,,,,,,,,,,,,,,,,,,,,,,,,,,,,,,,,,,,,,,,,,,,,,,,,,,,,,,,,,,,,,,,,,,,,1.2332,722.0142404,None,None,1,722.0142404,None,,P047,FENCOG,1,Pre,2022_May_26_1101,N-Back (New Version 2021),2021.1.4,119.8257733
,,,,Conditions/Version_1/zeroback(2)_v1.xlsx,New rule: Press 'space' when you see the letter 'x' or 'X'.,x,space,,,,,,,,,0,5,5,5,0,6,6,6,,,,,,,,,,,,,,,,,,,,,,,,,,,,,,,,,,,,,,,,,,,,,,,,,,,,,,,,,,,,,,,,,,,,,1.7788,725.8028684,None,space,1,725.8028684,None,0.8195406,P047,FENCOG,1,Pre,2022_May_26_1101,N-Back (New Version 2021),2021.1.4,119.8257733
,,,,Conditions/Version_1/zeroback(2)_v1.xlsx,New rule: Press 'space' when you see the letter 'x' or 'X'.,X,space,,,,,,,,,0,5,5,5,0,7,7,7,,,,,,,,,,,,,,,,,,,,,,,,,,,,,,,,,,,,,,,,,,,,,,,,,,,,,,,,,,,,,,,,,,,,,1.63,729.4414475,None,space,1,729.4414475,None,0.3487832,P047,FENCOG,1,Pre,2022_May_26_1101,N-Back (New Version 2021),2021.1.4,119.8257733
,,,,Conditions/Version_1/zeroback(2)_v1.xlsx,New rule: Press 'space' when you see the letter 'x' or 'X'.,p,None,,,,,,,,,0,5,5,5,0,8,8,8,,,,,,,,,,,,,,,,,,,,,,,,,,,,,,,,,,,,,,,,,,,,,,,,,,,,,,,,,,,,,,,,,,,,,1.6796,733.1256862,None,None,1,733.1256862,None,,P047,FENCOG,1,Pre,2022_May_26_1101,N-Back (New Version 2021),2021.1.4,119.8257733
,,,,Conditions/Version_1/zeroback(2)_v1.xlsx,New rule: Press 'space' when you see the letter 'x' or 'X'.,h,None,,,,,,,,,0,5,5,5,0,9,9,9,,,,,,,,,,,,,,,,,,,,,,,,,,,,,,,,,,,,,,,,,,,,,,,,,,,,,,,,,,,,,,,,,,,,,1.0224,736.1497999,None,None,1,736.1497999,None,,P047,FENCOG,1,Pre,2022_May_26_1101,N-Back (New Version 2021),2021.1.4,119.8257733
,,,,Conditions/Version_1/zeroback(2)_v1.xlsx,New rule: Press 'space' when you see the letter 'x' or 'X'.,,,,,,,,,,,0,5,5,5,,,,,,,,,,,,,,,,,,,,,,,,,,,,,,,,,,,,,,,,,,,,,,,,,,,,,,,,,,,,,,,,,,,,,,,,,,,,,,,,,P047,FENCOG,1,Pre,2022_May_26_1101,N-Back (New Version 2021),2021.1.4,119.8257733
,,,,Conditions/Version_1/threeback(2)_v1.xlsx,New rule: Press 'space' when you see 3-back (i.e. the same letter as the one that appeared 3 letters ago.),q,None,,,,,,,,,0,6,6,6,0,0,0,0,,,,,,,,,,,,,,,,,,,,,,,,,,,,,,,,,,,,,,,,,,,,,,,,,,,,,,,,,,,738.1875924,None,741.1752297,None,space,0.8228605,741.1752297,None,738.1875924,None,1.7912,743.8264508,None,None,1,743.8264508,None,,P047,FENCOG,1,Pre,2022_May_26_1101,N-Back (New Version 2021),2021.1.4,119.8257733
,,,,Conditions/Version_1/threeback(2)_v1.xlsx,New rule: Press 'space' when you see 3-back (i.e. the same letter as the one that appeared 3 letters ago.),Y,None,,,,,,,,,0,6,6,6,0,1,1,1,,,,,,,,,,,,,,,,,,,,,,,,,,,,,,,,,,,,,,,,,,,,,,,,,,,,,,,,,,,,,,,,,,,,,1.2332,747.0634196,None,None,1,747.0634196,None,,P047,FENCOG,1,Pre,2022_May_26_1101,N-Back (New Version 2021),2021.1.4,119.8257733
,,,,Conditions/Version_1/threeback(2)_v1.xlsx,New rule: Press 'space' when you see 3-back (i.e. the same letter as the one that appeared 3 letters ago.),p,None,,,,,,,,,0,6,6,6,0,2,2,2,,,,,,,,,,,,,,,,,,,,,,,,,,,,,,,,,,,,,,,,,,,,,,,,,,,,,,,,,,,,,,,,,,,,,1.3634,750.4292624,None,None,1,750.4292624,None,,P047,FENCOG,1,Pre,2022_May_26_1101,N-Back (New Version 2021),2021.1.4,119.8257733
,,,,Conditions/Version_1/threeback(2)_v1.xlsx,New rule: Press 'space' when you see 3-back (i.e. the same letter as the one that appeared 3 letters ago.),p,None,,,,,,,,,0,6,6,6,0,3,3,3,,,,,,,,,,,,,,,,,,,,,,,,,,,,,,,,,,,,,,,,,,,,,,,,,,,,,,,,,,,,,,,,,,,,,1.1898,753.6198826,None,None,1,753.6198826,None,,P047,FENCOG,1,Pre,2022_May_26_1101,N-Back (New Version 2021),2021.1.4,119.8257733
,,,,Conditions/Version_1/threeback(2)_v1.xlsx,New rule: Press 'space' when you see 3-back (i.e. the same letter as the one that appeared 3 letters ago.),y,space,,,,,,,,,0,6,6,6,0,4,4,4,,,,,,,,,,,,,,,,,,,,,,,,,,,,,,,,,,,,,,,,,,,,,,,,,,,,,,,,,,,,,,,,,,,,,1.32,756.9436529,None,space,1,756.9436529,None,0.4705913,P047,FENCOG,1,Pre,2022_May_26_1101,N-Back (New Version 2021),2021.1.4,119.8257733
,,,,Conditions/Version_1/threeback(2)_v1.xlsx,New rule: Press 'space' when you see 3-back (i.e. the same letter as the one that appeared 3 letters ago.),u,None,,,,,,,,,0,6,6,6,0,5,5,5,,,,,,,,,,,,,,,,,,,,,,,,,,,,,,,,,,,,,,,,,,,,,,,,,,,,,,,,,,,,,,,,,,,,,1.0472,759.997068,None,None,1,759.997068,None,,P047,FENCOG,1,Pre,2022_May_26_1101,N-Back (New Version 2021),2021.1.4,119.8257733
,,,,Conditions/Version_1/threeback(2)_v1.xlsx,New rule: Press 'space' when you see 3-back (i.e. the same letter as the one that appeared 3 letters ago.),P,space,,,,,,,,,0,6,6,6,0,6,6,6,,,,,,,,,,,,,,,,,,,,,,,,,,,,,,,,,,,,,,,,,,,,,,,,,,,,,,,,,,,,,,,,,,,,,1.0782,763.0856844,None,space,1,763.0856844,None,0.6244073,P047,FENCOG,1,Pre,2022_May_26_1101,N-Back (New Version 2021),2021.1.4,119.8257733
,,,,Conditions/Version_1/threeback(2)_v1.xlsx,New rule: Press 'space' when you see 3-back (i.e. the same letter as the one that appeared 3 letters ago.),a,None,,,,,,,,,0,6,6,6,0,7,7,7,,,,,,,,,,,,,,,,,,,,,,,,,,,,,,,,,,,,,,,,,,,,,,,,,,,,,,,,,,,,,,,,,,,,,1.8656,766.9584342,None,None,1,766.9584342,None,,P047,FENCOG,1,Pre,2022_May_26_1101,N-Back (New Version 2021),2021.1.4,119.8257733
,,,,Conditions/Version_1/threeback(2)_v1.xlsx,New rule: Press 'space' when you see 3-back (i.e. the same letter as the one that appeared 3 letters ago.),U,space,,,,,,,,,0,6,6,6,0,8,8,8,,,,,,,,,,,,,,,,,,,,,,,,,,,,,,,,,,,,,,,,,,,,,,,,,,,,,,,,,,,,,,,,,,,,,1.9338,770.8993619,None,space,1,770.8993619,None,0.4190374,P047,FENCOG,1,Pre,2022_May_26_1101,N-Back (New Version 2021),2021.1.4,119.8257733
,,,,Conditions/Version_1/threeback(2)_v1.xlsx,New rule: Press 'space' when you see 3-back (i.e. the same letter as the one that appeared 3 letters ago.),q,None,,,,,,,,,0,6,6,6,0,9,9,9,,,,,,,,,,,,,,,,,,,,,,,,,,,,,,,,,,,,,,,,,,,,,,,,,,,,,,,,,,,,,,,,,,,,,1.9276,774.8392967,None,None,1,774.8392967,None,,P047,FENCOG,1,Pre,2022_May_26_1101,N-Back (New Version 2021),2021.1.4,119.8257733
,,,,Conditions/Version_1/threeback(2)_v1.xlsx,New rule: Press 'space' when you see 3-back (i.e. the same letter as the one that appeared 3 letters ago.),,,,,,,,,,,0,6,6,6,,,,,,,,,,,,,,,,,,,,,,,,,,,,,,,,,,,,,,,,,,,,,,,,,,,,,,,,,,,,,,,,,,,,,,,,,,,,,,,,,P047,FENCOG,1,Pre,2022_May_26_1101,N-Back (New Version 2021),2021.1.4,119.8257733
,,,,Conditions/Version_1/twoback(2)_v1.xlsx,New rule: Press 'space' when you see 2-back (i.e. the same letter as the one that appeared 2 letters ago.),q,None,,,,,,,,,0,7,7,7,0,0,0,0,,,,,,,,,,,,,,,,,,,,,,,,,,,,,,,,,,,,,,,,,,,,,,,,,,,,,,,,,,,776.8704956,None,779.8562147,None,space,0.413906,779.8562147,None,776.8704956,None,1.9152,782.2197738,None,None,1,782.2197738,None,,P047,FENCOG,1,Pre,2022_May_26_1101,N-Back (New Version 2021),2021.1.4,119.8257733
,,,,Conditions/Version_1/twoback(2)_v1.xlsx,New rule: Press 'space' when you see 2-back (i.e. the same letter as the one that appeared 2 letters ago.),r,None,,,,,,,,,0,7,7,7,0,1,1,1,,,,,,,,,,,,,,,,,,,,,,,,,,,,,,,,,,,,,,,,,,,,,,,,,,,,,,,,,,,,,,,,,,,,,1.1712,785.3934332,None,None,1,785.3934332,None,,P047,FENCOG,1,Pre,2022_May_26_1101,N-Back (New Version 2021),2021.1.4,119.8257733
,,,,Conditions/Version_1/twoback(2)_v1.xlsx,New rule: Press 'space' when you see 2-back (i.e. the same letter as the one that appeared 2 letters ago.),q,space,,,,,,,,,0,7,7,7,0,2,2,2,,,,,,,,,,,,,,,,,,,,,,,,,,,,,,,,,,,,,,,,,,,,,,,,,,,,,,,,,,,,,,,,,,,,,1.8408,789.2380035,None,space,1,789.2380035,None,0.400196,P047,FENCOG,1,Pre,2022_May_26_1101,N-Back (New Version 2021),2021.1.4,119.8257733
,,,,Conditions/Version_1/twoback(2)_v1.xlsx,New rule: Press 'space' when you see 2-back (i.e. the same letter as the one that appeared 2 letters ago.),P,None,,,,,,,,,0,7,7,7,0,3,3,3,,,,,,,,,,,,,,,,,,,,,,,,,,,,,,,,,,,,,,,,,,,,,,,,,,,,,,,,,,,,,,,,,,,,,1.9958,793.2433829,None,None,1,793.2433829,None,,P047,FENCOG,1,Pre,2022_May_26_1101,N-Back (New Version 2021),2021.1.4,119.8257733
,,,,Conditions/Version_1/twoback(2)_v1.xlsx,New rule: Press 'space' when you see 2-back (i.e. the same letter as the one that appeared 2 letters ago.),p,None,,,,,,,,,0,7,7,7,0,4,4,4,,,,,,,,,,,,,,,,,,,,,,,,,,,,,,,,,,,,,,,,,,,,,,,,,,,,,,,,,,,,,,,,,,,,,1.1836,796.4320443,None,space,0,796.4320443,None,0.9900927,P047,FENCOG,1,Pre,2022_May_26_1101,N-Back (New Version 2021),2021.1.4,119.8257733
,,,,Conditions/Version_1/twoback(2)_v1.xlsx,New rule: Press 'space' when you see 2-back (i.e. the same letter as the one that appeared 2 letters ago.),H,None,,,,,,,,,0,7,7,7,0,5,5,5,,,,,,,,,,,,,,,,,,,,,,,,,,,,,,,,,,,,,,,,,,,,,,,,,,,,,,,,,,,,,,,,,,,,,1.6672,800.1061301,None,None,1,800.1061301,None,,P047,FENCOG,1,Pre,2022_May_26_1101,N-Back (New Version 2021),2021.1.4,119.8257733
,,,,Conditions/Version_1/twoback(2)_v1.xlsx,New rule: Press 'space' when you see 2-back (i.e. the same letter as the one that appeared 2 letters ago.),g,None,,,,,,,,,0,7,7,7,0,6,6,6,,,,,,,,,,,,,,,,,,,,,,,,,,,,,,,,,,,,,,,,,,,,,,,,,,,,,,,,,,,,,,,,,,,,,1.2146,803.3216521,None,None,1,803.3216521,None,,P047,FENCOG,1,Pre,2022_May_26_1101,N-Back (New Version 2021),2021.1.4,119.8257733
,,,,Conditions/Version_1/twoback(2)_v1.xlsx,New rule: Press 'space' when you see 2-back (i.e. the same letter as the one that appeared 2 letters ago.),j,None,,,,,,,,,0,7,7,7,0,7,7,7,,,,,,,,,,,,,,,,,,,,,,,,,,,,,,,,,,,,,,,,,,,,,,,,,,,,,,,,,,,,,,,,,,,,,1.1774,806.5123699,None,None,1,806.5123699,None,,P047,FENCOG,1,Pre,2022_May_26_1101,N-Back (New Version 2021),2021.1.4,119.8257733
,,,,Conditions/Version_1/twoback(2)_v1.xlsx,New rule: Press 'space' when you see 2-back (i.e. the same letter as the one that appeared 2 letters ago.),g,space,,,,,,,,,0,7,7,7,0,8,8,8,,,,,,,,,,,,,,,,,,,,,,,,,,,,,,,,,,,,,,,,,,,,,,,,,,,,,,,,,,,,,,,,,,,,,1.4874,810.0041749,None,space,1,810.0041749,None,0.9299884,P047,FENCOG,1,Pre,2022_May_26_1101,N-Back (New Version 2021),2021.1.4,119.8257733
,,,,Conditions/Version_1/twoback(2)_v1.xlsx,New rule: Press 'space' when you see 2-back (i.e. the same letter as the one that appeared 2 letters ago.),G,None,,,,,,,,,0,7,7,7,0,9,9,9,,,,,,,,,,,,,,,,,,,,,,,,,,,,,,,,,,,,,,,,,,,,,,,,,,,,,,,,,,,,,,,,,,,,,1.475,813.4864144,None,None,1,813.4864144,None,,P047,FENCOG,1,Pre,2022_May_26_1101,N-Back (New Version 2021),2021.1.4,119.8257733
,,,,Conditions/Version_1/twoback(2)_v1.xlsx,New rule: Press 'space' when you see 2-back (i.e. the same letter as the one that appeared 2 letters ago.),,,,,,,,,,,0,7,7,7,,,,,,,,,,,,,,,,,,,,,,,,,,,,,,,,,,,,,,,,,,,,,,,,,,,,,,,,,,,,,,,,,,,,,,,,,,,,,,,,,P047,FENCOG,1,Pre,2022_May_26_1101,N-Back (New Version 2021),2021.1.4,119.8257733
,,,,Conditions/Version_1/threeback(3)_v1.xlsx,New rule: Press 'space' when you see 3-back (i.e. the same letter as the one that appeared 3 letters ago.),w,None,,,,,,,,,0,8,8,8,0,0,0,0,,,,,,,,,,,,,,,,,,,,,,,,,,,,,,,,,,,,,,,,,,,,,,,,,,,,,,,,,,,815.517539,None,818.5030354,None,space,1.1193631,818.5030354,None,815.517539,None,1.9028,821.5600914,None,None,1,821.5600914,None,,P047,FENCOG,1,Pre,2022_May_26_1101,N-Back (New Version 2021),2021.1.4,119.8257733
,,,,Conditions/Version_1/threeback(3)_v1.xlsx,New rule: Press 'space' when you see 3-back (i.e. the same letter as the one that appeared 3 letters ago.),p,None,,,,,,,,,0,8,8,8,0,1,1,1,,,,,,,,,,,,,,,,,,,,,,,,,,,,,,,,,,,,,,,,,,,,,,,,,,,,,,,,,,,,,,,,,,,,,1.444,825.0173979,None,None,1,825.0173979,None,,P047,FENCOG,1,Pre,2022_May_26_1101,N-Back (New Version 2021),2021.1.4,119.8257733
,,,,Conditions/Version_1/threeback(3)_v1.xlsx,New rule: Press 'space' when you see 3-back (i.e. the same letter as the one that appeared 3 letters ago.),P,None,,,,,,,,,0,8,8,8,0,2,2,2,,,,,,,,,,,,,,,,,,,,,,,,,,,,,,,,,,,,,,,,,,,,,,,,,,,,,,,,,,,,,,,,,,,,,1.1712,828.19973,None,None,1,828.19973,None,,P047,FENCOG,1,Pre,2022_May_26_1101,N-Back (New Version 2021),2021.1.4,119.8257733
,,,,Conditions/Version_1/threeback(3)_v1.xlsx,New rule: Press 'space' when you see 3-back (i.e. the same letter as the one that appeared 3 letters ago.),i,None,,,,,,,,,0,8,8,8,0,3,3,3,,,,,,,,,,,,,,,,,,,,,,,,,,,,,,,,,,,,,,,,,,,,,,,,,,,,,,,,,,,,,,,,,,,,,1.8594,832.0759118,None,None,1,832.0759118,None,,P047,FENCOG,1,Pre,2022_May_26_1101,N-Back (New Version 2021),2021.1.4,119.8257733
,,,,Conditions/Version_1/threeback(3)_v1.xlsx,New rule: Press 'space' when you see 3-back (i.e. the same letter as the one that appeared 3 letters ago.),f,None,,,,,,,,,0,8,8,8,0,4,4,4,,,,,,,,,,,,,,,,,,,,,,,,,,,,,,,,,,,,,,,,,,,,,,,,,,,,,,,,,,,,,,,,,,,,,1.4874,835.57132,None,None,1,835.57132,None,,P047,FENCOG,1,Pre,2022_May_26_1101,N-Back (New Version 2021),2021.1.4,119.8257733
,,,,Conditions/Version_1/threeback(3)_v1.xlsx,New rule: Press 'space' when you see 3-back (i.e. the same letter as the one that appeared 3 letters ago.),o,None,,,,,,,,,0,8,8,8,0,5,5,5,,,,,,,,,,,,,,,,,,,,,,,,,,,,,,,,,,,,,,,,,,,,,,,,,,,,,,,,,,,,,,,,,,,,,1.1774,838.7640019,None,None,1,838.7640019,None,,P047,FENCOG,1,Pre,2022_May_26_1101,N-Back (New Version 2021),2021.1.4,119.8257733
,,,,Conditions/Version_1/threeback(3)_v1.xlsx,New rule: Press 'space' when you see 3-back (i.e. the same letter as the one that appeared 3 letters ago.),w,None,,,,,,,,,0,8,8,8,0,6,6,6,,,,,,,,,,,,,,,,,,,,,,,,,,,,,,,,,,,,,,,,,,,,,,,,,,,,,,,,,,,,,,,,,,,,,1.4068,842.1770351,None,None,1,842.1770351,None,,P047,FENCOG,1,Pre,2022_May_26_1101,N-Back (New Version 2021),2021.1.4,119.8257733
,,,,Conditions/Version_1/threeback(3)_v1.xlsx,New rule: Press 'space' when you see 3-back (i.e. the same letter as the one that appeared 3 letters ago.),F,space,,,,,,,,,0,8,8,8,0,7,7,7,,,,,,,,,,,,,,,,,,,,,,,,,,,,,,,,,,,,,,,,,,,,,,,,,,,,,,,,,,,,,,,,,,,,,1.9462,846.1268866,None,space,1,846.1268866,None,0.4554247,P047,FENCOG,1,Pre,2022_May_26_1101,N-Back (New Version 2021),2021.1.4,119.8257733
,,,,Conditions/Version_1/threeback(3)_v1.xlsx,New rule: Press 'space' when you see 3-back (i.e. the same letter as the one that appeared 3 letters ago.),p,None,,,,,,,,,0,8,8,8,0,8,8,8,,,,,,,,,,,,,,,,,,,,,,,,,,,,,,,,,,,,,,,,,,,,,,,,,,,,,,,,,,,,,,,,,,,,,1.4192,849.5591642,None,None,1,849.5591642,None,,P047,FENCOG,1,Pre,2022_May_26_1101,N-Back (New Version 2021),2021.1.4,119.8257733
,,,,Conditions/Version_1/threeback(3)_v1.xlsx,New rule: Press 'space' when you see 3-back (i.e. the same letter as the one that appeared 3 letters ago.),W,space,,,,,,,,,0,8,8,8,0,9,9,9,,,,,,,,,,,,,,,,,,,,,,,,,,,,,,,,,,,,,,,,,,,,,,,,,,,,,,,,,,,,,,,,,,,,,1.5432,853.1152503,None,space,1,853.1152503,None,0.4029287,P047,FENCOG,1,Pre,2022_May_26_1101,N-Back (New Version 2021),2021.1.4,119.8257733
,,,,Conditions/Version_1/threeback(3)_v1.xlsx,New rule: Press 'space' when you see 3-back (i.e. the same letter as the one that appeared 3 letters ago.),,,,,,,,,,,0,8,8,8,,,,,,,,,,,,,,,,,,,,,,,,,,,,,,,,,,,,,,,,,,,,,,,,,,,,,,,,,,,,,,,,,,,,,,,,,,,,,,,,,P047,FENCOG,1,Pre,2022_May_26_1101,N-Back (New Version 2021),2021.1.4,119.8257733
,,,,Conditions/Version_1/zeroback(3)_v1.xlsx,New rule: Press 'space' when you see the letter 'x' or 'X'.,X,space,,,,,,,,,0,9,9,9,0,0,0,0,,,,,,,,,,,,,,,,,,,,,,,,,,,,,,,,,,,,,,,,,,,,,,,,,,,,,,,,,,,855.133874,None,858.1161172,None,space,0.4261869,858.1161172,None,855.133874,None,1.568,860.1465412,None,None,0,860.1465412,None,,P047,FENCOG,1,Pre,2022_May_26_1101,N-Back (New Version 2021),2021.1.4,119.8257733
,,,,Conditions/Version_1/zeroback(3)_v1.xlsx,New rule: Press 'space' when you see the letter 'x' or 'X'.,B,None,,,,,,,,,0,9,9,9,0,1,1,1,,,,,,,,,,,,,,,,,,,,,,,,,,,,,,,,,,,,,,,,,,,,,,,,,,,,,,,,,,,,,,,,,,,,,1.32,863.473184,None,None,1,863.473184,None,,P047,FENCOG,1,Pre,2022_May_26_1101,N-Back (New Version 2021),2021.1.4,119.8257733
,,,,Conditions/Version_1/zeroback(3)_v1.xlsx,New rule: Press 'space' when you see the letter 'x' or 'X'.,m,None,,,,,,,,,0,9,9,9,0,2,2,2,,,,,,,,,,,,,,,,,,,,,,,,,,,,,,,,,,,,,,,,,,,,,,,,,,,,,,,,,,,,,,,,,,,,,1.3882,866.8705973,None,None,1,866.8705973,None,,P047,FENCOG,1,Pre,2022_May_26_1101,N-Back (New Version 2021),2021.1.4,119.8257733
,,,,Conditions/Version_1/zeroback(3)_v1.xlsx,New rule: Press 'space' when you see the letter 'x' or 'X'.,m,None,,,,,,,,,0,9,9,9,0,3,3,3,,,,,,,,,,,,,,,,,,,,,,,,,,,,,,,,,,,,,,,,,,,,,,,,,,,,,,,,,,,,,,,,,,,,,1.0224,869.9022065,None,None,1,869.9022065,None,,P047,FENCOG,1,Pre,2022_May_26_1101,N-Back (New Version 2021),2021.1.4,119.8257733
,,,,Conditions/Version_1/zeroback(3)_v1.xlsx,New rule: Press 'space' when you see the letter 'x' or 'X'.,o,None,,,,,,,,,0,9,9,9,0,4,4,4,,,,,,,,,,,,,,,,,,,,,,,,,,,,,,,,,,,,,,,,,,,,,,,,,,,,,,,,,,,,,,,,,,,,,1.6982,873.6045418,None,None,1,873.6045418,None,,P047,FENCOG,1,Pre,2022_May_26_1101,N-Back (New Version 2021),2021.1.4,119.8257733
,,,,Conditions/Version_1/zeroback(3)_v1.xlsx,New rule: Press 'space' when you see the letter 'x' or 'X'.,p,None,,,,,,,,,0,9,9,9,0,5,5,5,,,,,,,,,,,,,,,,,,,,,,,,,,,,,,,,,,,,,,,,,,,,,,,,,,,,,,,,,,,,,,,,,,,,,1.196,876.8084065,None,None,1,876.8084065,None,,P047,FENCOG,1,Pre,2022_May_26_1101,N-Back (New Version 2021),2021.1.4,119.8257733
,,,,Conditions/Version_1/zeroback(3)_v1.xlsx,New rule: Press 'space' when you see the letter 'x' or 'X'.,G,None,,,,,,,,,0,9,9,9,0,6,6,6,,,,,,,,,,,,,,,,,,,,,,,,,,,,,,,,,,,,,,,,,,,,,,,,,,,,,,,,,,,,,,,,,,,,,1.8904,880.6989322,None,None,1,880.6989322,None,,P047,FENCOG,1,Pre,2022_May_26_1101,N-Back (New Version 2021),2021.1.4,119.8257733
,,,,Conditions/Version_1/zeroback(3)_v1.xlsx,New rule: Press 'space' when you see the letter 'x' or 'X'.,X,space,,,,,,,,,0,9,9,9,0,7,7,7,,,,,,,,,,,,,,,,,,,,,,,,,,,,,,,,,,,,,,,,,,,,,,,,,,,,,,,,,,,,,,,,,,,,,1.5432,884.2478594,None,space,1,884.2478594,None,0.350611,P047,FENCOG,1,Pre,2022_May_26_1101,N-Back (New Version 2021),2021.1.4,119.8257733
,,,,Conditions/Version_1/zeroback(3)_v1.xlsx,New rule: Press 'space' when you see the letter 'x' or 'X'.,p,None,,,,,,,,,0,9,9,9,0,8,8,8,,,,,,,,,,,,,,,,,,,,,,,,,,,,,,,,,,,,,,,,,,,,,,,,,,,,,,,,,,,,,,,,,,,,,1.661,887.9134573,None,None,1,887.9134573,None,,P047,FENCOG,1,Pre,2022_May_26_1101,N-Back (New Version 2021),2021.1.4,119.8257733
,,,,Conditions/Version_1/zeroback(3)_v1.xlsx,New rule: Press 'space' when you see the letter 'x' or 'X'.,x,space,,,,,,,,,0,9,9,9,0,9,9,9,,,,,,,,,,,,,,,,,,,,,,,,,,,,,,,,,,,,,,,,,,,,,,,,,,,,,,,,,,,,,,,,,,,,,1.4378,891.3540324,None,space,1,891.3540324,None,0.3241514,P047,FENCOG,1,Pre,2022_May_26_1101,N-Back (New Version 2021),2021.1.4,119.8257733
,,,,Conditions/Version_1/zeroback(3)_v1.xlsx,New rule: Press 'space' when you see the letter 'x' or 'X'.,,,,,,,,,,,0,9,9,9,,,,,,,,,,,,,,,,,,,,,,,,,,,,,,,,,,,,,,,,,,,,,,,,,,,,,,,,,,,,,,,,,,,,,,,,,,,,,,,,,P047,FENCOG,1,Pre,2022_May_26_1101,N-Back (New Version 2021),2021.1.4,119.8257733
,,,,Conditions/Version_1/twoback(3)_v1.xlsx,New rule: Press 'space' when you see 2-back (i.e. the same letter as the one that appeared 2 letters ago.),e,None,,,,,,,,,0,10,10,10,0,0,0,0,,,,,,,,,,,,,,,,,,,,,,,,,,,,,,,,,,,,,,,,,,,,,,,,,,,,,,,,,,,893.3750637,None,896.3634935,None,space,0.4585726,896.3634935,None,893.3750637,None,1.754,898.6101718,None,None,1,898.6101718,None,,P047,FENCOG,1,Pre,2022_May_26_1101,N-Back (New Version 2021),2021.1.4,119.8257733
,,,,Conditions/Version_1/twoback(3)_v1.xlsx,New rule: Press 'space' when you see 2-back (i.e. the same letter as the one that appeared 2 letters ago.),o,None,,,,,,,,,0,10,10,10,0,1,1,1,,,,,,,,,,,,,,,,,,,,,,,,,,,,,,,,,,,,,,,,,,,,,,,,,,,,,,,,,,,,,,,,,,,,,1.2394,901.8509664,None,None,1,901.8509664,None,,P047,FENCOG,1,Pre,2022_May_26_1101,N-Back (New Version 2021),2021.1.4,119.8257733
,,,,Conditions/Version_1/twoback(3)_v1.xlsx,New rule: Press 'space' when you see 2-back (i.e. the same letter as the one that appeared 2 letters ago.),P,None,,,,,,,,,0,10,10,10,0,2,2,2,,,,,,,,,,,,,,,,,,,,,,,,,,,,,,,,,,,,,,,,,,,,,,,,,,,,,,,,,,,,,,,,,,,,,1.8718,905.7249166,None,None,1,905.7249166,None,,P047,FENCOG,1,Pre,2022_May_26_1101,N-Back (New Version 2021),2021.1.4,119.8257733
,,,,Conditions/Version_1/twoback(3)_v1.xlsx,New rule: Press 'space' when you see 2-back (i.e. the same letter as the one that appeared 2 letters ago.),z,None,,,,,,,,,0,10,10,10,0,3,3,3,,,,,,,,,,,,,,,,,,,,,,,,,,,,,,,,,,,,,,,,,,,,,,,,,,,,,,,,,,,,,,,,,,,,,1.351,909.0849752,None,None,1,909.0849752,None,,P047,FENCOG,1,Pre,2022_May_26_1101,N-Back (New Version 2021),2021.1.4,119.8257733
,,,,Conditions/Version_1/twoback(3)_v1.xlsx,New rule: Press 'space' when you see 2-back (i.e. the same letter as the one that appeared 2 letters ago.),X,None,,,,,,,,,0,10,10,10,0,4,4,4,,,,,,,,,,,,,,,,,,,,,,,,,,,,,,,,,,,,,,,,,,,,,,,,,,,,,,,,,,,,,,,,,,,,,1.7912,912.8811193,None,None,1,912.8811193,None,,P047,FENCOG,1,Pre,2022_May_26_1101,N-Back (New Version 2021),2021.1.4,119.8257733
,,,,Conditions/Version_1/twoback(3)_v1.xlsx,New rule: Press 'space' when you see 2-back (i.e. the same letter as the one that appeared 2 letters ago.),z,space,,,,,,,,,0,10,10,10,0,5,5,5,,,,,,,,,,,,,,,,,,,,,,,,,,,,,,,,,,,,,,,,,,,,,,,,,,,,,,,,,,,,,,,,,,,,,1.8222,916.7060996,None,space,1,916.7060996,None,0.3319931,P047,FENCOG,1,Pre,2022_May_26_1101,N-Back (New Version 2021),2021.1.4,119.8257733
,,,,Conditions/Version_1/twoback(3)_v1.xlsx,New rule: Press 'space' when you see 2-back (i.e. the same letter as the one that appeared 2 letters ago.),x,space,,,,,,,,,0,10,10,10,0,6,6,6,,,,,,,,,,,,,,,,,,,,,,,,,,,,,,,,,,,,,,,,,,,,,,,,,,,,,,,,,,,,,,,,,,,,,1.4936,920.2126234,None,space,1,920.2126234,None,0.3215102,P047,FENCOG,1,Pre,2022_May_26_1101,N-Back (New Version 2021),2021.1.4,119.8257733
,,,,Conditions/Version_1/twoback(3)_v1.xlsx,New rule: Press 'space' when you see 2-back (i.e. the same letter as the one that appeared 2 letters ago.),c,None,,,,,,,,,0,10,10,10,0,7,7,7,,,,,,,,,,,,,,,,,,,,,,,,,,,,,,,,,,,,,,,,,,,,,,,,,,,,,,,,,,,,,,,,,,,,,1.785,924.0031205,None,None,1,924.0031205,None,,P047,FENCOG,1,Pre,2022_May_26_1101,N-Back (New Version 2021),2021.1.4,119.8257733
,,,,Conditions/Version_1/twoback(3)_v1.xlsx,New rule: Press 'space' when you see 2-back (i.e. the same letter as the one that appeared 2 letters ago.),i,None,,,,,,,,,0,10,10,10,0,8,8,8,,,,,,,,,,,,,,,,,,,,,,,,,,,,,,,,,,,,,,,,,,,,,,,,,,,,,,,,,,,,,,,,,,,,,1.4688,927.4854123,None,None,1,927.4854123,None,,P047,FENCOG,1,Pre,2022_May_26_1101,N-Back (New Version 2021),2021.1.4,119.8257733
,,,,Conditions/Version_1/twoback(3)_v1.xlsx,New rule: Press 'space' when you see 2-back (i.e. the same letter as the one that appeared 2 letters ago.),C,space,,,,,,,,,0,10,10,10,0,9,9,9,,,,,,,,,,,,,,,,,,,,,,,,,,,,,,,,,,,,,,,,,,,,,,,,,,,,,,,,,,,,,,,,,,,,,1.661,931.151598,None,space,1,931.151598,None,0.4065668,P047,FENCOG,1,Pre,2022_May_26_1101,N-Back (New Version 2021),2021.1.4,119.8257733
,,,,Conditions/Version_1/twoback(3)_v1.xlsx,New rule: Press 'space' when you see 2-back (i.e. the same letter as the one that appeared 2 letters ago.),,,,,,,,,,,0,10,10,10,,,,,,,,,,,,,,,,,,,,,,,,,,,,,,,,,,,,,,,,,,,,,,,,,,,,,,,,,,,,,,,,,,,,,,,,,,,,,,,,,P047,FENCOG,1,Pre,2022_May_26_1101,N-Back (New Version 2021),2021.1.4,119.8257733
,,,,Conditions/Version_1/oneback(3)_v1.xlsx,New rule: Press 'space' when you see 1-back (i.e. the same letter as the one that appeared 1 letter ago.),o,None,,,,,,,,,0,11,11,11,0,0,0,0,,,,,,,,,,,,,,,,,,,,,,,,,,,,,,,,,,,,,,,,,,,,,,,,,,,,,,,,,,,933.1795113,None,936.159805,None,space,0.4624564,936.159805,None,933.1795113,None,1.227,937.8988173,None,None,1,937.8988173,None,,P047,FENCOG,1,Pre,2022_May_26_1101,N-Back (New Version 2021),2021.1.4,119.8257733
,,,,Conditions/Version_1/oneback(3)_v1.xlsx,New rule: Press 'space' when you see 1-back (i.e. the same letter as the one that appeared 1 letter ago.),O,space,,,,,,,,,0,11,11,11,0,1,1,1,,,,,,,,,,,,,,,,,,,,,,,,,,,,,,,,,,,,,,,,,,,,,,,,,,,,,,,,,,,,,,,,,,,,,1.909,941.815999,None,space,1,941.815999,None,0.3503634,P047,FENCOG,1,Pre,2022_May_26_1101,N-Back (New Version 2021),2021.1.4,119.8257733
,,,,Conditions/Version_1/oneback(3)_v1.xlsx,New rule: Press 'space' when you see 1-back (i.e. the same letter as the one that appeared 1 letter ago.),h,None,,,,,,,,,0,11,11,11,0,2,2,2,,,,,,,,,,,,,,,,,,,,,,,,,,,,,,,,,,,,,,,,,,,,,,,,,,,,,,,,,,,,,,,,,,,,,1.7788,945.6047827,None,None,1,945.6047827,None,,P047,FENCOG,1,Pre,2022_May_26_1101,N-Back (New Version 2021),2021.1.4,119.8257733
,,,,Conditions/Version_1/oneback(3)_v1.xlsx,New rule: Press 'space' when you see 1-back (i.e. the same letter as the one that appeared 1 letter ago.),g,None,,,,,,,,,0,11,11,11,0,3,3,3,,,,,,,,,,,,,,,,,,,,,,,,,,,,,,,,,,,,,,,,,,,,,,,,,,,,,,,,,,,,,,,,,,,,,1.8284,949.4450046,None,None,1,949.4450046,None,,P047,FENCOG,1,Pre,2022_May_26_1101,N-Back (New Version 2021),2021.1.4,119.8257733
,,,,Conditions/Version_1/oneback(3)_v1.xlsx,New rule: Press 'space' when you see 1-back (i.e. the same letter as the one that appeared 1 letter ago.),n,None,,,,,,,,,0,11,11,11,0,4,4,4,,,,,,,,,,,,,,,,,,,,,,,,,,,,,,,,,,,,,,,,,,,,,,,,,,,,,,,,,,,,,,,,,,,,,1.7664,953.2127111,None,None,1,953.2127111,None,,P047,FENCOG,1,Pre,2022_May_26_1101,N-Back (New Version 2021),2021.1.4,119.8257733
,,,,Conditions/Version_1/oneback(3)_v1.xlsx,New rule: Press 'space' when you see 1-back (i.e. the same letter as the one that appeared 1 letter ago.),z,None,,,,,,,,,0,11,11,11,0,5,5,5,,,,,,,,,,,,,,,,,,,,,,,,,,,,,,,,,,,,,,,,,,,,,,,,,,,,,,,,,,,,,,,,,,,,,1.1402,956.3635759,None,None,1,956.3635759,None,,P047,FENCOG,1,Pre,2022_May_26_1101,N-Back (New Version 2021),2021.1.4,119.8257733
,,,,Conditions/Version_1/oneback(3)_v1.xlsx,New rule: Press 'space' when you see 1-back (i.e. the same letter as the one that appeared 1 letter ago.),X,None,,,,,,,,,0,11,11,11,0,6,6,6,,,,,,,,,,,,,,,,,,,,,,,,,,,,,,,,,,,,,,,,,,,,,,,,,,,,,,,,,,,,,,,,,,,,,1.382,959.7522585,None,None,1,959.7522585,None,,P047,FENCOG,1,Pre,2022_May_26_1101,N-Back (New Version 2021),2021.1.4,119.8257733
,,,,Conditions/Version_1/oneback(3)_v1.xlsx,New rule: Press 'space' when you see 1-back (i.e. the same letter as the one that appeared 1 letter ago.),r,None,,,,,,,,,0,11,11,11,0,7,7,7,,,,,,,,,,,,,,,,,,,,,,,,,,,,,,,,,,,,,,,,,,,,,,,,,,,,,,,,,,,,,,,,,,,,,1.661,963.4243362,None,None,1,963.4243362,None,,P047,FENCOG,1,Pre,2022_May_26_1101,N-Back (New Version 2021),2021.1.4,119.8257733
,,,,Conditions/Version_1/oneback(3)_v1.xlsx,New rule: Press 'space' when you see 1-back (i.e. the same letter as the one that appeared 1 letter ago.),r,space,,,,,,,,,0,11,11,11,0,8,8,8,,,,,,,,,,,,,,,,,,,,,,,,,,,,,,,,,,,,,,,,,,,,,,,,,,,,,,,,,,,,,,,,,,,,,1.9772,967.4066964,None,space,1,967.4066964,None,0.4713724,P047,FENCOG,1,Pre,2022_May_26_1101,N-Back (New Version 2021),2021.1.4,119.8257733
,,,,Conditions/Version_1/oneback(3)_v1.xlsx,New rule: Press 'space' when you see 1-back (i.e. the same letter as the one that appeared 1 letter ago.),P,None,,,,,,,,,0,11,11,11,0,9,9,9,,,,,,,,,,,,,,,,,,,,,,,,,,,,,,,,,,,,,,,,,,,,,,,,,,,,,,,,,,,,,,,,,,,,,1.103,970.513792,None,None,1,970.513792,None,,P047,FENCOG,1,Pre,2022_May_26_1101,N-Back (New Version 2021),2021.1.4,119.8257733
,,,,Conditions/Version_1/oneback(3)_v1.xlsx,New rule: Press 'space' when you see 1-back (i.e. the same letter as the one that appeared 1 letter ago.),,,,,,,,,,,0,11,11,11,,,,,,,,,,,,,,,,,,,,,,,,,,,,,,,,,,,,,,,,,,,,,,,,,,,,,,,,,,,,,,,,,,,,,,,,,,,,,,,,,P047,FENCOG,1,Pre,2022_May_26_1101,N-Back (New Version 2021),2021.1.4,119.8257733
,,,,Conditions/Version_1/twoback(4)_v1.xlsx,New rule: Press 'space' when you see 2-back (i.e. the same letter as the one that appeared 2 letters ago.),r,None,,,,,,,,,0,12,12,12,0,0,0,0,,,,,,,,,,,,,,,,,,,,,,,,,,,,,,,,,,,,,,,,,,,,,,,,,,,,,,,,,,,972.5342873,None,975.5231967,None,space,0.4428506,975.5231967,None,972.5342873,None,1.2518,977.2974891,None,None,1,977.2974891,None,,P047,FENCOG,1,Pre,2022_May_26_1101,N-Back (New Version 2021),2021.1.4,119.8257733
,,,,Conditions/Version_1/twoback(4)_v1.xlsx,New rule: Press 'space' when you see 2-back (i.e. the same letter as the one that appeared 2 letters ago.),T,None,,,,,,,,,0,12,12,12,0,1,1,1,,,,,,,,,,,,,,,,,,,,,,,,,,,,,,,,,,,,,,,,,,,,,,,,,,,,,,,,,,,,,,,,,,,,,1.3262,980.6274073,None,None,1,980.6274073,None,,P047,FENCOG,1,Pre,2022_May_26_1101,N-Back (New Version 2021),2021.1.4,119.8257733
,,,,Conditions/Version_1/twoback(4)_v1.xlsx,New rule: Press 'space' when you see 2-back (i.e. the same letter as the one that appeared 2 letters ago.),o,None,,,,,,,,,0,12,12,12,0,2,2,2,,,,,,,,,,,,,,,,,,,,,,,,,,,,,,,,,,,,,,,,,,,,,,,,,,,,,,,,,,,,,,,,,,,,,1.9896,984.6181407,None,None,1,984.6181407,None,,P047,FENCOG,1,Pre,2022_May_26_1101,N-Back (New Version 2021),2021.1.4,119.8257733
,,,,Conditions/Version_1/twoback(4)_v1.xlsx,New rule: Press 'space' when you see 2-back (i.e. the same letter as the one that appeared 2 letters ago.),p,None,,,,,,,,,0,12,12,12,0,3,3,3,,,,,,,,,,,,,,,,,,,,,,,,,,,,,,,,,,,,,,,,,,,,,,,,,,,,,,,,,,,,,,,,,,,,,1.94,988.5585957,None,None,1,988.5585957,None,,P047,FENCOG,1,Pre,2022_May_26_1101,N-Back (New Version 2021),2021.1.4,119.8257733
,,,,Conditions/Version_1/twoback(4)_v1.xlsx,New rule: Press 'space' when you see 2-back (i.e. the same letter as the one that appeared 2 letters ago.),p,None,,,,,,,,,0,12,12,12,0,4,4,4,,,,,,,,,,,,,,,,,,,,,,,,,,,,,,,,,,,,,,,,,,,,,,,,,,,,,,,,,,,,,,,,,,,,,1.3634,991.9244646,None,None,1,991.9244646,None,,P047,FENCOG,1,Pre,2022_May_26_1101,N-Back (New Version 2021),2021.1.4,119.8257733
,,,,Conditions/Version_1/twoback(4)_v1.xlsx,New rule: Press 'space' when you see 2-back (i.e. the same letter as the one that appeared 2 letters ago.),y,None,,,,,,,,,0,12,12,12,0,5,5,5,,,,,,,,,,,,,,,,,,,,,,,,,,,,,,,,,,,,,,,,,,,,,,,,,,,,,,,,,,,,,,,,,,,,,1.1216,995.0485801,None,None,1,995.0485801,None,,P047,FENCOG,1,Pre,2022_May_26_1101,N-Back (New Version 2021),2021.1.4,119.8257733
,,,,Conditions/Version_1/twoback(4)_v1.xlsx,New rule: Press 'space' when you see 2-back (i.e. the same letter as the one that appeared 2 letters ago.),P,space,,,,,,,,,0,12,12,12,0,6,6,6,,,,,,,,,,,,,,,,,,,,,,,,,,,,,,,,,,,,,,,,,,,,,,,,,,,,,,,,,,,,,,,,,,,,,1.5618,998.6142228,None,space,1,998.6142228,None,0.9440307,P047,FENCOG,1,Pre,2022_May_26_1101,N-Back (New Version 2021),2021.1.4,119.8257733
,,,,Conditions/Version_1/twoback(4)_v1.xlsx,New rule: Press 'space' when you see 2-back (i.e. the same letter as the one that appeared 2 letters ago.),y,None,,,,,,,,,0,12,12,12,0,7,7,7,,,,,,,,,,,,,,,,,,,,,,,,,,,,,,,,,,,,,,,,,,,,,,,,,,,,,,,,,,,,,,,,,,,,,1.7416,1002.354544,None,space,0,1002.354544,None,0.3473717,P047,FENCOG,1,Pre,2022_May_26_1101,N-Back (New Version 2021),2021.1.4,119.8257733
,,,,Conditions/Version_1/twoback(4)_v1.xlsx,New rule: Press 'space' when you see 2-back (i.e. the same letter as the one that appeared 2 letters ago.),y,space,,,,,,,,,0,12,12,12,0,8,8,8,,,,,,,,,,,,,,,,,,,,,,,,,,,,,,,,,,,,,,,,,,,,,,,,,,,,,,,,,,,,,,,,,,,,,1.413,1005.770078,None,None,0,1005.770078,None,,P047,FENCOG,1,Pre,2022_May_26_1101,N-Back (New Version 2021),2021.1.4,119.8257733
,,,,Conditions/Version_1/twoback(4)_v1.xlsx,New rule: Press 'space' when you see 2-back (i.e. the same letter as the one that appeared 2 letters ago.),,,,,,,,,,,0,12,12,12,,,,,,,,,,,,,,,,,,,,,,,,,,,,,,,,,,,,,,,,,,,,,,,,,,,,,,,,,,,,,,,,,,,,,,,,,,,,,,,,,P047,FENCOG,1,Pre,2022_May_26_1101,N-Back (New Version 2021),2021.1.4,119.8257733
,,,,Conditions/Version_1/zeroback(4)_v1.xlsx,New rule: Press 'space' when you see the letter 'x' or 'X'.,o,None,,,,,,,,,0,13,13,13,0,0,0,0,,,,,,,,,,,,,,,,,,,,,,,,,,,,,,,,,,,,,,,,,,,,,,,,,,,,,,,,,,,1007.792713,None,1010.779317,None,space,0.4110533,1010.779317,None,1007.792713,None,1.2518,1012.476597,None,None,1,1012.476597,None,,P047,FENCOG,1,Pre,2022_May_26_1101,N-Back (New Version 2021),2021.1.4,119.8257733
,,,,Conditions/Version_1/zeroback(4)_v1.xlsx,New rule: Press 'space' when you see the letter 'x' or 'X'.,X,space,,,,,,,,,0,13,13,13,0,1,1,1,,,,,,,,,,,,,,,,,,,,,,,,,,,,,,,,,,,,,,,,,,,,,,,,,,,,,,,,,,,,,,,,,,,,,1.2394,1015.717263,None,space,1,1015.717263,None,0.4486324,P047,FENCOG,1,Pre,2022_May_26_1101,N-Back (New Version 2021),2021.1.4,119.8257733
,,,,Conditions/Version_1/zeroback(4)_v1.xlsx,New rule: Press 'space' when you see the letter 'x' or 'X'.,p,None,,,,,,,,,0,13,13,13,0,2,2,2,,,,,,,,,,,,,,,,,,,,,,,,,,,,,,,,,,,,,,,,,,,,,,,,,,,,,,,,,,,,,,,,,,,,,1.8284,1019.550578,None,None,1,1019.550578,None,,P047,FENCOG,1,Pre,2022_May_26_1101,N-Back (New Version 2021),2021.1.4,119.8257733
,,,,Conditions/Version_1/zeroback(4)_v1.xlsx,New rule: Press 'space' when you see the letter 'x' or 'X'.,m,None,,,,,,,,,0,13,13,13,0,3,3,3,,,,,,,,,,,,,,,,,,,,,,,,,,,,,,,,,,,,,,,,,,,,,,,,,,,,,,,,,,,,,,,,,,,,,1.63,1023.190791,None,None,1,1023.190791,None,,P047,FENCOG,1,Pre,2022_May_26_1101,N-Back (New Version 2021),2021.1.4,119.8257733
,,,,Conditions/Version_1/zeroback(4)_v1.xlsx,New rule: Press 'space' when you see the letter 'x' or 'X'.,n,None,,,,,,,,,0,13,13,13,0,4,4,4,,,,,,,,,,,,,,,,,,,,,,,,,,,,,,,,,,,,,,,,,,,,,,,,,,,,,,,,,,,,,,,,,,,,,1.7912,1026.992939,None,None,1,1026.992939,None,,P047,FENCOG,1,Pre,2022_May_26_1101,N-Back (New Version 2021),2021.1.4,119.8257733
,,,,Conditions/Version_1/zeroback(4)_v1.xlsx,New rule: Press 'space' when you see the letter 'x' or 'X'.,m,None,,,,,,,,,0,13,13,13,0,5,5,5,,,,,,,,,,,,,,,,,,,,,,,,,,,,,,,,,,,,,,,,,,,,,,,,,,,,,,,,,,,,,,,,,,,,,1.8904,1030.889734,None,None,1,1030.889734,None,,P047,FENCOG,1,Pre,2022_May_26_1101,N-Back (New Version 2021),2021.1.4,119.8257733
,,,,Conditions/Version_1/zeroback(4)_v1.xlsx,New rule: Press 'space' when you see the letter 'x' or 'X'.,C,None,,,,,,,,,0,13,13,13,0,6,6,6,,,,,,,,,,,,,,,,,,,,,,,,,,,,,,,,,,,,,,,,,,,,,,,,,,,,,,,,,,,,,,,,,,,,,1.5556,1034.453294,None,None,1,1034.453294,None,,P047,FENCOG,1,Pre,2022_May_26_1101,N-Back (New Version 2021),2021.1.4,119.8257733
,,,,Conditions/Version_1/zeroback(4)_v1.xlsx,New rule: Press 'space' when you see the letter 'x' or 'X'.,m,None,,,,,,,,,0,13,13,13,0,7,7,7,,,,,,,,,,,,,,,,,,,,,,,,,,,,,,,,,,,,,,,,,,,,,,,,,,,,,,,,,,,,,,,,,,,,,1.1464,1037.602574,None,None,1,1037.602574,None,,P047,FENCOG,1,Pre,2022_May_26_1101,N-Back (New Version 2021),2021.1.4,119.8257733
,,,,Conditions/Version_1/zeroback(4)_v1.xlsx,New rule: Press 'space' when you see the letter 'x' or 'X'.,p,None,,,,,,,,,0,13,13,13,0,8,8,8,,,,,,,,,,,,,,,,,,,,,,,,,,,,,,,,,,,,,,,,,,,,,,,,,,,,,,,,,,,,,,,,,,,,,1.1154,1040.726484,None,None,1,1040.726484,None,,P047,FENCOG,1,Pre,2022_May_26_1101,N-Back (New Version 2021),2021.1.4,119.8257733
,,,,Conditions/Version_1/zeroback(4)_v1.xlsx,New rule: Press 'space' when you see the letter 'x' or 'X'.,X,space,,,,,,,,,0,13,13,13,0,9,9,9,,,,,,,,,,,,,,,,,,,,,,,,,,,,,,,,,,,,,,,,,,,,,,,,,,,,,,,,,,,,,,,,,,,,,1.103,1043.835049,None,space,1,1043.835049,None,0.4350374,P047,FENCOG,1,Pre,2022_May_26_1101,N-Back (New Version 2021),2021.1.4,119.8257733
,,,,Conditions/Version_1/zeroback(4)_v1.xlsx,New rule: Press 'space' when you see the letter 'x' or 'X'.,,,,,,,,,,,0,13,13,13,,,,,,,,,,,,,,,,,,,,,,,,,,,,,,,,,,,,,,,,,,,,,,,,,,,,,,,,,,,,,,,,,,,,,,,,,,,,,,,,,P047,FENCOG,1,Pre,2022_May_26_1101,N-Back (New Version 2021),2021.1.4,119.8257733
,,,,Conditions/Version_1/oneback(4)_v1.xlsx,New rule: Press 'space' when you see 1-back (i.e. the same letter as the one that appeared 1 letter ago.),w,None,,,,,,,,,0,14,14,14,0,0,0,0,,,,,,,,,,,,,,,,,,,,,,,,,,,,,,,,,,,,,,,,,,,,,,,,,,,,,,,,,,,1045.862549,None,1048.847392,None,space,0.6786841,1048.847392,None,1045.862549,None,1.6238,1051.190082,None,None,1,1051.190082,None,,P047,FENCOG,1,Pre,2022_May_26_1101,N-Back (New Version 2021),2021.1.4,119.8257733
,,,,Conditions/Version_1/oneback(4)_v1.xlsx,New rule: Press 'space' when you see 1-back (i.e. the same letter as the one that appeared 1 letter ago.),q,None,,,,,,,,,0,14,14,14,0,1,1,1,,,,,,,,,,,,,,,,,,,,,,,,,,,,,,,,,,,,,,,,,,,,,,,,,,,,,,,,,,,,,,,,,,,,,1.9896,1055.19111,None,None,1,1055.19111,None,,P047,FENCOG,1,Pre,2022_May_26_1101,N-Back (New Version 2021),2021.1.4,119.8257733
,,,,Conditions/Version_1/oneback(4)_v1.xlsx,New rule: Press 'space' when you see 1-back (i.e. the same letter as the one that appeared 1 letter ago.),i,None,,,,,,,,,0,14,14,14,0,2,2,2,,,,,,,,,,,,,,,,,,,,,,,,,,,,,,,,,,,,,,,,,,,,,,,,,,,,,,,,,,,,,,,,,,,,,1.8966,1059.096627,None,None,1,1059.096627,None,,P047,FENCOG,1,Pre,2022_May_26_1101,N-Back (New Version 2021),2021.1.4,119.8257733
,,,,Conditions/Version_1/oneback(4)_v1.xlsx,New rule: Press 'space' when you see 1-back (i.e. the same letter as the one that appeared 1 letter ago.),t,None,,,,,,,,,0,14,14,14,0,3,3,3,,,,,,,,,,,,,,,,,,,,,,,,,,,,,,,,,,,,,,,,,,,,,,,,,,,,,,,,,,,,,,,,,,,,,1.8036,1062.903263,None,None,1,1062.903263,None,,P047,FENCOG,1,Pre,2022_May_26_1101,N-Back (New Version 2021),2021.1.4,119.8257733
,,,,Conditions/Version_1/oneback(4)_v1.xlsx,New rule: Press 'space' when you see 1-back (i.e. the same letter as the one that appeared 1 letter ago.),v,None,,,,,,,,,0,14,14,14,0,4,4,4,,,,,,,,,,,,,,,,,,,,,,,,,,,,,,,,,,,,,,,,,,,,,,,,,,,,,,,,,,,,,,,,,,,,,1.0906,1065.995653,None,None,1,1065.995653,None,,P047,FENCOG,1,Pre,2022_May_26_1101,N-Back (New Version 2021),2021.1.4,119.8257733
,,,,Conditions/Version_1/oneback(4)_v1.xlsx,New rule: Press 'space' when you see 1-back (i.e. the same letter as the one that appeared 1 letter ago.),V,space,,,,,,,,,0,14,14,14,0,5,5,5,,,,,,,,,,,,,,,,,,,,,,,,,,,,,,,,,,,,,,,,,,,,,,,,,,,,,,,,,,,,,,,,,,,,,1.8656,1069.870682,None,space,1,1069.870682,None,0.3273483,P047,FENCOG,1,Pre,2022_May_26_1101,N-Back (New Version 2021),2021.1.4,119.8257733
,,,,Conditions/Version_1/oneback(4)_v1.xlsx,New rule: Press 'space' when you see 1-back (i.e. the same letter as the one that appeared 1 letter ago.),v,space,,,,,,,,,0,14,14,14,0,6,6,6,,,,,,,,,,,,,,,,,,,,,,,,,,,,,,,,,,,,,,,,,,,,,,,,,,,,,,,,,,,,,,,,,,,,,1.878,1073.758438,None,space,1,1073.758438,None,1.1194941,P047,FENCOG,1,Pre,2022_May_26_1101,N-Back (New Version 2021),2021.1.4,119.8257733
,,,,Conditions/Version_1/oneback(4)_v1.xlsx,New rule: Press 'space' when you see 1-back (i.e. the same letter as the one that appeared 1 letter ago.),p,None,,,,,,,,,0,14,14,14,0,7,7,7,,,,,,,,,,,,,,,,,,,,,,,,,,,,,,,,,,,,,,,,,,,,,,,,,,,,,,,,,,,,,,,,,,,,,1.3448,1077.109498,None,None,1,1077.109498,None,,P047,FENCOG,1,Pre,2022_May_26_1101,N-Back (New Version 2021),2021.1.4,119.8257733
,,,,Conditions/Version_1/oneback(4)_v1.xlsx,New rule: Press 'space' when you see 1-back (i.e. the same letter as the one that appeared 1 letter ago.),w,None,,,,,,,,,0,14,14,14,0,8,8,8,,,,,,,,,,,,,,,,,,,,,,,,,,,,,,,,,,,,,,,,,,,,,,,,,,,,,,,,,,,,,,,,,,,,,1.9586,1081.074184,None,None,1,1081.074184,None,,P047,FENCOG,1,Pre,2022_May_26_1101,N-Back (New Version 2021),2021.1.4,119.8257733
,,,,Conditions/Version_1/oneback(4)_v1.xlsx,New rule: Press 'space' when you see 1-back (i.e. the same letter as the one that appeared 1 letter ago.),W,space,,,,,,,,,0,14,14,14,0,9,9,9,,,,,,,,,,,,,,,,,,,,,,,,,,,,,,,,,,,,,,,,,,,,,,,,,,,,,,,,,,,,,,,,,,,,,1.0968,1084.181596,None,space,1,1084.181596,None,0.3604806,P047,FENCOG,1,Pre,2022_May_26_1101,N-Back (New Version 2021),2021.1.4,119.8257733
,,,,Conditions/Version_1/oneback(4)_v1.xlsx,New rule: Press 'space' when you see 1-back (i.e. the same letter as the one that appeared 1 letter ago.),,,,,,,,,,,0,14,14,14,,,,,,,,,,,,,,,,,,,,,,,,,,,,,,,,,,,,,,,,,,,,,,,,,,,,,,,,,,,,,,,,,,,,,,,,,,,,,,,,,P047,FENCOG,1,Pre,2022_May_26_1101,N-Back (New Version 2021),2021.1.4,119.8257733
,,,,Conditions/Version_1/threeback(4)_v1.xlsx,New rule: Press 'space' when you see 3-back (i.e. the same letter as the one that appeared 3 letters ago.),A,None,,,,,,,,,0,15,15,15,0,0,0,0,,,,,,,,,,,,,,,,,,,,,,,,,,,,,,,,,,,,,,,,,,,,,,,,,,,,,,,,,,,1086.215562,None,1089.197973,None,space,0.8720581,1089.197973,None,1086.215562,None,1.7478,1091.853054,None,None,1,1091.853054,None,,P047,FENCOG,1,Pre,2022_May_26_1101,N-Back (New Version 2021),2021.1.4,119.8257733
,,,,Conditions/Version_1/threeback(4)_v1.xlsx,New rule: Press 'space' when you see 3-back (i.e. the same letter as the one that appeared 3 letters ago.),n,None,,,,,,,,,0,15,15,15,0,1,1,1,,,,,,,,,,,,,,,,,,,,,,,,,,,,,,,,,,,,,,,,,,,,,,,,,,,,,,,,,,,,,,,,,,,,,1.1898,1095.043797,None,None,1,1095.043797,None,,P047,FENCOG,1,Pre,2022_May_26_1101,N-Back (New Version 2021),2021.1.4,119.8257733
,,,,Conditions/Version_1/threeback(4)_v1.xlsx,New rule: Press 'space' when you see 3-back (i.e. the same letter as the one that appeared 3 letters ago.),g,None,,,,,,,,,0,15,15,15,0,2,2,2,,,,,,,,,,,,,,,,,,,,,,,,,,,,,,,,,,,,,,,,,,,,,,,,,,,,,,,,,,,,,,,,,,,,,1.3634,1098.413532,None,None,1,1098.413532,None,,P047,FENCOG,1,Pre,2022_May_26_1101,N-Back (New Version 2021),2021.1.4,119.8257733
,,,,Conditions/Version_1/threeback(4)_v1.xlsx,New rule: Press 'space' when you see 3-back (i.e. the same letter as the one that appeared 3 letters ago.),A,space,,,,,,,,,0,15,15,15,0,3,3,3,,,,,,,,,,,,,,,,,,,,,,,,,,,,,,,,,,,,,,,,,,,,,,,,,,,,,,,,,,,,,,,,,,,,,1.94,1102.358925,None,space,1,1102.358925,None,0.7750206,P047,FENCOG,1,Pre,2022_May_26_1101,N-Back (New Version 2021),2021.1.4,119.8257733
,,,,Conditions/Version_1/threeback(4)_v1.xlsx,New rule: Press 'space' when you see 3-back (i.e. the same letter as the one that appeared 3 letters ago.),p,None,,,,,,,,,0,15,15,15,0,4,4,4,,,,,,,,,,,,,,,,,,,,,,,,,,,,,,,,,,,,,,,,,,,,,,,,,,,,,,,,,,,,,,,,,,,,,1.1526,1105.532216,None,None,1,1105.532216,None,,P047,FENCOG,1,Pre,2022_May_26_1101,N-Back (New Version 2021),2021.1.4,119.8257733
,,,,Conditions/Version_1/threeback(4)_v1.xlsx,New rule: Press 'space' when you see 3-back (i.e. the same letter as the one that appeared 3 letters ago.),O,None,,,,,,,,,0,15,15,15,0,5,5,5,,,,,,,,,,,,,,,,,,,,,,,,,,,,,,,,,,,,,,,,,,,,,,,,,,,,,,,,,,,,,,,,,,,,,1.8594,1109.399839,None,None,1,1109.399839,None,,P047,FENCOG,1,Pre,2022_May_26_1101,N-Back (New Version 2021),2021.1.4,119.8257733
,,,,Conditions/Version_1/threeback(4)_v1.xlsx,New rule: Press 'space' when you see 3-back (i.e. the same letter as the one that appeared 3 letters ago.),a,space,,,,,,,,,0,15,15,15,0,6,6,6,,,,,,,,,,,,,,,,,,,,,,,,,,,,,,,,,,,,,,,,,,,,,,,,,,,,,,,,,,,,,,,,,,,,,1.3262,1112.739683,None,space,1,1112.739683,None,0.3622872,P047,FENCOG,1,Pre,2022_May_26_1101,N-Back (New Version 2021),2021.1.4,119.8257733
,,,,Conditions/Version_1/threeback(4)_v1.xlsx,New rule: Press 'space' when you see 3-back (i.e. the same letter as the one that appeared 3 letters ago.),p,space,,,,,,,,,0,15,15,15,0,7,7,7,,,,,,,,,,,,,,,,,,,,,,,,,,,,,,,,,,,,,,,,,,,,,,,,,,,,,,,,,,,,,,,,,,,,,1.7664,1116.513519,None,space,1,1116.513519,None,0.3484841,P047,FENCOG,1,Pre,2022_May_26_1101,N-Back (New Version 2021),2021.1.4,119.8257733
,,,,Conditions/Version_1/threeback(4)_v1.xlsx,New rule: Press 'space' when you see 3-back (i.e. the same letter as the one that appeared 3 letters ago.),x,None,,,,,,,,,0,15,15,15,0,8,8,8,,,,,,,,,,,,,,,,,,,,,,,,,,,,,,,,,,,,,,,,,,,,,,,,,,,,,,,,,,,,,,,,,,,,,1.8656,1120.387532,None,None,1,1120.387532,None,,P047,FENCOG,1,Pre,2022_May_26_1101,N-Back (New Version 2021),2021.1.4,119.8257733
,,,,Conditions/Version_1/threeback(4)_v1.xlsx,New rule: Press 'space' when you see 3-back (i.e. the same letter as the one that appeared 3 letters ago.),X,None,,,,,,,,,0,15,15,15,0,9,9,9,,,,,,,,,,,,,,,,,,,,,,,,,,,,,,,,,,,,,,,,,,,,,,,,,,,,,,,,,,,,,,,,,,,,,1.4688,1123.868627,None,None,1,1123.868627,None,,P047,FENCOG,1,Pre,2022_May_26_1101,N-Back (New Version 2021),2021.1.4,119.8257733
,,,,Conditions/Version_1/threeback(4)_v1.xlsx,New rule: Press 'space' when you see 3-back (i.e. the same letter as the one that appeared 3 letters ago.),,,,,,,,,,,0,15,15,15,,,,,,,,,,,,,,,,,,,,,,,,,,,,,,,,,,,,,,,,,,,,,,,,,,,,,,,,,,,,,,,,,,,,,,,,,,,,,,,,,P047,FENCOG,1,Pre,2022_May_26_1101,N-Back (New Version 2021),2021.1.4,119.8257733
