CondFileP,InstructionsP,LettersDisplayedP,CorrectnessP,CondFile,Instructions,LettersDisplayed,Correctness,practicetrials.thisRepN,practicetrials.thisTrialN,practicetrials.thisN,practicetrials.thisIndex,InnerLoopPractice.thisRepN,InnerLoopPractice.thisTrialN,InnerLoopPractice.thisN,InnerLoopPractice.thisIndex,trials.thisRepN,trials.thisTrialN,trials.thisN,trials.thisIndex,InnerLoop.thisRepN,InnerLoop.thisTrialN,InnerLoop.thisN,InnerLoop.thisIndex,TaskVersionText.started,TaskVersionText.stopped,InstrKey1.keys,InstrKey1.rt,InstrKey1.started,InstrKey1.stopped,text.started,text.stopped,key_resp_4.keys,key_resp_4.rt,key_resp_4.started,key_resp_4.stopped,text_2.started,text_2.stopped,key_resp_3.keys,key_resp_3.rt,key_resp_3.started,key_resp_3.stopped,text_3.started,text_3.stopped,key_resp_2.keys,key_resp_2.rt,key_resp_2.started,key_resp_2.stopped,PractIn1.started,PractIn1.stopped,PractIn2.started,PractIn2.stopped,PractInstructionPass.keys,PractInstructionPass.rt,PractInstructionPass.started,PractInstructionPass.stopped,PractBlock1.started,PractBlock1.stopped,ISIjitterPractice,ISI_Pract_Fixation.started,ISI_Pract_Fixation.stopped,N_backP.started,N_backP.stopped,KeyPractice.keys,KeyPractice.corr,KeyPractice.rt,KeyPractice.started,KeyPractice.stopped,text_4.started,text_4.stopped,TransitionText.started,TransitionText.stopped,key_resp_6.keys,key_resp_6.rt,key_resp_6.started,key_resp_6.stopped,text_5.started,text_5.stopped,key_resp_5.keys,key_resp_5.rt,key_resp_5.started,key_resp_5.stopped,MainInt1.started,MainInt1.stopped,MainInt2.started,MainInt2.stopped,InstructionPass.keys,InstructionPass.rt,InstructionPass.started,InstructionPass.stopped,Blocks1.started,Blocks1.stopped,ISIjitter,N_backD.started,N_backD.stopped,key_resp.keys,key_resp.corr,key_resp.started,key_resp.stopped,key_resp.rt,participant,Study Name,Task Version (required to run),PRE/POST,date,expName,psychopyVersion,frameRate
,,,,,,,,,,,,,,,,,,,,,,,,59.9427489,None,space,8.7561705,60.4364218,None,,,,,,,,,,,,,,,,,,,,,,,,,,,,,,,,,,,,,,,,,,,,,,,,,,,,,,,,,,,,,,,,,,,,,,,P048,FENCOG,2,Post,2022_Jun_07_1226,N-Back (New Version 2021),2021.1.4,120.1832073
,,,,,,,,,,,,,,,,,,,,,,,,,,,,,,69.2199516,None,space,12.3630733,69.7094308,None,,,,,,,,,,,,,,,,,,,,,,,,,,,,,,,,,,,,,,,,,,,,,,,,,,,,,,,,,,,,,,,,,P048,FENCOG,2,Post,2022_Jun_07_1226,N-Back (New Version 2021),2021.1.4,120.1832073
,,,,,,,,,,,,,,,,,,,,,,,,,,,,,,,,,,,,82.1177407,None,space,3.402279,82.6141917,None,,,,,,,,,,,,,,,,,,,,,,,,,,,,,,,,,,,,,,,,,,,,,,,,,,,,,,,,,,,P048,FENCOG,2,Post,2022_Jun_07_1226,N-Back (New Version 2021),2021.1.4,120.1832073
,,,,,,,,,,,,,,,,,,,,,,,,,,,,,,,,,,,,,,,,,,86.0500473,None,space,1.7902747,86.5461913,None,,,,,,,,,,,,,,,,,,,,,,,,,,,,,,,,,,,,,,,,,,,,,,,,,,,,,P048,FENCOG,2,Post,2022_Jun_07_1226,N-Back (New Version 2021),2021.1.4,120.1832073
Conditions/Version_2Pr/zeroback(1)_v2.xlsx,Rule: Press 'space' when you see the letter 'x' or 'X'.,x,space,,,,,0,0,0,0,0,0,0,0,,,,,,,,,,,,,,,,,,,,,,,,,,,,,,,,,89.7123938,None,92.6955312,None,space,0.4571519,92.6955312,None,89.7123938,None,1.915,93.1858369,None,95.1020566,None,space,1,0.3622969,95.1020566,None,95.4812921,None,,,,,,,,,,,,,,,,,,,,,,,,,,,,,,,P048,FENCOG,2,Post,2022_Jun_07_1226,N-Back (New Version 2021),2021.1.4,120.1832073
Conditions/Version_2Pr/zeroback(1)_v2.xlsx,Rule: Press 'space' when you see the letter 'x' or 'X'.,R,None,,,,,0,0,0,0,0,1,1,1,,,,,,,,,,,,,,,,,,,,,,,,,,,,,,,,,,,,,,,,,,,1.34,96.9852252,None,98.3331818,None,None,1,,98.3331818,None,100.3329358,None,,,,,,,,,,,,,,,,,,,,,,,,,,,,,,,P048,FENCOG,2,Post,2022_Jun_07_1226,N-Back (New Version 2021),2021.1.4,120.1832073
Conditions/Version_2Pr/zeroback(1)_v2.xlsx,Rule: Press 'space' when you see the letter 'x' or 'X'.,p,None,,,,,0,0,0,0,0,2,2,2,,,,,,,,,,,,,,,,,,,,,,,,,,,,,,,,,,,,,,,,,,,1.365,101.8326001,None,103.2004337,None,None,1,,103.2004337,None,105.2101712,None,,,,,,,,,,,,,,,,,,,,,,,,,,,,,,,P048,FENCOG,2,Post,2022_Jun_07_1226,N-Back (New Version 2021),2021.1.4,120.1832073
Conditions/Version_2Pr/zeroback(1)_v2.xlsx,Rule: Press 'space' when you see the letter 'x' or 'X'.,O,None,,,,,0,0,0,0,0,3,3,3,,,,,,,,,,,,,,,,,,,,,,,,,,,,,,,,,,,,,,,,,,,1.315,106.7060791,None,108.0240192,None,None,1,,108.0240192,None,110.0301601,None,,,,,,,,,,,,,,,,,,,,,,,,,,,,,,,P048,FENCOG,2,Post,2022_Jun_07_1226,N-Back (New Version 2021),2021.1.4,120.1832073
Conditions/Version_2Pr/zeroback(1)_v2.xlsx,Rule: Press 'space' when you see the letter 'x' or 'X'.,i,None,,,,,0,0,0,0,0,4,4,4,,,,,,,,,,,,,,,,,,,,,,,,,,,,,,,,,,,,,,,,,,,1.19,111.5297928,None,112.722709,None,None,1,,112.722709,None,114.7265103,None,,,,,,,,,,,,,,,,,,,,,,,,,,,,,,,P048,FENCOG,2,Post,2022_Jun_07_1226,N-Back (New Version 2021),2021.1.4,120.1832073
Conditions/Version_2Pr/zeroback(1)_v2.xlsx,Rule: Press 'space' when you see the letter 'x' or 'X'.,U,None,,,,,0,0,0,0,0,5,5,5,,,,,,,,,,,,,,,,,,,,,,,,,,,,,,,,,,,,,,,,,,,1.615,116.2283301,None,117.8449653,None,None,1,,117.8449653,None,119.8519552,None,,,,,,,,,,,,,,,,,,,,,,,,,,,,,,,P048,FENCOG,2,Post,2022_Jun_07_1226,N-Back (New Version 2021),2021.1.4,120.1832073
Conditions/Version_2Pr/zeroback(1)_v2.xlsx,Rule: Press 'space' when you see the letter 'x' or 'X'.,N,None,,,,,0,0,0,0,0,6,6,6,,,,,,,,,,,,,,,,,,,,,,,,,,,,,,,,,,,,,,,,,,,1.89,121.3518183,None,123.2487674,None,None,1,,123.2487674,None,125.2506878,None,,,,,,,,,,,,,,,,,,,,,,,,,,,,,,,P048,FENCOG,2,Post,2022_Jun_07_1226,N-Back (New Version 2021),2021.1.4,120.1832073
Conditions/Version_2Pr/zeroback(1)_v2.xlsx,Rule: Press 'space' when you see the letter 'x' or 'X'.,m,None,,,,,0,0,0,0,0,7,7,7,,,,,,,,,,,,,,,,,,,,,,,,,,,,,,,,,,,,,,,,,,,1.69,126.7502494,None,128.4456812,None,None,1,,128.4456812,None,130.4492014,None,,,,,,,,,,,,,,,,,,,,,,,,,,,,,,,P048,FENCOG,2,Post,2022_Jun_07_1226,N-Back (New Version 2021),2021.1.4,120.1832073
Conditions/Version_2Pr/zeroback(1)_v2.xlsx,Rule: Press 'space' when you see the letter 'x' or 'X'.,x,space,,,,,0,0,0,0,0,8,8,8,,,,,,,,,,,,,,,,,,,,,,,,,,,,,,,,,,,,,,,,,,,1.815,131.9486455,None,133.7651294,None,space,1,0.4914065,133.7651294,None,134.266364,None,,,,,,,,,,,,,,,,,,,,,,,,,,,,,,,P048,FENCOG,2,Post,2022_Jun_07_1226,N-Back (New Version 2021),2021.1.4,120.1832073
Conditions/Version_2Pr/zeroback(1)_v2.xlsx,Rule: Press 'space' when you see the letter 'x' or 'X'.,X,space,,,,,0,0,0,0,0,9,9,9,,,,,,,,,,,,,,,,,,,,,,,,,,,,,,,,,,,,,,,,,,,1.49,135.7725709,None,137.2652942,None,space,1,0.479209,137.2652942,None,137.7557827,None,,,,,,,,,,,,,,,,,,,,,,,,,,,,,,,P048,FENCOG,2,Post,2022_Jun_07_1226,N-Back (New Version 2021),2021.1.4,120.1832073
Conditions/Version_2Pr/zeroback(1)_v2.xlsx,Rule: Press 'space' when you see the letter 'x' or 'X'.,,,,,,,0,0,0,0,,,,,,,,,,,,,,,,,,,,,,,,,,,,,,,,,,,,,,,,,,,,,,,,,,,,,,,,,,,,,,,,,,,,,,,,,,,,,,,,,,,,,,,,,P048,FENCOG,2,Post,2022_Jun_07_1226,N-Back (New Version 2021),2021.1.4,120.1832073
Conditions/Version_2Pr/oneback(1)_v2.xlsx,New rule: Press 'space' when you see 1-back (i.e. the same letter as the one that appeared 1 letter ago.),r,None,,,,,0,1,1,1,0,0,0,0,,,,,,,,,,,,,,,,,,,,,,,,,,,,,,,,,139.279795,None,142.2644917,None,space,0.0156984,142.2644917,None,139.279795,None,1.765,142.3069574,None,144.0799903,None,None,1,,144.0799903,None,146.086193,None,,,,,,,,,,,,,,,,,,,,,,,,,,,,,,,P048,FENCOG,2,Post,2022_Jun_07_1226,N-Back (New Version 2021),2021.1.4,120.1832073
Conditions/Version_2Pr/oneback(1)_v2.xlsx,New rule: Press 'space' when you see 1-back (i.e. the same letter as the one that appeared 1 letter ago.),t,None,,,,,0,1,1,1,0,1,1,1,,,,,,,,,,,,,,,,,,,,,,,,,,,,,,,,,,,,,,,,,,,1.04,147.5857073,None,148.6283386,None,None,1,,148.6283386,None,150.634856,None,,,,,,,,,,,,,,,,,,,,,,,,,,,,,,,P048,FENCOG,2,Post,2022_Jun_07_1226,N-Back (New Version 2021),2021.1.4,120.1832073
Conditions/Version_2Pr/oneback(1)_v2.xlsx,New rule: Press 'space' when you see 1-back (i.e. the same letter as the one that appeared 1 letter ago.),Y,None,,,,,0,1,1,1,0,2,2,2,,,,,,,,,,,,,,,,,,,,,,,,,,,,,,,,,,,,,,,,,,,1.59,152.1344525,None,153.7349454,None,None,1,,153.7349454,None,155.7329675,None,,,,,,,,,,,,,,,,,,,,,,,,,,,,,,,P048,FENCOG,2,Post,2022_Jun_07_1226,N-Back (New Version 2021),2021.1.4,120.1832073
Conditions/Version_2Pr/oneback(1)_v2.xlsx,New rule: Press 'space' when you see 1-back (i.e. the same letter as the one that appeared 1 letter ago.),y,space,,,,,0,1,1,1,0,3,3,3,,,,,,,,,,,,,,,,,,,,,,,,,,,,,,,,,,,,,,,,,,,1.715,157.232974,None,158.9557733,None,space,1,0.6846659,158.9557733,None,159.6488777,None,,,,,,,,,,,,,,,,,,,,,,,,,,,,,,,P048,FENCOG,2,Post,2022_Jun_07_1226,N-Back (New Version 2021),2021.1.4,120.1832073
Conditions/Version_2Pr/oneback(1)_v2.xlsx,New rule: Press 'space' when you see 1-back (i.e. the same letter as the one that appeared 1 letter ago.),p,None,,,,,0,1,1,1,0,4,4,4,,,,,,,,,,,,,,,,,,,,,,,,,,,,,,,,,,,,,,,,,,,1.29,161.1484566,None,162.4405096,None,None,1,,162.4405096,None,164.4471643,None,,,,,,,,,,,,,,,,,,,,,,,,,,,,,,,P048,FENCOG,2,Post,2022_Jun_07_1226,N-Back (New Version 2021),2021.1.4,120.1832073
Conditions/Version_2Pr/oneback(1)_v2.xlsx,New rule: Press 'space' when you see 1-back (i.e. the same letter as the one that appeared 1 letter ago.),P,space,,,,,0,1,1,1,0,5,5,5,,,,,,,,,,,,,,,,,,,,,,,,,,,,,,,,,,,,,,,,,,,1.74,165.9470138,None,167.6903048,None,space,1,0.4622498,167.6903048,None,168.1635764,None,,,,,,,,,,,,,,,,,,,,,,,,,,,,,,,P048,FENCOG,2,Post,2022_Jun_07_1226,N-Back (New Version 2021),2021.1.4,120.1832073
Conditions/Version_2Pr/oneback(1)_v2.xlsx,New rule: Press 'space' when you see 1-back (i.e. the same letter as the one that appeared 1 letter ago.),e,None,,,,,0,1,1,1,0,6,6,6,,,,,,,,,,,,,,,,,,,,,,,,,,,,,,,,,,,,,,,,,,,1.965,169.6709562,None,171.6384764,None,space,0,0.6340587,171.6384764,None,172.2918321,None,,,,,,,,,,,,,,,,,,,,,,,,,,,,,,,P048,FENCOG,2,Post,2022_Jun_07_1226,N-Back (New Version 2021),2021.1.4,120.1832073
Conditions/Version_2Pr/oneback(1)_v2.xlsx,New rule: Press 'space' when you see 1-back (i.e. the same letter as the one that appeared 1 letter ago.),r,None,,,,,0,1,1,1,0,7,7,7,,,,,,,,,,,,,,,,,,,,,,,,,,,,,,,,,,,,,,,,,,,1.315,173.7947457,None,175.1108384,None,None,1,,175.1108384,None,177.1112745,None,,,,,,,,,,,,,,,,,,,,,,,,,,,,,,,P048,FENCOG,2,Post,2022_Jun_07_1226,N-Back (New Version 2021),2021.1.4,120.1832073
Conditions/Version_2Pr/oneback(1)_v2.xlsx,New rule: Press 'space' when you see 1-back (i.e. the same letter as the one that appeared 1 letter ago.),R,space,,,,,0,1,1,1,0,8,8,8,,,,,,,,,,,,,,,,,,,,,,,,,,,,,,,,,,,,,,,,,,,1.94,178.6180706,None,180.5592021,None,space,1,0.5773651,180.5592021,None,181.152223,None,,,,,,,,,,,,,,,,,,,,,,,,,,,,,,,P048,FENCOG,2,Post,2022_Jun_07_1226,N-Back (New Version 2021),2021.1.4,120.1832073
Conditions/Version_2Pr/oneback(1)_v2.xlsx,New rule: Press 'space' when you see 1-back (i.e. the same letter as the one that appeared 1 letter ago.),p,None,,,,,0,1,1,1,0,9,9,9,,,,,,,,,,,,,,,,,,,,,,,,,,,,,,,,,,,,,,,,,,,1.99,182.6588139,None,184.6515243,None,None,1,,184.6515243,None,186.6576273,None,,,,,,,,,,,,,,,,,,,,,,,,,,,,,,,P048,FENCOG,2,Post,2022_Jun_07_1226,N-Back (New Version 2021),2021.1.4,120.1832073
Conditions/Version_2Pr/oneback(1)_v2.xlsx,New rule: Press 'space' when you see 1-back (i.e. the same letter as the one that appeared 1 letter ago.),,,,,,,0,1,1,1,,,,,,,,,,,,,,,,,,,,,,,,,,,,,,,,,,,,,,,,,,,,,,,,,,,,,,,,,,,,,,,,,,,,,,,,,,,,,,,,,,,,,,,,,P048,FENCOG,2,Post,2022_Jun_07_1226,N-Back (New Version 2021),2021.1.4,120.1832073
Conditions/Version_2Pr/twoback(1)_v2.xlsx,New rule: Press 'space' when you see 2-back (i.e. the same letter as the one that appeared 2 letters ago.),r,None,,,,,0,2,2,2,0,0,0,0,,,,,,,,,,,,,,,,,,,,,,,,,,,,,,,,,188.1891169,None,191.1753252,None,space,0.9691513,191.1753252,None,188.1891169,None,1.915,192.1685856,None,194.0885098,None,None,1,,194.0885098,None,196.0919823,None,,,,,,,,,,,,,,,,,,,,,,,,,,,,,,,P048,FENCOG,2,Post,2022_Jun_07_1226,N-Back (New Version 2021),2021.1.4,120.1832073
Conditions/Version_2Pr/twoback(1)_v2.xlsx,New rule: Press 'space' when you see 2-back (i.e. the same letter as the one that appeared 2 letters ago.),P,None,,,,,0,2,2,2,0,1,1,1,,,,,,,,,,,,,,,,,,,,,,,,,,,,,,,,,,,,,,,,,,,1.39,197.5960142,None,198.987065,None,None,1,,198.987065,None,200.9864922,None,,,,,,,,,,,,,,,,,,,,,,,,,,,,,,,P048,FENCOG,2,Post,2022_Jun_07_1226,N-Back (New Version 2021),2021.1.4,120.1832073
Conditions/Version_2Pr/twoback(1)_v2.xlsx,New rule: Press 'space' when you see 2-back (i.e. the same letter as the one that appeared 2 letters ago.),o,None,,,,,0,2,2,2,0,2,2,2,,,,,,,,,,,,,,,,,,,,,,,,,,,,,,,,,,,,,,,,,,,1.265,202.4862263,None,203.7613068,None,None,1,,203.7613068,None,205.7603065,None,,,,,,,,,,,,,,,,,,,,,,,,,,,,,,,P048,FENCOG,2,Post,2022_Jun_07_1226,N-Back (New Version 2021),2021.1.4,120.1832073
Conditions/Version_2Pr/twoback(1)_v2.xlsx,New rule: Press 'space' when you see 2-back (i.e. the same letter as the one that appeared 2 letters ago.),p,space,,,,,0,2,2,2,0,3,3,3,,,,,,,,,,,,,,,,,,,,,,,,,,,,,,,,,,,,,,,,,,,1.065,207.2598496,None,208.3259981,None,space,1,0.4190683,208.3259981,None,208.7653514,None,,,,,,,,,,,,,,,,,,,,,,,,,,,,,,,P048,FENCOG,2,Post,2022_Jun_07_1226,N-Back (New Version 2021),2021.1.4,120.1832073
Conditions/Version_2Pr/twoback(1)_v2.xlsx,New rule: Press 'space' when you see 2-back (i.e. the same letter as the one that appeared 2 letters ago.),Y,None,,,,,0,2,2,2,0,4,4,4,,,,,,,,,,,,,,,,,,,,,,,,,,,,,,,,,,,,,,,,,,,1.365,210.2672606,None,211.638478,None,None,1,,211.638478,None,213.641174,None,,,,,,,,,,,,,,,,,,,,,,,,,,,,,,,P048,FENCOG,2,Post,2022_Jun_07_1226,N-Back (New Version 2021),2021.1.4,120.1832073
Conditions/Version_2Pr/twoback(1)_v2.xlsx,New rule: Press 'space' when you see 2-back (i.e. the same letter as the one that appeared 2 letters ago.),q,None,,,,,0,2,2,2,0,5,5,5,,,,,,,,,,,,,,,,,,,,,,,,,,,,,,,,,,,,,,,,,,,1.04,215.1409168,None,216.182719,None,None,1,,216.182719,None,218.1855167,None,,,,,,,,,,,,,,,,,,,,,,,,,,,,,,,P048,FENCOG,2,Post,2022_Jun_07_1226,N-Back (New Version 2021),2021.1.4,120.1832073
Conditions/Version_2Pr/twoback(1)_v2.xlsx,New rule: Press 'space' when you see 2-back (i.e. the same letter as the one that appeared 2 letters ago.),m,None,,,,,0,2,2,2,0,6,6,6,,,,,,,,,,,,,,,,,,,,,,,,,,,,,,,,,,,,,,,,,,,1.515,219.6895487,None,221.2092011,None,None,1,,221.2092011,None,223.21347,None,,,,,,,,,,,,,,,,,,,,,,,,,,,,,,,P048,FENCOG,2,Post,2022_Jun_07_1226,N-Back (New Version 2021),2021.1.4,120.1832073
Conditions/Version_2Pr/twoback(1)_v2.xlsx,New rule: Press 'space' when you see 2-back (i.e. the same letter as the one that appeared 2 letters ago.),Q,space,,,,,0,2,2,2,0,7,7,7,,,,,,,,,,,,,,,,,,,,,,,,,,,,,,,,,,,,,,,,,,,1.09,224.7128522,None,225.8052595,None,space,1,1.2190703,225.8052595,None,227.0378699,None,,,,,,,,,,,,,,,,,,,,,,,,,,,,,,,P048,FENCOG,2,Post,2022_Jun_07_1226,N-Back (New Version 2021),2021.1.4,120.1832073
Conditions/Version_2Pr/twoback(1)_v2.xlsx,New rule: Press 'space' when you see 2-back (i.e. the same letter as the one that appeared 2 letters ago.),L,None,,,,,0,2,2,2,0,8,8,8,,,,,,,,,,,,,,,,,,,,,,,,,,,,,,,,,,,,,,,,,,,1.84,228.5369464,None,230.3789855,None,None,1,,230.3789855,None,232.3820306,None,,,,,,,,,,,,,,,,,,,,,,,,,,,,,,,P048,FENCOG,2,Post,2022_Jun_07_1226,N-Back (New Version 2021),2021.1.4,120.1832073
Conditions/Version_2Pr/twoback(1)_v2.xlsx,New rule: Press 'space' when you see 2-back (i.e. the same letter as the one that appeared 2 letters ago.),q,space,,,,,0,2,2,2,0,9,9,9,,,,,,,,,,,,,,,,,,,,,,,,,,,,,,,,,,,,,,,,,,,1.79,233.8853375,None,235.6774085,None,space,1,0.7229716,235.6774085,None,236.4111632,None,,,,,,,,,,,,,,,,,,,,,,,,,,,,,,,P048,FENCOG,2,Post,2022_Jun_07_1226,N-Back (New Version 2021),2021.1.4,120.1832073
Conditions/Version_2Pr/twoback(1)_v2.xlsx,New rule: Press 'space' when you see 2-back (i.e. the same letter as the one that appeared 2 letters ago.),,,,,,,0,2,2,2,,,,,,,,,,,,,,,,,,,,,,,,,,,,,,,,,,,,,,,,,,,,,,,,,,,,,,,,,,,,,,,,,,,,,,,,,,,,,,,,,,,,,,,,,P048,FENCOG,2,Post,2022_Jun_07_1226,N-Back (New Version 2021),2021.1.4,120.1832073
Conditions/Version_2Pr/threeback(1)_v2.xlsx,New rule: Press 'space' when you see 3-back (i.e. the same letter as the one that appeared 3 letters ago.),u,None,,,,,0,3,3,3,0,0,0,0,,,,,,,,,,,,,,,,,,,,,,,,,,,,,,,,,237.9414029,None,240.9270823,None,space,0.6974233,240.9270823,None,237.9414029,None,1.34,241.654144,None,243.0014961,None,None,1,,243.0014961,None,245.0070303,None,,,,,,,,,,,,,,,,,,,,,,,,,,,,,,,P048,FENCOG,2,Post,2022_Jun_07_1226,N-Back (New Version 2021),2021.1.4,120.1832073
Conditions/Version_2Pr/threeback(1)_v2.xlsx,New rule: Press 'space' when you see 3-back (i.e. the same letter as the one that appeared 3 letters ago.),U,None,,,,,0,3,3,3,0,1,1,1,,,,,,,,,,,,,,,,,,,,,,,,,,,,,,,,,,,,,,,,,,,1.64,246.5065556,None,248.1475949,None,None,1,,248.1475949,None,250.1470423,None,,,,,,,,,,,,,,,,,,,,,,,,,,,,,,,P048,FENCOG,2,Post,2022_Jun_07_1226,N-Back (New Version 2021),2021.1.4,120.1832073
Conditions/Version_2Pr/threeback(1)_v2.xlsx,New rule: Press 'space' when you see 3-back (i.e. the same letter as the one that appeared 3 letters ago.),p,None,,,,,0,3,3,3,0,2,2,2,,,,,,,,,,,,,,,,,,,,,,,,,,,,,,,,,,,,,,,,,,,1.59,251.6467903,None,253.2397364,None,None,1,,253.2397364,None,255.2426804,None,,,,,,,,,,,,,,,,,,,,,,,,,,,,,,,P048,FENCOG,2,Post,2022_Jun_07_1226,N-Back (New Version 2021),2021.1.4,120.1832073
Conditions/Version_2Pr/threeback(1)_v2.xlsx,New rule: Press 'space' when you see 3-back (i.e. the same letter as the one that appeared 3 letters ago.),U,space,,,,,0,3,3,3,0,3,3,3,,,,,,,,,,,,,,,,,,,,,,,,,,,,,,,,,,,,,,,,,,,1.965,256.7452341,None,258.7112022,None,space,1,0.4650988,258.7112022,None,259.1877634,None,,,,,,,,,,,,,,,,,,,,,,,,,,,,,,,P048,FENCOG,2,Post,2022_Jun_07_1226,N-Back (New Version 2021),2021.1.4,120.1832073
Conditions/Version_2Pr/threeback(1)_v2.xlsx,New rule: Press 'space' when you see 3-back (i.e. the same letter as the one that appeared 3 letters ago.),e,None,,,,,0,3,3,3,0,4,4,4,,,,,,,,,,,,,,,,,,,,,,,,,,,,,,,,,,,,,,,,,,,1.49,260.6938558,None,262.185934,None,None,1,,262.185934,None,264.1884044,None,,,,,,,,,,,,,,,,,,,,,,,,,,,,,,,P048,FENCOG,2,Post,2022_Jun_07_1226,N-Back (New Version 2021),2021.1.4,120.1832073
Conditions/Version_2Pr/threeback(1)_v2.xlsx,New rule: Press 'space' when you see 3-back (i.e. the same letter as the one that appeared 3 letters ago.),R,None,,,,,0,3,3,3,0,5,5,5,,,,,,,,,,,,,,,,,,,,,,,,,,,,,,,,,,,,,,,,,,,1.065,265.6926937,None,266.7622729,None,None,1,,266.7622729,None,268.7666164,None,,,,,,,,,,,,,,,,,,,,,,,,,,,,,,,P048,FENCOG,2,Post,2022_Jun_07_1226,N-Back (New Version 2021),2021.1.4,120.1832073
Conditions/Version_2Pr/threeback(1)_v2.xlsx,New rule: Press 'space' when you see 3-back (i.e. the same letter as the one that appeared 3 letters ago.),p,None,,,,,0,3,3,3,0,6,6,6,,,,,,,,,,,,,,,,,,,,,,,,,,,,,,,,,,,,,,,,,,,1.94,270.2661139,None,272.2070393,None,None,1,,272.2070393,None,274.2068289,None,,,,,,,,,,,,,,,,,,,,,,,,,,,,,,,P048,FENCOG,2,Post,2022_Jun_07_1226,N-Back (New Version 2021),2021.1.4,120.1832073
Conditions/Version_2Pr/threeback(1)_v2.xlsx,New rule: Press 'space' when you see 3-back (i.e. the same letter as the one that appeared 3 letters ago.),E,space,,,,,0,3,3,3,0,7,7,7,,,,,,,,,,,,,,,,,,,,,,,,,,,,,,,,,,,,,,,,,,,1.565,275.7063066,None,277.2746713,None,space,1,0.5338869,277.2746713,None,277.8250569,None,,,,,,,,,,,,,,,,,,,,,,,,,,,,,,,P048,FENCOG,2,Post,2022_Jun_07_1226,N-Back (New Version 2021),2021.1.4,120.1832073
Conditions/Version_2Pr/threeback(1)_v2.xlsx,New rule: Press 'space' when you see 3-back (i.e. the same letter as the one that appeared 3 letters ago.),k,None,,,,,0,3,3,3,0,8,8,8,,,,,,,,,,,,,,,,,,,,,,,,,,,,,,,,,,,,,,,,,,,1.79,279.3318766,None,281.1241671,None,None,1,,281.1241671,None,283.1297552,None,,,,,,,,,,,,,,,,,,,,,,,,,,,,,,,P048,FENCOG,2,Post,2022_Jun_07_1226,N-Back (New Version 2021),2021.1.4,120.1832073
Conditions/Version_2Pr/threeback(1)_v2.xlsx,New rule: Press 'space' when you see 3-back (i.e. the same letter as the one that appeared 3 letters ago.),m,None,,,,,0,3,3,3,0,9,9,9,,,,,,,,,,,,,,,,,,,,,,,,,,,,,,,,,,,,,,,,,,,1.715,284.6287531,None,286.3448086,None,None,1,,286.3448086,None,288.3440675,None,,,,,,,,,,,,,,,,,,,,,,,,,,,,,,,P048,FENCOG,2,Post,2022_Jun_07_1226,N-Back (New Version 2021),2021.1.4,120.1832073
Conditions/Version_2Pr/threeback(1)_v2.xlsx,New rule: Press 'space' when you see 3-back (i.e. the same letter as the one that appeared 3 letters ago.),,,,,,,0,3,3,3,,,,,,,,,,,,,,,,,,,,,,,,,,,,,,,,,,,,,,,,,,,,,,,,,,,,,,,,,,,,,,,,,,,,,,,,,,,,,,,,,,,,,,,,,P048,FENCOG,2,Post,2022_Jun_07_1226,N-Back (New Version 2021),2021.1.4,120.1832073
,,,,,,,,,,,,,,,,,,,,,,,,,,,,,,,,,,,,,,,,,,,,,,,,,,,,,,,,,,,,,,,,,,,,,,289.8539989,None,space,1.424522,290.3439569,None,,,,,,,,,,,,,,,,,,,,,,,,,P048,FENCOG,2,Post,2022_Jun_07_1226,N-Back (New Version 2021),2021.1.4,120.1832073
,,,,,,,,,,,,,,,,,,,,,,,,,,,,,,,,,,,,,,,,,,,,,,,,,,,,,,,,,,,,,,,,,,,,,,,,,,,,291.7889304,None,space,0.4271139,292.2853362,None,,,,,,,,,,,,,,,,,,,P048,FENCOG,2,Post,2022_Jun_07_1226,N-Back (New Version 2021),2021.1.4,120.1832073
,,,,Conditions/Version_1/zeroback(1)_v1.xlsx,Rule: Press 'space' when you see the letter 'x' or 'X'.,b,None,,,,,,,,,0,0,0,0,0,0,0,0,,,,,,,,,,,,,,,,,,,,,,,,,,,,,,,,,,,,,,,,,,,,,,,,,,,,,,,,,,,292.8296077,None,295.8187527,None,space,0.5975952,295.8187527,None,292.8296077,None,1.9648,298.4094742,None,None,1,298.4094742,None,,P048,FENCOG,2,Post,2022_Jun_07_1226,N-Back (New Version 2021),2021.1.4,120.1832073
,,,,Conditions/Version_1/zeroback(1)_v1.xlsx,Rule: Press 'space' when you see the letter 'x' or 'X'.,T,None,,,,,,,,,0,0,0,0,0,1,1,1,,,,,,,,,,,,,,,,,,,,,,,,,,,,,,,,,,,,,,,,,,,,,,,,,,,,,,,,,,,,,,,,,,,,,1.8904,302.3107649,None,None,1,302.3107649,None,,P048,FENCOG,2,Post,2022_Jun_07_1226,N-Back (New Version 2021),2021.1.4,120.1832073
,,,,Conditions/Version_1/zeroback(1)_v1.xlsx,Rule: Press 'space' when you see the letter 'x' or 'X'.,L,None,,,,,,,,,0,0,0,0,0,2,2,2,,,,,,,,,,,,,,,,,,,,,,,,,,,,,,,,,,,,,,,,,,,,,,,,,,,,,,,,,,,,,,,,,,,,,1.0534,305.3749575,None,None,1,305.3749575,None,,P048,FENCOG,2,Post,2022_Jun_07_1226,N-Back (New Version 2021),2021.1.4,120.1832073
,,,,Conditions/Version_1/zeroback(1)_v1.xlsx,Rule: Press 'space' when you see the letter 'x' or 'X'.,x,space,,,,,,,,,0,0,0,0,0,3,3,3,,,,,,,,,,,,,,,,,,,,,,,,,,,,,,,,,,,,,,,,,,,,,,,,,,,,,,,,,,,,,,,,,,,,,1.1278,308.5142613,None,space,1,308.5142613,None,0.4541337,P048,FENCOG,2,Post,2022_Jun_07_1226,N-Back (New Version 2021),2021.1.4,120.1832073
,,,,Conditions/Version_1/zeroback(1)_v1.xlsx,Rule: Press 'space' when you see the letter 'x' or 'X'.,o,None,,,,,,,,,0,0,0,0,0,4,4,4,,,,,,,,,,,,,,,,,,,,,,,,,,,,,,,,,,,,,,,,,,,,,,,,,,,,,,,,,,,,,,,,,,,,,1.1402,311.6636251,None,None,1,311.6636251,None,,P048,FENCOG,2,Post,2022_Jun_07_1226,N-Back (New Version 2021),2021.1.4,120.1832073
,,,,Conditions/Version_1/zeroback(1)_v1.xlsx,Rule: Press 'space' when you see the letter 'x' or 'X'.,P,None,,,,,,,,,0,0,0,0,0,5,5,5,,,,,,,,,,,,,,,,,,,,,,,,,,,,,,,,,,,,,,,,,,,,,,,,,,,,,,,,,,,,,,,,,,,,,1.01,314.6779847,None,None,1,314.6779847,None,,P048,FENCOG,2,Post,2022_Jun_07_1226,N-Back (New Version 2021),2021.1.4,120.1832073
,,,,Conditions/Version_1/zeroback(1)_v1.xlsx,Rule: Press 'space' when you see the letter 'x' or 'X'.,X,space,,,,,,,,,0,0,0,0,0,6,6,6,,,,,,,,,,,,,,,,,,,,,,,,,,,,,,,,,,,,,,,,,,,,,,,,,,,,,,,,,,,,,,,,,,,,,1.8408,318.5188796,None,space,1,318.5188796,None,0.5855911,P048,FENCOG,2,Post,2022_Jun_07_1226,N-Back (New Version 2021),2021.1.4,120.1832073
,,,,Conditions/Version_1/zeroback(1)_v1.xlsx,Rule: Press 'space' when you see the letter 'x' or 'X'.,n,None,,,,,,,,,0,0,0,0,0,7,7,7,,,,,,,,,,,,,,,,,,,,,,,,,,,,,,,,,,,,,,,,,,,,,,,,,,,,,,,,,,,,,,,,,,,,,1.7974,322.3179801,None,None,1,322.3179801,None,,P048,FENCOG,2,Post,2022_Jun_07_1226,N-Back (New Version 2021),2021.1.4,120.1832073
,,,,Conditions/Version_1/zeroback(1)_v1.xlsx,Rule: Press 'space' when you see the letter 'x' or 'X'.,M,None,,,,,,,,,0,0,0,0,0,8,8,8,,,,,,,,,,,,,,,,,,,,,,,,,,,,,,,,,,,,,,,,,,,,,,,,,,,,,,,,,,,,,,,,,,,,,1.6796,326.0013063,None,None,1,326.0013063,None,,P048,FENCOG,2,Post,2022_Jun_07_1226,N-Back (New Version 2021),2021.1.4,120.1832073
,,,,Conditions/Version_1/zeroback(1)_v1.xlsx,Rule: Press 'space' when you see the letter 'x' or 'X'.,a,None,,,,,,,,,0,0,0,0,0,9,9,9,,,,,,,,,,,,,,,,,,,,,,,,,,,,,,,,,,,,,,,,,,,,,,,,,,,,,,,,,,,,,,,,,,,,,1.8098,329.8246733,None,None,1,329.8246733,None,,P048,FENCOG,2,Post,2022_Jun_07_1226,N-Back (New Version 2021),2021.1.4,120.1832073
,,,,Conditions/Version_1/zeroback(1)_v1.xlsx,Rule: Press 'space' when you see the letter 'x' or 'X'.,,,,,,,,,,,0,0,0,0,,,,,,,,,,,,,,,,,,,,,,,,,,,,,,,,,,,,,,,,,,,,,,,,,,,,,,,,,,,,,,,,,,,,,,,,,,,,,,,,,P048,FENCOG,2,Post,2022_Jun_07_1226,N-Back (New Version 2021),2021.1.4,120.1832073
,,,,Conditions/Version_1/oneback(1)_v1.xlsx,New rule: Press 'space' when you see 1-back (i.e. the same letter as the one that appeared 1 letter ago.),b,None,,,,,,,,,0,1,1,1,0,0,0,0,,,,,,,,,,,,,,,,,,,,,,,,,,,,,,,,,,,,,,,,,,,,,,,,,,,,,,,,,,,331.8532232,None,334.8404011,None,space,1.1279374,334.8404011,None,331.8532232,None,1.9462,337.9474157,None,None,1,337.9474157,None,,P048,FENCOG,2,Post,2022_Jun_07_1226,N-Back (New Version 2021),2021.1.4,120.1832073
,,,,Conditions/Version_1/oneback(1)_v1.xlsx,New rule: Press 'space' when you see 1-back (i.e. the same letter as the one that appeared 1 letter ago.),p,None,,,,,,,,,0,1,1,1,0,1,1,1,,,,,,,,,,,,,,,,,,,,,,,,,,,,,,,,,,,,,,,,,,,,,,,,,,,,,,,,,,,,,,,,,,,,,1.2394,341.1951494,None,None,1,341.1951494,None,,P048,FENCOG,2,Post,2022_Jun_07_1226,N-Back (New Version 2021),2021.1.4,120.1832073
,,,,Conditions/Version_1/oneback(1)_v1.xlsx,New rule: Press 'space' when you see 1-back (i.e. the same letter as the one that appeared 1 letter ago.),M,None,,,,,,,,,0,1,1,1,0,2,2,2,,,,,,,,,,,,,,,,,,,,,,,,,,,,,,,,,,,,,,,,,,,,,,,,,,,,,,,,,,,,,,,,,,,,,1.6486,344.8584043,None,None,1,344.8584043,None,,P048,FENCOG,2,Post,2022_Jun_07_1226,N-Back (New Version 2021),2021.1.4,120.1832073
,,,,Conditions/Version_1/oneback(1)_v1.xlsx,New rule: Press 'space' when you see 1-back (i.e. the same letter as the one that appeared 1 letter ago.),M,space,,,,,,,,,0,1,1,1,0,3,3,3,,,,,,,,,,,,,,,,,,,,,,,,,,,,,,,,,,,,,,,,,,,,,,,,,,,,,,,,,,,,,,,,,,,,,1.041,347.9100435,None,space,1,347.9100435,None,0.8823285,P048,FENCOG,2,Post,2022_Jun_07_1226,N-Back (New Version 2021),2021.1.4,120.1832073
,,,,Conditions/Version_1/oneback(1)_v1.xlsx,New rule: Press 'space' when you see 1-back (i.e. the same letter as the one that appeared 1 letter ago.),n,None,,,,,,,,,0,1,1,1,0,4,4,4,,,,,,,,,,,,,,,,,,,,,,,,,,,,,,,,,,,,,,,,,,,,,,,,,,,,,,,,,,,,,,,,,,,,,1.661,351.5765725,None,None,1,351.5765725,None,,P048,FENCOG,2,Post,2022_Jun_07_1226,N-Back (New Version 2021),2021.1.4,120.1832073
,,,,Conditions/Version_1/oneback(1)_v1.xlsx,New rule: Press 'space' when you see 1-back (i.e. the same letter as the one that appeared 1 letter ago.),g,None,,,,,,,,,0,1,1,1,0,5,5,5,,,,,,,,,,,,,,,,,,,,,,,,,,,,,,,,,,,,,,,,,,,,,,,,,,,,,,,,,,,,,,,,,,,,,1.072,354.6639983,None,None,1,354.6639983,None,,P048,FENCOG,2,Post,2022_Jun_07_1226,N-Back (New Version 2021),2021.1.4,120.1832073
,,,,Conditions/Version_1/oneback(1)_v1.xlsx,New rule: Press 'space' when you see 1-back (i.e. the same letter as the one that appeared 1 letter ago.),P,None,,,,,,,,,0,1,1,1,0,6,6,6,,,,,,,,,,,,,,,,,,,,,,,,,,,,,,,,,,,,,,,,,,,,,,,,,,,,,,,,,,,,,,,,,,,,,1.4006,358.0746862,None,None,1,358.0746862,None,,P048,FENCOG,2,Post,2022_Jun_07_1226,N-Back (New Version 2021),2021.1.4,120.1832073
,,,,Conditions/Version_1/oneback(1)_v1.xlsx,New rule: Press 'space' when you see 1-back (i.e. the same letter as the one that appeared 1 letter ago.),o,None,,,,,,,,,0,1,1,1,0,7,7,7,,,,,,,,,,,,,,,,,,,,,,,,,,,,,,,,,,,,,,,,,,,,,,,,,,,,,,,,,,,,,,,,,,,,,1.2084,361.2928702,None,None,1,361.2928702,None,,P048,FENCOG,2,Post,2022_Jun_07_1226,N-Back (New Version 2021),2021.1.4,120.1832073
,,,,Conditions/Version_1/oneback(1)_v1.xlsx,New rule: Press 'space' when you see 1-back (i.e. the same letter as the one that appeared 1 letter ago.),f,None,,,,,,,,,0,1,1,1,0,8,8,8,,,,,,,,,,,,,,,,,,,,,,,,,,,,,,,,,,,,,,,,,,,,,,,,,,,,,,,,,,,,,,,,,,,,,1.847,365.1515122,None,None,1,365.1515122,None,,P048,FENCOG,2,Post,2022_Jun_07_1226,N-Back (New Version 2021),2021.1.4,120.1832073
,,,,Conditions/Version_1/oneback(1)_v1.xlsx,New rule: Press 'space' when you see 1-back (i.e. the same letter as the one that appeared 1 letter ago.),F,space,,,,,,,,,0,1,1,1,0,9,9,9,,,,,,,,,,,,,,,,,,,,,,,,,,,,,,,,,,,,,,,,,,,,,,,,,,,,,,,,,,,,,,,,,,,,,1.2146,368.3726394,None,space,1,368.3726394,None,0.8516516,P048,FENCOG,2,Post,2022_Jun_07_1226,N-Back (New Version 2021),2021.1.4,120.1832073
,,,,Conditions/Version_1/oneback(1)_v1.xlsx,New rule: Press 'space' when you see 1-back (i.e. the same letter as the one that appeared 1 letter ago.),,,,,,,,,,,0,1,1,1,,,,,,,,,,,,,,,,,,,,,,,,,,,,,,,,,,,,,,,,,,,,,,,,,,,,,,,,,,,,,,,,,,,,,,,,,,,,,,,,,P048,FENCOG,2,Post,2022_Jun_07_1226,N-Back (New Version 2021),2021.1.4,120.1832073
,,,,Conditions/Version_1/twoback(1)_v1.xlsx,New rule: Press 'space' when you see 2-back (i.e. the same letter as the one that appeared 2 letters ago.),b,None,,,,,,,,,0,2,2,2,0,0,0,0,,,,,,,,,,,,,,,,,,,,,,,,,,,,,,,,,,,,,,,,,,,,,,,,,,,,,,,,,,,370.4017749,None,373.388554,None,space,0.4758652,373.388554,None,370.4017749,None,1.878,375.7695203,None,None,1,375.7695203,None,,P048,FENCOG,2,Post,2022_Jun_07_1226,N-Back (New Version 2021),2021.1.4,120.1832073
,,,,Conditions/Version_1/twoback(1)_v1.xlsx,New rule: Press 'space' when you see 2-back (i.e. the same letter as the one that appeared 2 letters ago.),h,None,,,,,,,,,0,2,2,2,0,1,1,1,,,,,,,,,,,,,,,,,,,,,,,,,,,,,,,,,,,,,,,,,,,,,,,,,,,,,,,,,,,,,,,,,,,,,1.1836,378.9614745,None,None,1,378.9614745,None,,P048,FENCOG,2,Post,2022_Jun_07_1226,N-Back (New Version 2021),2021.1.4,120.1832073
,,,,Conditions/Version_1/twoback(1)_v1.xlsx,New rule: Press 'space' when you see 2-back (i.e. the same letter as the one that appeared 2 letters ago.),j,None,,,,,,,,,0,2,2,2,0,2,2,2,,,,,,,,,,,,,,,,,,,,,,,,,,,,,,,,,,,,,,,,,,,,,,,,,,,,,,,,,,,,,,,,,,,,,1.072,382.0423175,None,None,1,382.0423175,None,,P048,FENCOG,2,Post,2022_Jun_07_1226,N-Back (New Version 2021),2021.1.4,120.1832073
,,,,Conditions/Version_1/twoback(1)_v1.xlsx,New rule: Press 'space' when you see 2-back (i.e. the same letter as the one that appeared 2 letters ago.),H,space,,,,,,,,,0,2,2,2,0,3,3,3,,,,,,,,,,,,,,,,,,,,,,,,,,,,,,,,,,,,,,,,,,,,,,,,,,,,,,,,,,,,,,,,,,,,,1.196,385.2512282,None,space,1,385.2512282,None,1.4696401,P048,FENCOG,2,Post,2022_Jun_07_1226,N-Back (New Version 2021),2021.1.4,120.1832073
,,,,Conditions/Version_1/twoback(1)_v1.xlsx,New rule: Press 'space' when you see 2-back (i.e. the same letter as the one that appeared 2 letters ago.),p,None,,,,,,,,,0,2,2,2,0,4,4,4,,,,,,,,,,,,,,,,,,,,,,,,,,,,,,,,,,,,,,,,,,,,,,,,,,,,,,,,,,,,,,,,,,,,,1.5432,388.79869,None,None,1,388.79869,None,,P048,FENCOG,2,Post,2022_Jun_07_1226,N-Back (New Version 2021),2021.1.4,120.1832073
,,,,Conditions/Version_1/twoback(1)_v1.xlsx,New rule: Press 'space' when you see 2-back (i.e. the same letter as the one that appeared 2 letters ago.),p,None,,,,,,,,,0,2,2,2,0,5,5,5,,,,,,,,,,,,,,,,,,,,,,,,,,,,,,,,,,,,,,,,,,,,,,,,,,,,,,,,,,,,,,,,,,,,,1.4192,392.2302578,None,space,0,392.2302578,None,0.6261844,P048,FENCOG,2,Post,2022_Jun_07_1226,N-Back (New Version 2021),2021.1.4,120.1832073
,,,,Conditions/Version_1/twoback(1)_v1.xlsx,New rule: Press 'space' when you see 2-back (i.e. the same letter as the one that appeared 2 letters ago.),w,None,,,,,,,,,0,2,2,2,0,6,6,6,,,,,,,,,,,,,,,,,,,,,,,,,,,,,,,,,,,,,,,,,,,,,,,,,,,,,,,,,,,,,,,,,,,,,1.1588,395.4052618,None,None,1,395.4052618,None,,P048,FENCOG,2,Post,2022_Jun_07_1226,N-Back (New Version 2021),2021.1.4,120.1832073
,,,,Conditions/Version_1/twoback(1)_v1.xlsx,New rule: Press 'space' when you see 2-back (i.e. the same letter as the one that appeared 2 letters ago.),R,None,,,,,,,,,0,2,2,2,0,7,7,7,,,,,,,,,,,,,,,,,,,,,,,,,,,,,,,,,,,,,,,,,,,,,,,,,,,,,,,,,,,,,,,,,,,,,1.444,398.8543121,None,None,1,398.8543121,None,,P048,FENCOG,2,Post,2022_Jun_07_1226,N-Back (New Version 2021),2021.1.4,120.1832073
,,,,Conditions/Version_1/twoback(1)_v1.xlsx,New rule: Press 'space' when you see 2-back (i.e. the same letter as the one that appeared 2 letters ago.),a,None,,,,,,,,,0,2,2,2,0,8,8,8,,,,,,,,,,,,,,,,,,,,,,,,,,,,,,,,,,,,,,,,,,,,,,,,,,,,,,,,,,,,,,,,,,,,,1.4936,402.3521336,None,None,1,402.3521336,None,,P048,FENCOG,2,Post,2022_Jun_07_1226,N-Back (New Version 2021),2021.1.4,120.1832073
,,,,Conditions/Version_1/twoback(1)_v1.xlsx,New rule: Press 'space' when you see 2-back (i.e. the same letter as the one that appeared 2 letters ago.),r,space,,,,,,,,,0,2,2,2,0,9,9,9,,,,,,,,,,,,,,,,,,,,,,,,,,,,,,,,,,,,,,,,,,,,,,,,,,,,,,,,,,,,,,,,,,,,,1.9896,406.3510369,None,space,1,406.3510369,None,1.2256447,P048,FENCOG,2,Post,2022_Jun_07_1226,N-Back (New Version 2021),2021.1.4,120.1832073
,,,,Conditions/Version_1/twoback(1)_v1.xlsx,New rule: Press 'space' when you see 2-back (i.e. the same letter as the one that appeared 2 letters ago.),,,,,,,,,,,0,2,2,2,,,,,,,,,,,,,,,,,,,,,,,,,,,,,,,,,,,,,,,,,,,,,,,,,,,,,,,,,,,,,,,,,,,,,,,,,,,,,,,,,P048,FENCOG,2,Post,2022_Jun_07_1226,N-Back (New Version 2021),2021.1.4,120.1832073
,,,,Conditions/Version_1/threeback(1)_v1.xlsx,New rule: Press 'space' when you see 3-back (i.e. the same letter as the one that appeared 3 letters ago.),r,None,,,,,,,,,0,3,3,3,0,0,0,0,,,,,,,,,,,,,,,,,,,,,,,,,,,,,,,,,,,,,,,,,,,,,,,,,,,,,,,,,,,408.3733615,None,411.3602607,None,space,0.6321642,411.3602607,None,408.3733615,None,1.9524,413.974443,None,None,1,413.974443,None,,P048,FENCOG,2,Post,2022_Jun_07_1226,N-Back (New Version 2021),2021.1.4,120.1832073
,,,,Conditions/Version_1/threeback(1)_v1.xlsx,New rule: Press 'space' when you see 3-back (i.e. the same letter as the one that appeared 3 letters ago.),o,None,,,,,,,,,0,3,3,3,0,1,1,1,,,,,,,,,,,,,,,,,,,,,,,,,,,,,,,,,,,,,,,,,,,,,,,,,,,,,,,,,,,,,,,,,,,,,1.4068,417.3893171,None,None,1,417.3893171,None,,P048,FENCOG,2,Post,2022_Jun_07_1226,N-Back (New Version 2021),2021.1.4,120.1832073
,,,,Conditions/Version_1/threeback(1)_v1.xlsx,New rule: Press 'space' when you see 3-back (i.e. the same letter as the one that appeared 3 letters ago.),P,None,,,,,,,,,0,3,3,3,0,2,2,2,,,,,,,,,,,,,,,,,,,,,,,,,,,,,,,,,,,,,,,,,,,,,,,,,,,,,,,,,,,,,,,,,,,,,1.8222,421.2151255,None,None,1,421.2151255,None,,P048,FENCOG,2,Post,2022_Jun_07_1226,N-Back (New Version 2021),2021.1.4,120.1832073
,,,,Conditions/Version_1/threeback(1)_v1.xlsx,New rule: Press 'space' when you see 3-back (i.e. the same letter as the one that appeared 3 letters ago.),R,space,,,,,,,,,0,3,3,3,0,3,3,3,,,,,,,,,,,,,,,,,,,,,,,,,,,,,,,,,,,,,,,,,,,,,,,,,,,,,,,,,,,,,,,,,,,,,1.444,424.6706256,None,space,1,424.6706256,None,1.2016075,P048,FENCOG,2,Post,2022_Jun_07_1226,N-Back (New Version 2021),2021.1.4,120.1832073
,,,,Conditions/Version_1/threeback(1)_v1.xlsx,New rule: Press 'space' when you see 3-back (i.e. the same letter as the one that appeared 3 letters ago.),p,None,,,,,,,,,0,3,3,3,0,4,4,4,,,,,,,,,,,,,,,,,,,,,,,,,,,,,,,,,,,,,,,,,,,,,,,,,,,,,,,,,,,,,,,,,,,,,1.5494,428.219493,None,None,1,428.219493,None,,P048,FENCOG,2,Post,2022_Jun_07_1226,N-Back (New Version 2021),2021.1.4,120.1832073
,,,,Conditions/Version_1/threeback(1)_v1.xlsx,New rule: Press 'space' when you see 3-back (i.e. the same letter as the one that appeared 3 letters ago.),E,None,,,,,,,,,0,3,3,3,0,5,5,5,,,,,,,,,,,,,,,,,,,,,,,,,,,,,,,,,,,,,,,,,,,,,,,,,,,,,,,,,,,,,,,,,,,,,1.7912,432.0138563,None,None,1,432.0138563,None,,P048,FENCOG,2,Post,2022_Jun_07_1226,N-Back (New Version 2021),2021.1.4,120.1832073
,,,,Conditions/Version_1/threeback(1)_v1.xlsx,New rule: Press 'space' when you see 3-back (i.e. the same letter as the one that appeared 3 letters ago.),e,None,,,,,,,,,0,3,3,3,0,6,6,6,,,,,,,,,,,,,,,,,,,,,,,,,,,,,,,,,,,,,,,,,,,,,,,,,,,,,,,,,,,,,,,,,,,,,1.3944,435.4229275,None,None,1,435.4229275,None,,P048,FENCOG,2,Post,2022_Jun_07_1226,N-Back (New Version 2021),2021.1.4,120.1832073
,,,,Conditions/Version_1/threeback(1)_v1.xlsx,New rule: Press 'space' when you see 3-back (i.e. the same letter as the one that appeared 3 letters ago.),m,None,,,,,,,,,0,3,3,3,0,7,7,7,,,,,,,,,,,,,,,,,,,,,,,,,,,,,,,,,,,,,,,,,,,,,,,,,,,,,,,,,,,,,,,,,,,,,1.227,438.6632751,None,None,1,438.6632751,None,,P048,FENCOG,2,Post,2022_Jun_07_1226,N-Back (New Version 2021),2021.1.4,120.1832073
,,,,Conditions/Version_1/threeback(1)_v1.xlsx,New rule: Press 'space' when you see 3-back (i.e. the same letter as the one that appeared 3 letters ago.),n,None,,,,,,,,,0,3,3,3,0,8,8,8,,,,,,,,,,,,,,,,,,,,,,,,,,,,,,,,,,,,,,,,,,,,,,,,,,,,,,,,,,,,,,,,,,,,,1.9958,442.6678475,None,None,1,442.6678475,None,,P048,FENCOG,2,Post,2022_Jun_07_1226,N-Back (New Version 2021),2021.1.4,120.1832073
,,,,Conditions/Version_1/threeback(1)_v1.xlsx,New rule: Press 'space' when you see 3-back (i.e. the same letter as the one that appeared 3 letters ago.),e,space,,,,,,,,,0,3,3,3,0,9,9,9,,,,,,,,,,,,,,,,,,,,,,,,,,,,,,,,,,,,,,,,,,,,,,,,,,,,,,,,,,,,,,,,,,,,,1.5804,446.2558828,None,None,0,446.2558828,None,,P048,FENCOG,2,Post,2022_Jun_07_1226,N-Back (New Version 2021),2021.1.4,120.1832073
,,,,Conditions/Version_1/threeback(1)_v1.xlsx,New rule: Press 'space' when you see 3-back (i.e. the same letter as the one that appeared 3 letters ago.),,,,,,,,,,,0,3,3,3,,,,,,,,,,,,,,,,,,,,,,,,,,,,,,,,,,,,,,,,,,,,,,,,,,,,,,,,,,,,,,,,,,,,,,,,,,,,,,,,,P048,FENCOG,2,Post,2022_Jun_07_1226,N-Back (New Version 2021),2021.1.4,120.1832073
,,,,Conditions/Version_1/oneback(2)_v1.xlsx,New rule: Press 'space' when you see 1-back (i.e. the same letter as the one that appeared 1 letter ago.),q,None,,,,,,,,,0,4,4,4,0,0,0,0,,,,,,,,,,,,,,,,,,,,,,,,,,,,,,,,,,,,,,,,,,,,,,,,,,,,,,,,,,,448.2811718,None,451.2651232,None,space,1.8310122,451.2651232,None,448.2811718,None,1.4192,454.5492323,None,None,1,454.5492323,None,,P048,FENCOG,2,Post,2022_Jun_07_1226,N-Back (New Version 2021),2021.1.4,120.1832073
,,,,Conditions/Version_1/oneback(2)_v1.xlsx,New rule: Press 'space' when you see 1-back (i.e. the same letter as the one that appeared 1 letter ago.),Q,space,,,,,,,,,0,4,4,4,0,1,1,1,,,,,,,,,,,,,,,,,,,,,,,,,,,,,,,,,,,,,,,,,,,,,,,,,,,,,,,,,,,,,,,,,,,,,1.6486,458.2021593,None,space,1,458.2021593,None,1.7420944,P048,FENCOG,2,Post,2022_Jun_07_1226,N-Back (New Version 2021),2021.1.4,120.1832073
,,,,Conditions/Version_1/oneback(2)_v1.xlsx,New rule: Press 'space' when you see 1-back (i.e. the same letter as the one that appeared 1 letter ago.),P,None,,,,,,,,,0,4,4,4,0,2,2,2,,,,,,,,,,,,,,,,,,,,,,,,,,,,,,,,,,,,,,,,,,,,,,,,,,,,,,,,,,,,,,,,,,,,,1.134,461.3430314,None,None,1,461.3430314,None,,P048,FENCOG,2,Post,2022_Jun_07_1226,N-Back (New Version 2021),2021.1.4,120.1832073
,,,,Conditions/Version_1/oneback(2)_v1.xlsx,New rule: Press 'space' when you see 1-back (i.e. the same letter as the one that appeared 1 letter ago.),o,None,,,,,,,,,0,4,4,4,0,3,3,3,,,,,,,,,,,,,,,,,,,,,,,,,,,,,,,,,,,,,,,,,,,,,,,,,,,,,,,,,,,,,,,,,,,,,1.63,464.9780962,None,None,1,464.9780962,None,,P048,FENCOG,2,Post,2022_Jun_07_1226,N-Back (New Version 2021),2021.1.4,120.1832073
,,,,Conditions/Version_1/oneback(2)_v1.xlsx,New rule: Press 'space' when you see 1-back (i.e. the same letter as the one that appeared 1 letter ago.),m,None,,,,,,,,,0,4,4,4,0,4,4,4,,,,,,,,,,,,,,,,,,,,,,,,,,,,,,,,,,,,,,,,,,,,,,,,,,,,,,,,,,,,,,,,,,,,,1.6362,468.6161531,None,None,1,468.6161531,None,,P048,FENCOG,2,Post,2022_Jun_07_1226,N-Back (New Version 2021),2021.1.4,120.1832073
,,,,Conditions/Version_1/oneback(2)_v1.xlsx,New rule: Press 'space' when you see 1-back (i.e. the same letter as the one that appeared 1 letter ago.),Z,None,,,,,,,,,0,4,4,4,0,5,5,5,,,,,,,,,,,,,,,,,,,,,,,,,,,,,,,,,,,,,,,,,,,,,,,,,,,,,,,,,,,,,,,,,,,,,1.8222,472.4426057,None,None,1,472.4426057,None,,P048,FENCOG,2,Post,2022_Jun_07_1226,N-Back (New Version 2021),2021.1.4,120.1832073
,,,,Conditions/Version_1/oneback(2)_v1.xlsx,New rule: Press 'space' when you see 1-back (i.e. the same letter as the one that appeared 1 letter ago.),c,None,,,,,,,,,0,4,4,4,0,6,6,6,,,,,,,,,,,,,,,,,,,,,,,,,,,,,,,,,,,,,,,,,,,,,,,,,,,,,,,,,,,,,,,,,,,,,1.9834,476.4321933,None,None,1,476.4321933,None,,P048,FENCOG,2,Post,2022_Jun_07_1226,N-Back (New Version 2021),2021.1.4,120.1832073
,,,,Conditions/Version_1/oneback(2)_v1.xlsx,New rule: Press 'space' when you see 1-back (i.e. the same letter as the one that appeared 1 letter ago.),c,space,,,,,,,,,0,4,4,4,0,7,7,7,,,,,,,,,,,,,,,,,,,,,,,,,,,,,,,,,,,,,,,,,,,,,,,,,,,,,,,,,,,,,,,,,,,,,1.4316,479.871173,None,space,1,479.871173,None,0.9851855,P048,FENCOG,2,Post,2022_Jun_07_1226,N-Back (New Version 2021),2021.1.4,120.1832073
,,,,Conditions/Version_1/oneback(2)_v1.xlsx,New rule: Press 'space' when you see 1-back (i.e. the same letter as the one that appeared 1 letter ago.),P,None,,,,,,,,,0,4,4,4,0,8,8,8,,,,,,,,,,,,,,,,,,,,,,,,,,,,,,,,,,,,,,,,,,,,,,,,,,,,,,,,,,,,,,,,,,,,,1.3572,483.2391555,None,None,1,483.2391555,None,,P048,FENCOG,2,Post,2022_Jun_07_1226,N-Back (New Version 2021),2021.1.4,120.1832073
,,,,Conditions/Version_1/oneback(2)_v1.xlsx,New rule: Press 'space' when you see 1-back (i.e. the same letter as the one that appeared 1 letter ago.),p,space,,,,,,,,,0,4,4,4,0,9,9,9,,,,,,,,,,,,,,,,,,,,,,,,,,,,,,,,,,,,,,,,,,,,,,,,,,,,,,,,,,,,,,,,,,,,,1.8718,487.1191176,None,space,1,487.1191176,None,1.2414491,P048,FENCOG,2,Post,2022_Jun_07_1226,N-Back (New Version 2021),2021.1.4,120.1832073
,,,,Conditions/Version_1/oneback(2)_v1.xlsx,New rule: Press 'space' when you see 1-back (i.e. the same letter as the one that appeared 1 letter ago.),,,,,,,,,,,0,4,4,4,,,,,,,,,,,,,,,,,,,,,,,,,,,,,,,,,,,,,,,,,,,,,,,,,,,,,,,,,,,,,,,,,,,,,,,,,,,,,,,,,P048,FENCOG,2,Post,2022_Jun_07_1226,N-Back (New Version 2021),2021.1.4,120.1832073
,,,,Conditions/Version_1/zeroback(2)_v1.xlsx,New rule: Press 'space' when you see the letter 'x' or 'X'.,p,None,,,,,,,,,0,5,5,5,0,0,0,0,,,,,,,,,,,,,,,,,,,,,,,,,,,,,,,,,,,,,,,,,,,,,,,,,,,,,,,,,,,489.1428097,None,492.1280404,None,space,0.4321643,492.1280404,None,489.1428097,None,1.2828,493.8753987,None,None,1,493.8753987,None,,P048,FENCOG,2,Post,2022_Jun_07_1226,N-Back (New Version 2021),2021.1.4,120.1832073
,,,,Conditions/Version_1/zeroback(2)_v1.xlsx,New rule: Press 'space' when you see the letter 'x' or 'X'.,L,None,,,,,,,,,0,5,5,5,0,1,1,1,,,,,,,,,,,,,,,,,,,,,,,,,,,,,,,,,,,,,,,,,,,,,,,,,,,,,,,,,,,,,,,,,,,,,1.165,497.0429649,None,None,1,497.0429649,None,,P048,FENCOG,2,Post,2022_Jun_07_1226,N-Back (New Version 2021),2021.1.4,120.1832073
,,,,Conditions/Version_1/zeroback(2)_v1.xlsx,New rule: Press 'space' when you see the letter 'x' or 'X'.,G,None,,,,,,,,,0,5,5,5,0,2,2,2,,,,,,,,,,,,,,,,,,,,,,,,,,,,,,,,,,,,,,,,,,,,,,,,,,,,,,,,,,,,,,,,,,,,,1.2208,500.2757133,None,None,1,500.2757133,None,,P048,FENCOG,2,Post,2022_Jun_07_1226,N-Back (New Version 2021),2021.1.4,120.1832073
,,,,Conditions/Version_1/zeroback(2)_v1.xlsx,New rule: Press 'space' when you see the letter 'x' or 'X'.,y,None,,,,,,,,,0,5,5,5,0,3,3,3,,,,,,,,,,,,,,,,,,,,,,,,,,,,,,,,,,,,,,,,,,,,,,,,,,,,,,,,,,,,,,,,,,,,,1.1092,503.3890468,None,None,1,503.3890468,None,,P048,FENCOG,2,Post,2022_Jun_07_1226,N-Back (New Version 2021),2021.1.4,120.1832073
,,,,Conditions/Version_1/zeroback(2)_v1.xlsx,New rule: Press 'space' when you see the letter 'x' or 'X'.,Y,None,,,,,,,,,0,5,5,5,0,4,4,4,,,,,,,,,,,,,,,,,,,,,,,,,,,,,,,,,,,,,,,,,,,,,,,,,,,,,,,,,,,,,,,,,,,,,1.909,507.3046196,None,None,1,507.3046196,None,,P048,FENCOG,2,Post,2022_Jun_07_1226,N-Back (New Version 2021),2021.1.4,120.1832073
,,,,Conditions/Version_1/zeroback(2)_v1.xlsx,New rule: Press 'space' when you see the letter 'x' or 'X'.,W,None,,,,,,,,,0,5,5,5,0,5,5,5,,,,,,,,,,,,,,,,,,,,,,,,,,,,,,,,,,,,,,,,,,,,,,,,,,,,,,,,,,,,,,,,,,,,,1.4936,510.8049877,None,None,1,510.8049877,None,,P048,FENCOG,2,Post,2022_Jun_07_1226,N-Back (New Version 2021),2021.1.4,120.1832073
,,,,Conditions/Version_1/zeroback(2)_v1.xlsx,New rule: Press 'space' when you see the letter 'x' or 'X'.,x,space,,,,,,,,,0,5,5,5,0,6,6,6,,,,,,,,,,,,,,,,,,,,,,,,,,,,,,,,,,,,,,,,,,,,,,,,,,,,,,,,,,,,,,,,,,,,,1.9214,514.7367197,None,space,1,514.7367197,None,0.7757109,P048,FENCOG,2,Post,2022_Jun_07_1226,N-Back (New Version 2021),2021.1.4,120.1832073
,,,,Conditions/Version_1/zeroback(2)_v1.xlsx,New rule: Press 'space' when you see the letter 'x' or 'X'.,X,space,,,,,,,,,0,5,5,5,0,7,7,7,,,,,,,,,,,,,,,,,,,,,,,,,,,,,,,,,,,,,,,,,,,,,,,,,,,,,,,,,,,,,,,,,,,,,1.7602,518.5095507,None,space,1,518.5095507,None,1.0267984,P048,FENCOG,2,Post,2022_Jun_07_1226,N-Back (New Version 2021),2021.1.4,120.1832073
,,,,Conditions/Version_1/zeroback(2)_v1.xlsx,New rule: Press 'space' when you see the letter 'x' or 'X'.,p,None,,,,,,,,,0,5,5,5,0,8,8,8,,,,,,,,,,,,,,,,,,,,,,,,,,,,,,,,,,,,,,,,,,,,,,,,,,,,,,,,,,,,,,,,,,,,,1.9338,522.443493,None,None,1,522.443493,None,,P048,FENCOG,2,Post,2022_Jun_07_1226,N-Back (New Version 2021),2021.1.4,120.1832073
,,,,Conditions/Version_1/zeroback(2)_v1.xlsx,New rule: Press 'space' when you see the letter 'x' or 'X'.,h,None,,,,,,,,,0,5,5,5,0,9,9,9,,,,,,,,,,,,,,,,,,,,,,,,,,,,,,,,,,,,,,,,,,,,,,,,,,,,,,,,,,,,,,,,,,,,,1.8532,526.3112109,None,None,1,526.3112109,None,,P048,FENCOG,2,Post,2022_Jun_07_1226,N-Back (New Version 2021),2021.1.4,120.1832073
,,,,Conditions/Version_1/zeroback(2)_v1.xlsx,New rule: Press 'space' when you see the letter 'x' or 'X'.,,,,,,,,,,,0,5,5,5,,,,,,,,,,,,,,,,,,,,,,,,,,,,,,,,,,,,,,,,,,,,,,,,,,,,,,,,,,,,,,,,,,,,,,,,,,,,,,,,,P048,FENCOG,2,Post,2022_Jun_07_1226,N-Back (New Version 2021),2021.1.4,120.1832073
,,,,Conditions/Version_1/threeback(2)_v1.xlsx,New rule: Press 'space' when you see 3-back (i.e. the same letter as the one that appeared 3 letters ago.),q,None,,,,,,,,,0,6,6,6,0,0,0,0,,,,,,,,,,,,,,,,,,,,,,,,,,,,,,,,,,,,,,,,,,,,,,,,,,,,,,,,,,,528.3364926,None,531.3247017,None,space,3.5397216,531.3247017,None,528.3364926,None,1.2704,536.1626662,None,None,1,536.1626662,None,,P048,FENCOG,2,Post,2022_Jun_07_1226,N-Back (New Version 2021),2021.1.4,120.1832073
,,,,Conditions/Version_1/threeback(2)_v1.xlsx,New rule: Press 'space' when you see 3-back (i.e. the same letter as the one that appeared 3 letters ago.),Y,None,,,,,,,,,0,6,6,6,0,1,1,1,,,,,,,,,,,,,,,,,,,,,,,,,,,,,,,,,,,,,,,,,,,,,,,,,,,,,,,,,,,,,,,,,,,,,1.2766,539.4461529,None,None,1,539.4461529,None,,P048,FENCOG,2,Post,2022_Jun_07_1226,N-Back (New Version 2021),2021.1.4,120.1832073
,,,,Conditions/Version_1/threeback(2)_v1.xlsx,New rule: Press 'space' when you see 3-back (i.e. the same letter as the one that appeared 3 letters ago.),p,None,,,,,,,,,0,6,6,6,0,2,2,2,,,,,,,,,,,,,,,,,,,,,,,,,,,,,,,,,,,,,,,,,,,,,,,,,,,,,,,,,,,,,,,,,,,,,1.5432,543.0034241,None,None,1,543.0034241,None,,P048,FENCOG,2,Post,2022_Jun_07_1226,N-Back (New Version 2021),2021.1.4,120.1832073
,,,,Conditions/Version_1/threeback(2)_v1.xlsx,New rule: Press 'space' when you see 3-back (i.e. the same letter as the one that appeared 3 letters ago.),p,None,,,,,,,,,0,6,6,6,0,3,3,3,,,,,,,,,,,,,,,,,,,,,,,,,,,,,,,,,,,,,,,,,,,,,,,,,,,,,,,,,,,,,,,,,,,,,1.4192,546.4350116,None,None,1,546.4350116,None,,P048,FENCOG,2,Post,2022_Jun_07_1226,N-Back (New Version 2021),2021.1.4,120.1832073
,,,,Conditions/Version_1/threeback(2)_v1.xlsx,New rule: Press 'space' when you see 3-back (i.e. the same letter as the one that appeared 3 letters ago.),y,space,,,,,,,,,0,6,6,6,0,4,4,4,,,,,,,,,,,,,,,,,,,,,,,,,,,,,,,,,,,,,,,,,,,,,,,,,,,,,,,,,,,,,,,,,,,,,1.0844,549.5265702,None,space,1,549.5265702,None,0.8735539,P048,FENCOG,2,Post,2022_Jun_07_1226,N-Back (New Version 2021),2021.1.4,120.1832073
,,,,Conditions/Version_1/threeback(2)_v1.xlsx,New rule: Press 'space' when you see 3-back (i.e. the same letter as the one that appeared 3 letters ago.),u,None,,,,,,,,,0,6,6,6,0,5,5,5,,,,,,,,,,,,,,,,,,,,,,,,,,,,,,,,,,,,,,,,,,,,,,,,,,,,,,,,,,,,,,,,,,,,,1.4688,553.0078619,None,None,1,553.0078619,None,,P048,FENCOG,2,Post,2022_Jun_07_1226,N-Back (New Version 2021),2021.1.4,120.1832073
,,,,Conditions/Version_1/threeback(2)_v1.xlsx,New rule: Press 'space' when you see 3-back (i.e. the same letter as the one that appeared 3 letters ago.),P,space,,,,,,,,,0,6,6,6,0,6,6,6,,,,,,,,,,,,,,,,,,,,,,,,,,,,,,,,,,,,,,,,,,,,,,,,,,,,,,,,,,,,,,,,,,,,,1.4378,556.4483357,None,space,1,556.4483357,None,1.2880595,P048,FENCOG,2,Post,2022_Jun_07_1226,N-Back (New Version 2021),2021.1.4,120.1832073
,,,,Conditions/Version_1/threeback(2)_v1.xlsx,New rule: Press 'space' when you see 3-back (i.e. the same letter as the one that appeared 3 letters ago.),a,None,,,,,,,,,0,6,6,6,0,7,7,7,,,,,,,,,,,,,,,,,,,,,,,,,,,,,,,,,,,,,,,,,,,,,,,,,,,,,,,,,,,,,,,,,,,,,1.754,560.2067835,None,None,1,560.2067835,None,,P048,FENCOG,2,Post,2022_Jun_07_1226,N-Back (New Version 2021),2021.1.4,120.1832073
,,,,Conditions/Version_1/threeback(2)_v1.xlsx,New rule: Press 'space' when you see 3-back (i.e. the same letter as the one that appeared 3 letters ago.),U,space,,,,,,,,,0,6,6,6,0,8,8,8,,,,,,,,,,,,,,,,,,,,,,,,,,,,,,,,,,,,,,,,,,,,,,,,,,,,,,,,,,,,,,,,,,,,,1.8718,564.0889331,None,space,1,564.0889331,None,1.207438,P048,FENCOG,2,Post,2022_Jun_07_1226,N-Back (New Version 2021),2021.1.4,120.1832073
,,,,Conditions/Version_1/threeback(2)_v1.xlsx,New rule: Press 'space' when you see 3-back (i.e. the same letter as the one that appeared 3 letters ago.),q,None,,,,,,,,,0,6,6,6,0,9,9,9,,,,,,,,,,,,,,,,,,,,,,,,,,,,,,,,,,,,,,,,,,,,,,,,,,,,,,,,,,,,,,,,,,,,,1.9896,568.0913929,None,None,1,568.0913929,None,,P048,FENCOG,2,Post,2022_Jun_07_1226,N-Back (New Version 2021),2021.1.4,120.1832073
,,,,Conditions/Version_1/threeback(2)_v1.xlsx,New rule: Press 'space' when you see 3-back (i.e. the same letter as the one that appeared 3 letters ago.),,,,,,,,,,,0,6,6,6,,,,,,,,,,,,,,,,,,,,,,,,,,,,,,,,,,,,,,,,,,,,,,,,,,,,,,,,,,,,,,,,,,,,,,,,,,,,,,,,,P048,FENCOG,2,Post,2022_Jun_07_1226,N-Back (New Version 2021),2021.1.4,120.1832073
,,,,Conditions/Version_1/twoback(2)_v1.xlsx,New rule: Press 'space' when you see 2-back (i.e. the same letter as the one that appeared 2 letters ago.),q,None,,,,,,,,,0,7,7,7,0,0,0,0,,,,,,,,,,,,,,,,,,,,,,,,,,,,,,,,,,,,,,,,,,,,,,,,,,,,,,,,,,,570.1179215,None,573.1042133,None,space,0.472292,573.1042133,None,570.1179215,None,1.7168,575.3264179,None,None,1,575.3264179,None,,P048,FENCOG,2,Post,2022_Jun_07_1226,N-Back (New Version 2021),2021.1.4,120.1832073
,,,,Conditions/Version_1/twoback(2)_v1.xlsx,New rule: Press 'space' when you see 2-back (i.e. the same letter as the one that appeared 2 letters ago.),r,None,,,,,,,,,0,7,7,7,0,1,1,1,,,,,,,,,,,,,,,,,,,,,,,,,,,,,,,,,,,,,,,,,,,,,,,,,,,,,,,,,,,,,,,,,,,,,1.1712,578.5003564,None,None,1,578.5003564,None,,P048,FENCOG,2,Post,2022_Jun_07_1226,N-Back (New Version 2021),2021.1.4,120.1832073
,,,,Conditions/Version_1/twoback(2)_v1.xlsx,New rule: Press 'space' when you see 2-back (i.e. the same letter as the one that appeared 2 letters ago.),q,space,,,,,,,,,0,7,7,7,0,2,2,2,,,,,,,,,,,,,,,,,,,,,,,,,,,,,,,,,,,,,,,,,,,,,,,,,,,,,,,,,,,,,,,,,,,,,1.3324,581.8326539,None,space,1,581.8326539,None,1.0316548,P048,FENCOG,2,Post,2022_Jun_07_1226,N-Back (New Version 2021),2021.1.4,120.1832073
,,,,Conditions/Version_1/twoback(2)_v1.xlsx,New rule: Press 'space' when you see 2-back (i.e. the same letter as the one that appeared 2 letters ago.),P,None,,,,,,,,,0,7,7,7,0,3,3,3,,,,,,,,,,,,,,,,,,,,,,,,,,,,,,,,,,,,,,,,,,,,,,,,,,,,,,,,,,,,,,,,,,,,,1.1774,585.0176494,None,None,1,585.0176494,None,,P048,FENCOG,2,Post,2022_Jun_07_1226,N-Back (New Version 2021),2021.1.4,120.1832073
,,,,Conditions/Version_1/twoback(2)_v1.xlsx,New rule: Press 'space' when you see 2-back (i.e. the same letter as the one that appeared 2 letters ago.),p,None,,,,,,,,,0,7,7,7,0,4,4,4,,,,,,,,,,,,,,,,,,,,,,,,,,,,,,,,,,,,,,,,,,,,,,,,,,,,,,,,,,,,,,,,,,,,,1.8346,588.864677,None,None,1,588.864677,None,,P048,FENCOG,2,Post,2022_Jun_07_1226,N-Back (New Version 2021),2021.1.4,120.1832073
,,,,Conditions/Version_1/twoback(2)_v1.xlsx,New rule: Press 'space' when you see 2-back (i.e. the same letter as the one that appeared 2 letters ago.),H,None,,,,,,,,,0,7,7,7,0,5,5,5,,,,,,,,,,,,,,,,,,,,,,,,,,,,,,,,,,,,,,,,,,,,,,,,,,,,,,,,,,,,,,,,,,,,,1.9338,592.8075641,None,None,1,592.8075641,None,,P048,FENCOG,2,Post,2022_Jun_07_1226,N-Back (New Version 2021),2021.1.4,120.1832073
,,,,Conditions/Version_1/twoback(2)_v1.xlsx,New rule: Press 'space' when you see 2-back (i.e. the same letter as the one that appeared 2 letters ago.),g,None,,,,,,,,,0,7,7,7,0,6,6,6,,,,,,,,,,,,,,,,,,,,,,,,,,,,,,,,,,,,,,,,,,,,,,,,,,,,,,,,,,,,,,,,,,,,,1.0844,595.9033804,None,None,1,595.9033804,None,,P048,FENCOG,2,Post,2022_Jun_07_1226,N-Back (New Version 2021),2021.1.4,120.1832073
,,,,Conditions/Version_1/twoback(2)_v1.xlsx,New rule: Press 'space' when you see 2-back (i.e. the same letter as the one that appeared 2 letters ago.),j,None,,,,,,,,,0,7,7,7,0,7,7,7,,,,,,,,,,,,,,,,,,,,,,,,,,,,,,,,,,,,,,,,,,,,,,,,,,,,,,,,,,,,,,,,,,,,,1.0224,598.9288049,None,None,1,598.9288049,None,,P048,FENCOG,2,Post,2022_Jun_07_1226,N-Back (New Version 2021),2021.1.4,120.1832073
,,,,Conditions/Version_1/twoback(2)_v1.xlsx,New rule: Press 'space' when you see 2-back (i.e. the same letter as the one that appeared 2 letters ago.),g,space,,,,,,,,,0,7,7,7,0,8,8,8,,,,,,,,,,,,,,,,,,,,,,,,,,,,,,,,,,,,,,,,,,,,,,,,,,,,,,,,,,,,,,,,,,,,,1.3696,602.3098376,None,space,1,602.3098376,None,1.1222208,P048,FENCOG,2,Post,2022_Jun_07_1226,N-Back (New Version 2021),2021.1.4,120.1832073
,,,,Conditions/Version_1/twoback(2)_v1.xlsx,New rule: Press 'space' when you see 2-back (i.e. the same letter as the one that appeared 2 letters ago.),G,None,,,,,,,,,0,7,7,7,0,9,9,9,,,,,,,,,,,,,,,,,,,,,,,,,,,,,,,,,,,,,,,,,,,,,,,,,,,,,,,,,,,,,,,,,,,,,1.5432,605.8639632,None,None,1,605.8639632,None,,P048,FENCOG,2,Post,2022_Jun_07_1226,N-Back (New Version 2021),2021.1.4,120.1832073
,,,,Conditions/Version_1/twoback(2)_v1.xlsx,New rule: Press 'space' when you see 2-back (i.e. the same letter as the one that appeared 2 letters ago.),,,,,,,,,,,0,7,7,7,,,,,,,,,,,,,,,,,,,,,,,,,,,,,,,,,,,,,,,,,,,,,,,,,,,,,,,,,,,,,,,,,,,,,,,,,,,,,,,,,P048,FENCOG,2,Post,2022_Jun_07_1226,N-Back (New Version 2021),2021.1.4,120.1832073
,,,,Conditions/Version_1/threeback(3)_v1.xlsx,New rule: Press 'space' when you see 3-back (i.e. the same letter as the one that appeared 3 letters ago.),w,None,,,,,,,,,0,8,8,8,0,0,0,0,,,,,,,,,,,,,,,,,,,,,,,,,,,,,,,,,,,,,,,,,,,,,,,,,,,,,,,,,,,607.8968436,None,610.8846919,None,space,0.3557481,610.8846919,None,607.8968436,None,1.01,612.2735517,None,None,1,612.2735517,None,,P048,FENCOG,2,Post,2022_Jun_07_1226,N-Back (New Version 2021),2021.1.4,120.1832073
,,,,Conditions/Version_1/threeback(3)_v1.xlsx,New rule: Press 'space' when you see 3-back (i.e. the same letter as the one that appeared 3 letters ago.),p,None,,,,,,,,,0,8,8,8,0,1,1,1,,,,,,,,,,,,,,,,,,,,,,,,,,,,,,,,,,,,,,,,,,,,,,,,,,,,,,,,,,,,,,,,,,,,,1.3634,615.6394141,None,None,1,615.6394141,None,,P048,FENCOG,2,Post,2022_Jun_07_1226,N-Back (New Version 2021),2021.1.4,120.1832073
,,,,Conditions/Version_1/threeback(3)_v1.xlsx,New rule: Press 'space' when you see 3-back (i.e. the same letter as the one that appeared 3 letters ago.),P,None,,,,,,,,,0,8,8,8,0,2,2,2,,,,,,,,,,,,,,,,,,,,,,,,,,,,,,,,,,,,,,,,,,,,,,,,,,,,,,,,,,,,,,,,,,,,,1.3014,618.9475613,None,None,1,618.9475613,None,,P048,FENCOG,2,Post,2022_Jun_07_1226,N-Back (New Version 2021),2021.1.4,120.1832073
,,,,Conditions/Version_1/threeback(3)_v1.xlsx,New rule: Press 'space' when you see 3-back (i.e. the same letter as the one that appeared 3 letters ago.),i,None,,,,,,,,,0,8,8,8,0,3,3,3,,,,,,,,,,,,,,,,,,,,,,,,,,,,,,,,,,,,,,,,,,,,,,,,,,,,,,,,,,,,,,,,,,,,,1.6982,622.6575631,None,None,1,622.6575631,None,,P048,FENCOG,2,Post,2022_Jun_07_1226,N-Back (New Version 2021),2021.1.4,120.1832073
,,,,Conditions/Version_1/threeback(3)_v1.xlsx,New rule: Press 'space' when you see 3-back (i.e. the same letter as the one that appeared 3 letters ago.),f,None,,,,,,,,,0,8,8,8,0,4,4,4,,,,,,,,,,,,,,,,,,,,,,,,,,,,,,,,,,,,,,,,,,,,,,,,,,,,,,,,,,,,,,,,,,,,,1.8966,626.5630122,None,None,1,626.5630122,None,,P048,FENCOG,2,Post,2022_Jun_07_1226,N-Back (New Version 2021),2021.1.4,120.1832073
,,,,Conditions/Version_1/threeback(3)_v1.xlsx,New rule: Press 'space' when you see 3-back (i.e. the same letter as the one that appeared 3 letters ago.),o,None,,,,,,,,,0,8,8,8,0,5,5,5,,,,,,,,,,,,,,,,,,,,,,,,,,,,,,,,,,,,,,,,,,,,,,,,,,,,,,,,,,,,,,,,,,,,,1.537,630.1107038,None,None,1,630.1107038,None,,P048,FENCOG,2,Post,2022_Jun_07_1226,N-Back (New Version 2021),2021.1.4,120.1832073
,,,,Conditions/Version_1/threeback(3)_v1.xlsx,New rule: Press 'space' when you see 3-back (i.e. the same letter as the one that appeared 3 letters ago.),w,None,,,,,,,,,0,8,8,8,0,6,6,6,,,,,,,,,,,,,,,,,,,,,,,,,,,,,,,,,,,,,,,,,,,,,,,,,,,,,,,,,,,,,,,,,,,,,1.4068,633.5320349,None,None,1,633.5320349,None,,P048,FENCOG,2,Post,2022_Jun_07_1226,N-Back (New Version 2021),2021.1.4,120.1832073
,,,,Conditions/Version_1/threeback(3)_v1.xlsx,New rule: Press 'space' when you see 3-back (i.e. the same letter as the one that appeared 3 letters ago.),F,space,,,,,,,,,0,8,8,8,0,7,7,7,,,,,,,,,,,,,,,,,,,,,,,,,,,,,,,,,,,,,,,,,,,,,,,,,,,,,,,,,,,,,,,,,,,,,1.568,637.1079484,None,space,1,637.1079484,None,1.0443802,P048,FENCOG,2,Post,2022_Jun_07_1226,N-Back (New Version 2021),2021.1.4,120.1832073
,,,,Conditions/Version_1/threeback(3)_v1.xlsx,New rule: Press 'space' when you see 3-back (i.e. the same letter as the one that appeared 3 letters ago.),p,None,,,,,,,,,0,8,8,8,0,8,8,8,,,,,,,,,,,,,,,,,,,,,,,,,,,,,,,,,,,,,,,,,,,,,,,,,,,,,,,,,,,,,,,,,,,,,1.1526,640.2651013,None,None,1,640.2651013,None,,P048,FENCOG,2,Post,2022_Jun_07_1226,N-Back (New Version 2021),2021.1.4,120.1832073
,,,,Conditions/Version_1/threeback(3)_v1.xlsx,New rule: Press 'space' when you see 3-back (i.e. the same letter as the one that appeared 3 letters ago.),W,space,,,,,,,,,0,8,8,8,0,9,9,9,,,,,,,,,,,,,,,,,,,,,,,,,,,,,,,,,,,,,,,,,,,,,,,,,,,,,,,,,,,,,,,,,,,,,1.5432,643.8143807,None,space,1,643.8143807,None,1.338005,P048,FENCOG,2,Post,2022_Jun_07_1226,N-Back (New Version 2021),2021.1.4,120.1832073
,,,,Conditions/Version_1/threeback(3)_v1.xlsx,New rule: Press 'space' when you see 3-back (i.e. the same letter as the one that appeared 3 letters ago.),,,,,,,,,,,0,8,8,8,,,,,,,,,,,,,,,,,,,,,,,,,,,,,,,,,,,,,,,,,,,,,,,,,,,,,,,,,,,,,,,,,,,,,,,,,,,,,,,,,P048,FENCOG,2,Post,2022_Jun_07_1226,N-Back (New Version 2021),2021.1.4,120.1832073
,,,,Conditions/Version_1/zeroback(3)_v1.xlsx,New rule: Press 'space' when you see the letter 'x' or 'X'.,X,space,,,,,,,,,0,9,9,9,0,0,0,0,,,,,,,,,,,,,,,,,,,,,,,,,,,,,,,,,,,,,,,,,,,,,,,,,,,,,,,,,,,645.8344692,None,648.8238357,None,space,0.7121634,648.8238357,None,645.8344692,None,1.444,651.0122561,None,space,1,651.0122561,None,0.7722393,P048,FENCOG,2,Post,2022_Jun_07_1226,N-Back (New Version 2021),2021.1.4,120.1832073
,,,,Conditions/Version_1/zeroback(3)_v1.xlsx,New rule: Press 'space' when you see the letter 'x' or 'X'.,B,None,,,,,,,,,0,9,9,9,0,1,1,1,,,,,,,,,,,,,,,,,,,,,,,,,,,,,,,,,,,,,,,,,,,,,,,,,,,,,,,,,,,,,,,,,,,,,1.3386,654.3655658,None,None,1,654.3655658,None,,P048,FENCOG,2,Post,2022_Jun_07_1226,N-Back (New Version 2021),2021.1.4,120.1832073
,,,,Conditions/Version_1/zeroback(3)_v1.xlsx,New rule: Press 'space' when you see the letter 'x' or 'X'.,m,None,,,,,,,,,0,9,9,9,0,2,2,2,,,,,,,,,,,,,,,,,,,,,,,,,,,,,,,,,,,,,,,,,,,,,,,,,,,,,,,,,,,,,,,,,,,,,1.1278,657.5019509,None,None,1,657.5019509,None,,P048,FENCOG,2,Post,2022_Jun_07_1226,N-Back (New Version 2021),2021.1.4,120.1832073
,,,,Conditions/Version_1/zeroback(3)_v1.xlsx,New rule: Press 'space' when you see the letter 'x' or 'X'.,m,None,,,,,,,,,0,9,9,9,0,3,3,3,,,,,,,,,,,,,,,,,,,,,,,,,,,,,,,,,,,,,,,,,,,,,,,,,,,,,,,,,,,,,,,,,,,,,1.5432,661.0509334,None,None,1,661.0509334,None,,P048,FENCOG,2,Post,2022_Jun_07_1226,N-Back (New Version 2021),2021.1.4,120.1832073
,,,,Conditions/Version_1/zeroback(3)_v1.xlsx,New rule: Press 'space' when you see the letter 'x' or 'X'.,o,None,,,,,,,,,0,9,9,9,0,4,4,4,,,,,,,,,,,,,,,,,,,,,,,,,,,,,,,,,,,,,,,,,,,,,,,,,,,,,,,,,,,,,,,,,,,,,1.8904,664.9459806,None,None,1,664.9459806,None,,P048,FENCOG,2,Post,2022_Jun_07_1226,N-Back (New Version 2021),2021.1.4,120.1832073
,,,,Conditions/Version_1/zeroback(3)_v1.xlsx,New rule: Press 'space' when you see the letter 'x' or 'X'.,p,None,,,,,,,,,0,9,9,9,0,5,5,5,,,,,,,,,,,,,,,,,,,,,,,,,,,,,,,,,,,,,,,,,,,,,,,,,,,,,,,,,,,,,,,,,,,,,1.5928,668.5486273,None,None,1,668.5486273,None,,P048,FENCOG,2,Post,2022_Jun_07_1226,N-Back (New Version 2021),2021.1.4,120.1832073
,,,,Conditions/Version_1/zeroback(3)_v1.xlsx,New rule: Press 'space' when you see the letter 'x' or 'X'.,G,None,,,,,,,,,0,9,9,9,0,6,6,6,,,,,,,,,,,,,,,,,,,,,,,,,,,,,,,,,,,,,,,,,,,,,,,,,,,,,,,,,,,,,,,,,,,,,1.3944,671.9485836,None,None,1,671.9485836,None,,P048,FENCOG,2,Post,2022_Jun_07_1226,N-Back (New Version 2021),2021.1.4,120.1832073
,,,,Conditions/Version_1/zeroback(3)_v1.xlsx,New rule: Press 'space' when you see the letter 'x' or 'X'.,X,space,,,,,,,,,0,9,9,9,0,7,7,7,,,,,,,,,,,,,,,,,,,,,,,,,,,,,,,,,,,,,,,,,,,,,,,,,,,,,,,,,,,,,,,,,,,,,1.8098,675.765503,None,space,1,675.765503,None,0.9065903,P048,FENCOG,2,Post,2022_Jun_07_1226,N-Back (New Version 2021),2021.1.4,120.1832073
,,,,Conditions/Version_1/zeroback(3)_v1.xlsx,New rule: Press 'space' when you see the letter 'x' or 'X'.,p,None,,,,,,,,,0,9,9,9,0,8,8,8,,,,,,,,,,,,,,,,,,,,,,,,,,,,,,,,,,,,,,,,,,,,,,,,,,,,,,,,,,,,,,,,,,,,,1.0534,678.8289453,None,None,1,678.8289453,None,,P048,FENCOG,2,Post,2022_Jun_07_1226,N-Back (New Version 2021),2021.1.4,120.1832073
,,,,Conditions/Version_1/zeroback(3)_v1.xlsx,New rule: Press 'space' when you see the letter 'x' or 'X'.,x,space,,,,,,,,,0,9,9,9,0,9,9,9,,,,,,,,,,,,,,,,,,,,,,,,,,,,,,,,,,,,,,,,,,,,,,,,,,,,,,,,,,,,,,,,,,,,,1.506,682.3374817,None,space,1,682.3374817,None,1.0148567,P048,FENCOG,2,Post,2022_Jun_07_1226,N-Back (New Version 2021),2021.1.4,120.1832073
,,,,Conditions/Version_1/zeroback(3)_v1.xlsx,New rule: Press 'space' when you see the letter 'x' or 'X'.,,,,,,,,,,,0,9,9,9,,,,,,,,,,,,,,,,,,,,,,,,,,,,,,,,,,,,,,,,,,,,,,,,,,,,,,,,,,,,,,,,,,,,,,,,,,,,,,,,,P048,FENCOG,2,Post,2022_Jun_07_1226,N-Back (New Version 2021),2021.1.4,120.1832073
,,,,Conditions/Version_1/twoback(3)_v1.xlsx,New rule: Press 'space' when you see 2-back (i.e. the same letter as the one that appeared 2 letters ago.),e,None,,,,,,,,,0,10,10,10,0,0,0,0,,,,,,,,,,,,,,,,,,,,,,,,,,,,,,,,,,,,,,,,,,,,,,,,,,,,,,,,,,,684.3721039,None,687.3538075,None,space,0.6702034,687.3538075,None,684.3721039,None,1.4688,689.5258039,None,None,1,689.5258039,None,,P048,FENCOG,2,Post,2022_Jun_07_1226,N-Back (New Version 2021),2021.1.4,120.1832073
,,,,Conditions/Version_1/twoback(3)_v1.xlsx,New rule: Press 'space' when you see 2-back (i.e. the same letter as the one that appeared 2 letters ago.),o,None,,,,,,,,,0,10,10,10,0,1,1,1,,,,,,,,,,,,,,,,,,,,,,,,,,,,,,,,,,,,,,,,,,,,,,,,,,,,,,,,,,,,,,,,,,,,,1.1216,692.6500344,None,None,1,692.6500344,None,,P048,FENCOG,2,Post,2022_Jun_07_1226,N-Back (New Version 2021),2021.1.4,120.1832073
,,,,Conditions/Version_1/twoback(3)_v1.xlsx,New rule: Press 'space' when you see 2-back (i.e. the same letter as the one that appeared 2 letters ago.),P,None,,,,,,,,,0,10,10,10,0,2,2,2,,,,,,,,,,,,,,,,,,,,,,,,,,,,,,,,,,,,,,,,,,,,,,,,,,,,,,,,,,,,,,,,,,,,,1.2642,695.9155373,None,None,1,695.9155373,None,,P048,FENCOG,2,Post,2022_Jun_07_1226,N-Back (New Version 2021),2021.1.4,120.1832073
,,,,Conditions/Version_1/twoback(3)_v1.xlsx,New rule: Press 'space' when you see 2-back (i.e. the same letter as the one that appeared 2 letters ago.),z,None,,,,,,,,,0,10,10,10,0,3,3,3,,,,,,,,,,,,,,,,,,,,,,,,,,,,,,,,,,,,,,,,,,,,,,,,,,,,,,,,,,,,,,,,,,,,,1.196,699.1257177,None,None,1,699.1257177,None,,P048,FENCOG,2,Post,2022_Jun_07_1226,N-Back (New Version 2021),2021.1.4,120.1832073
,,,,Conditions/Version_1/twoback(3)_v1.xlsx,New rule: Press 'space' when you see 2-back (i.e. the same letter as the one that appeared 2 letters ago.),X,None,,,,,,,,,0,10,10,10,0,4,4,4,,,,,,,,,,,,,,,,,,,,,,,,,,,,,,,,,,,,,,,,,,,,,,,,,,,,,,,,,,,,,,,,,,,,,1.0782,702.2093998,None,None,1,702.2093998,None,,P048,FENCOG,2,Post,2022_Jun_07_1226,N-Back (New Version 2021),2021.1.4,120.1832073
,,,,Conditions/Version_1/twoback(3)_v1.xlsx,New rule: Press 'space' when you see 2-back (i.e. the same letter as the one that appeared 2 letters ago.),z,space,,,,,,,,,0,10,10,10,0,5,5,5,,,,,,,,,,,,,,,,,,,,,,,,,,,,,,,,,,,,,,,,,,,,,,,,,,,,,,,,,,,,,,,,,,,,,1.6672,705.8876001,None,space,1,705.8876001,None,1.3365208,P048,FENCOG,2,Post,2022_Jun_07_1226,N-Back (New Version 2021),2021.1.4,120.1832073
,,,,Conditions/Version_1/twoback(3)_v1.xlsx,New rule: Press 'space' when you see 2-back (i.e. the same letter as the one that appeared 2 letters ago.),x,space,,,,,,,,,0,10,10,10,0,6,6,6,,,,,,,,,,,,,,,,,,,,,,,,,,,,,,,,,,,,,,,,,,,,,,,,,,,,,,,,,,,,,,,,,,,,,1.8966,709.7864994,None,space,1,709.7864994,None,1.1344663,P048,FENCOG,2,Post,2022_Jun_07_1226,N-Back (New Version 2021),2021.1.4,120.1832073
,,,,Conditions/Version_1/twoback(3)_v1.xlsx,New rule: Press 'space' when you see 2-back (i.e. the same letter as the one that appeared 2 letters ago.),c,None,,,,,,,,,0,10,10,10,0,7,7,7,,,,,,,,,,,,,,,,,,,,,,,,,,,,,,,,,,,,,,,,,,,,,,,,,,,,,,,,,,,,,,,,,,,,,1.32,713.1132807,None,None,1,713.1132807,None,,P048,FENCOG,2,Post,2022_Jun_07_1226,N-Back (New Version 2021),2021.1.4,120.1832073
,,,,Conditions/Version_1/twoback(3)_v1.xlsx,New rule: Press 'space' when you see 2-back (i.e. the same letter as the one that appeared 2 letters ago.),i,None,,,,,,,,,0,10,10,10,0,8,8,8,,,,,,,,,,,,,,,,,,,,,,,,,,,,,,,,,,,,,,,,,,,,,,,,,,,,,,,,,,,,,,,,,,,,,1.2518,716.3761943,None,None,1,716.3761943,None,,P048,FENCOG,2,Post,2022_Jun_07_1226,N-Back (New Version 2021),2021.1.4,120.1832073
,,,,Conditions/Version_1/twoback(3)_v1.xlsx,New rule: Press 'space' when you see 2-back (i.e. the same letter as the one that appeared 2 letters ago.),C,space,,,,,,,,,0,10,10,10,0,9,9,9,,,,,,,,,,,,,,,,,,,,,,,,,,,,,,,,,,,,,,,,,,,,,,,,,,,,,,,,,,,,,,,,,,,,,1.4502,719.8274054,None,space,1,719.8274054,None,1.4451321,P048,FENCOG,2,Post,2022_Jun_07_1226,N-Back (New Version 2021),2021.1.4,120.1832073
,,,,Conditions/Version_1/twoback(3)_v1.xlsx,New rule: Press 'space' when you see 2-back (i.e. the same letter as the one that appeared 2 letters ago.),,,,,,,,,,,0,10,10,10,,,,,,,,,,,,,,,,,,,,,,,,,,,,,,,,,,,,,,,,,,,,,,,,,,,,,,,,,,,,,,,,,,,,,,,,,,,,,,,,,P048,FENCOG,2,Post,2022_Jun_07_1226,N-Back (New Version 2021),2021.1.4,120.1832073
,,,,Conditions/Version_1/oneback(3)_v1.xlsx,New rule: Press 'space' when you see 1-back (i.e. the same letter as the one that appeared 1 letter ago.),o,None,,,,,,,,,0,11,11,11,0,0,0,0,,,,,,,,,,,,,,,,,,,,,,,,,,,,,,,,,,,,,,,,,,,,,,,,,,,,,,,,,,,721.8571194,None,724.8420597,None,space,0.3342538,724.8420597,None,721.8571194,None,1.5184,726.7231301,None,None,1,726.7231301,None,,P048,FENCOG,2,Post,2022_Jun_07_1226,N-Back (New Version 2021),2021.1.4,120.1832073
,,,,Conditions/Version_1/oneback(3)_v1.xlsx,New rule: Press 'space' when you see 1-back (i.e. the same letter as the one that appeared 1 letter ago.),O,space,,,,,,,,,0,11,11,11,0,1,1,1,,,,,,,,,,,,,,,,,,,,,,,,,,,,,,,,,,,,,,,,,,,,,,,,,,,,,,,,,,,,,,,,,,,,,1.4936,730.2225105,None,space,1,730.2225105,None,1.0577413,P048,FENCOG,2,Post,2022_Jun_07_1226,N-Back (New Version 2021),2021.1.4,120.1832073
,,,,Conditions/Version_1/oneback(3)_v1.xlsx,New rule: Press 'space' when you see 1-back (i.e. the same letter as the one that appeared 1 letter ago.),h,None,,,,,,,,,0,11,11,11,0,2,2,2,,,,,,,,,,,,,,,,,,,,,,,,,,,,,,,,,,,,,,,,,,,,,,,,,,,,,,,,,,,,,,,,,,,,,1.5928,733.8650479,None,None,1,733.8650479,None,,P048,FENCOG,2,Post,2022_Jun_07_1226,N-Back (New Version 2021),2021.1.4,120.1832073
,,,,Conditions/Version_1/oneback(3)_v1.xlsx,New rule: Press 'space' when you see 1-back (i.e. the same letter as the one that appeared 1 letter ago.),g,None,,,,,,,,,0,11,11,11,0,3,3,3,,,,,,,,,,,,,,,,,,,,,,,,,,,,,,,,,,,,,,,,,,,,,,,,,,,,,,,,,,,,,,,,,,,,,1.32,737.1647725,None,None,1,737.1647725,None,,P048,FENCOG,2,Post,2022_Jun_07_1226,N-Back (New Version 2021),2021.1.4,120.1832073
,,,,Conditions/Version_1/oneback(3)_v1.xlsx,New rule: Press 'space' when you see 1-back (i.e. the same letter as the one that appeared 1 letter ago.),n,None,,,,,,,,,0,11,11,11,0,4,4,4,,,,,,,,,,,,,,,,,,,,,,,,,,,,,,,,,,,,,,,,,,,,,,,,,,,,,,,,,,,,,,,,,,,,,1.9152,741.0867154,None,None,1,741.0867154,None,,P048,FENCOG,2,Post,2022_Jun_07_1226,N-Back (New Version 2021),2021.1.4,120.1832073
,,,,Conditions/Version_1/oneback(3)_v1.xlsx,New rule: Press 'space' when you see 1-back (i.e. the same letter as the one that appeared 1 letter ago.),z,None,,,,,,,,,0,11,11,11,0,5,5,5,,,,,,,,,,,,,,,,,,,,,,,,,,,,,,,,,,,,,,,,,,,,,,,,,,,,,,,,,,,,,,,,,,,,,1.5804,744.6761608,None,None,1,744.6761608,None,,P048,FENCOG,2,Post,2022_Jun_07_1226,N-Back (New Version 2021),2021.1.4,120.1832073
,,,,Conditions/Version_1/oneback(3)_v1.xlsx,New rule: Press 'space' when you see 1-back (i.e. the same letter as the one that appeared 1 letter ago.),X,None,,,,,,,,,0,11,11,11,0,6,6,6,,,,,,,,,,,,,,,,,,,,,,,,,,,,,,,,,,,,,,,,,,,,,,,,,,,,,,,,,,,,,,,,,,,,,1.9648,748.6461861,None,None,1,748.6461861,None,,P048,FENCOG,2,Post,2022_Jun_07_1226,N-Back (New Version 2021),2021.1.4,120.1832073
,,,,Conditions/Version_1/oneback(3)_v1.xlsx,New rule: Press 'space' when you see 1-back (i.e. the same letter as the one that appeared 1 letter ago.),r,None,,,,,,,,,0,11,11,11,0,7,7,7,,,,,,,,,,,,,,,,,,,,,,,,,,,,,,,,,,,,,,,,,,,,,,,,,,,,,,,,,,,,,,,,,,,,,1.1774,751.8324315,None,None,1,751.8324315,None,,P048,FENCOG,2,Post,2022_Jun_07_1226,N-Back (New Version 2021),2021.1.4,120.1832073
,,,,Conditions/Version_1/oneback(3)_v1.xlsx,New rule: Press 'space' when you see 1-back (i.e. the same letter as the one that appeared 1 letter ago.),r,space,,,,,,,,,0,11,11,11,0,8,8,8,,,,,,,,,,,,,,,,,,,,,,,,,,,,,,,,,,,,,,,,,,,,,,,,,,,,,,,,,,,,,,,,,,,,,1.5122,755.3482538,None,space,1,755.3482538,None,1.1720981,P048,FENCOG,2,Post,2022_Jun_07_1226,N-Back (New Version 2021),2021.1.4,120.1832073
,,,,Conditions/Version_1/oneback(3)_v1.xlsx,New rule: Press 'space' when you see 1-back (i.e. the same letter as the one that appeared 1 letter ago.),P,None,,,,,,,,,0,11,11,11,0,9,9,9,,,,,,,,,,,,,,,,,,,,,,,,,,,,,,,,,,,,,,,,,,,,,,,,,,,,,,,,,,,,,,,,,,,,,1.5618,758.9191039,None,None,1,758.9191039,None,,P048,FENCOG,2,Post,2022_Jun_07_1226,N-Back (New Version 2021),2021.1.4,120.1832073
,,,,Conditions/Version_1/oneback(3)_v1.xlsx,New rule: Press 'space' when you see 1-back (i.e. the same letter as the one that appeared 1 letter ago.),,,,,,,,,,,0,11,11,11,,,,,,,,,,,,,,,,,,,,,,,,,,,,,,,,,,,,,,,,,,,,,,,,,,,,,,,,,,,,,,,,,,,,,,,,,,,,,,,,,P048,FENCOG,2,Post,2022_Jun_07_1226,N-Back (New Version 2021),2021.1.4,120.1832073
,,,,Conditions/Version_1/twoback(4)_v1.xlsx,New rule: Press 'space' when you see 2-back (i.e. the same letter as the one that appeared 2 letters ago.),r,None,,,,,,,,,0,12,12,12,0,0,0,0,,,,,,,,,,,,,,,,,,,,,,,,,,,,,,,,,,,,,,,,,,,,,,,,,,,,,,,,,,,760.9384422,None,763.9236709,None,space,1.3006485,763.9236709,None,760.9384422,None,1.5308,766.787261,None,None,1,766.787261,None,,P048,FENCOG,2,Post,2022_Jun_07_1226,N-Back (New Version 2021),2021.1.4,120.1832073
,,,,Conditions/Version_1/twoback(4)_v1.xlsx,New rule: Press 'space' when you see 2-back (i.e. the same letter as the one that appeared 2 letters ago.),T,None,,,,,,,,,0,12,12,12,0,1,1,1,,,,,,,,,,,,,,,,,,,,,,,,,,,,,,,,,,,,,,,,,,,,,,,,,,,,,,,,,,,,,,,,,,,,,1.227,770.0295967,None,None,1,770.0295967,None,,P048,FENCOG,2,Post,2022_Jun_07_1226,N-Back (New Version 2021),2021.1.4,120.1832073
,,,,Conditions/Version_1/twoback(4)_v1.xlsx,New rule: Press 'space' when you see 2-back (i.e. the same letter as the one that appeared 2 letters ago.),o,None,,,,,,,,,0,12,12,12,0,2,2,2,,,,,,,,,,,,,,,,,,,,,,,,,,,,,,,,,,,,,,,,,,,,,,,,,,,,,,,,,,,,,,,,,,,,,1.413,773.4510534,None,None,1,773.4510534,None,,P048,FENCOG,2,Post,2022_Jun_07_1226,N-Back (New Version 2021),2021.1.4,120.1832073
,,,,Conditions/Version_1/twoback(4)_v1.xlsx,New rule: Press 'space' when you see 2-back (i.e. the same letter as the one that appeared 2 letters ago.),p,None,,,,,,,,,0,12,12,12,0,3,3,3,,,,,,,,,,,,,,,,,,,,,,,,,,,,,,,,,,,,,,,,,,,,,,,,,,,,,,,,,,,,,,,,,,,,,1.3882,776.8422196,None,None,1,776.8422196,None,,P048,FENCOG,2,Post,2022_Jun_07_1226,N-Back (New Version 2021),2021.1.4,120.1832073
,,,,Conditions/Version_1/twoback(4)_v1.xlsx,New rule: Press 'space' when you see 2-back (i.e. the same letter as the one that appeared 2 letters ago.),p,None,,,,,,,,,0,12,12,12,0,4,4,4,,,,,,,,,,,,,,,,,,,,,,,,,,,,,,,,,,,,,,,,,,,,,,,,,,,,,,,,,,,,,,,,,,,,,1.7478,780.5914778,None,None,1,780.5914778,None,,P048,FENCOG,2,Post,2022_Jun_07_1226,N-Back (New Version 2021),2021.1.4,120.1832073
,,,,Conditions/Version_1/twoback(4)_v1.xlsx,New rule: Press 'space' when you see 2-back (i.e. the same letter as the one that appeared 2 letters ago.),y,None,,,,,,,,,0,12,12,12,0,5,5,5,,,,,,,,,,,,,,,,,,,,,,,,,,,,,,,,,,,,,,,,,,,,,,,,,,,,,,,,,,,,,,,,,,,,,1.4626,784.064607,None,None,1,784.064607,None,,P048,FENCOG,2,Post,2022_Jun_07_1226,N-Back (New Version 2021),2021.1.4,120.1832073
,,,,Conditions/Version_1/twoback(4)_v1.xlsx,New rule: Press 'space' when you see 2-back (i.e. the same letter as the one that appeared 2 letters ago.),P,space,,,,,,,,,0,12,12,12,0,6,6,6,,,,,,,,,,,,,,,,,,,,,,,,,,,,,,,,,,,,,,,,,,,,,,,,,,,,,,,,,,,,,,,,,,,,,1.8842,787.9551923,None,None,0,787.9551923,None,,P048,FENCOG,2,Post,2022_Jun_07_1226,N-Back (New Version 2021),2021.1.4,120.1832073
,,,,Conditions/Version_1/twoback(4)_v1.xlsx,New rule: Press 'space' when you see 2-back (i.e. the same letter as the one that appeared 2 letters ago.),y,None,,,,,,,,,0,12,12,12,0,7,7,7,,,,,,,,,,,,,,,,,,,,,,,,,,,,,,,,,,,,,,,,,,,,,,,,,,,,,,,,,,,,,,,,,,,,,1.0596,791.0220438,None,space,0,791.0220438,None,1.0900709,P048,FENCOG,2,Post,2022_Jun_07_1226,N-Back (New Version 2021),2021.1.4,120.1832073
,,,,Conditions/Version_1/twoback(4)_v1.xlsx,New rule: Press 'space' when you see 2-back (i.e. the same letter as the one that appeared 2 letters ago.),y,space,,,,,,,,,0,12,12,12,0,8,8,8,,,,,,,,,,,,,,,,,,,,,,,,,,,,,,,,,,,,,,,,,,,,,,,,,,,,,,,,,,,,,,,,,,,,,1.3634,794.3949136,None,None,0,794.3949136,None,,P048,FENCOG,2,Post,2022_Jun_07_1226,N-Back (New Version 2021),2021.1.4,120.1832073
,,,,Conditions/Version_1/twoback(4)_v1.xlsx,New rule: Press 'space' when you see 2-back (i.e. the same letter as the one that appeared 2 letters ago.),,,,,,,,,,,0,12,12,12,,,,,,,,,,,,,,,,,,,,,,,,,,,,,,,,,,,,,,,,,,,,,,,,,,,,,,,,,,,,,,,,,,,,,,,,,,,,,,,,,P048,FENCOG,2,Post,2022_Jun_07_1226,N-Back (New Version 2021),2021.1.4,120.1832073
,,,,Conditions/Version_1/zeroback(4)_v1.xlsx,New rule: Press 'space' when you see the letter 'x' or 'X'.,o,None,,,,,,,,,0,13,13,13,0,0,0,0,,,,,,,,,,,,,,,,,,,,,,,,,,,,,,,,,,,,,,,,,,,,,,,,,,,,,,,,,,,796.4254087,None,799.4117625,None,space,0.4683484,799.4117625,None,796.4254087,None,1.599,801.5122557,None,None,1,801.5122557,None,,P048,FENCOG,2,Post,2022_Jun_07_1226,N-Back (New Version 2021),2021.1.4,120.1832073
,,,,Conditions/Version_1/zeroback(4)_v1.xlsx,New rule: Press 'space' when you see the letter 'x' or 'X'.,X,space,,,,,,,,,0,13,13,13,0,1,1,1,,,,,,,,,,,,,,,,,,,,,,,,,,,,,,,,,,,,,,,,,,,,,,,,,,,,,,,,,,,,,,,,,,,,,1.816,805.3464182,None,space,1,805.3464182,None,0.8621103,P048,FENCOG,2,Post,2022_Jun_07_1226,N-Back (New Version 2021),2021.1.4,120.1832073
,,,,Conditions/Version_1/zeroback(4)_v1.xlsx,New rule: Press 'space' when you see the letter 'x' or 'X'.,p,None,,,,,,,,,0,13,13,13,0,2,2,2,,,,,,,,,,,,,,,,,,,,,,,,,,,,,,,,,,,,,,,,,,,,,,,,,,,,,,,,,,,,,,,,,,,,,1.6238,808.9782023,None,None,1,808.9782023,None,,P048,FENCOG,2,Post,2022_Jun_07_1226,N-Back (New Version 2021),2021.1.4,120.1832073
,,,,Conditions/Version_1/zeroback(4)_v1.xlsx,New rule: Press 'space' when you see the letter 'x' or 'X'.,m,None,,,,,,,,,0,13,13,13,0,3,3,3,,,,,,,,,,,,,,,,,,,,,,,,,,,,,,,,,,,,,,,,,,,,,,,,,,,,,,,,,,,,,,,,,,,,,1.754,812.7477818,None,None,1,812.7477818,None,,P048,FENCOG,2,Post,2022_Jun_07_1226,N-Back (New Version 2021),2021.1.4,120.1832073
,,,,Conditions/Version_1/zeroback(4)_v1.xlsx,New rule: Press 'space' when you see the letter 'x' or 'X'.,n,None,,,,,,,,,0,13,13,13,0,4,4,4,,,,,,,,,,,,,,,,,,,,,,,,,,,,,,,,,,,,,,,,,,,,,,,,,,,,,,,,,,,,,,,,,,,,,1.32,816.0732501,None,None,1,816.0732501,None,,P048,FENCOG,2,Post,2022_Jun_07_1226,N-Back (New Version 2021),2021.1.4,120.1832073
,,,,Conditions/Version_1/zeroback(4)_v1.xlsx,New rule: Press 'space' when you see the letter 'x' or 'X'.,m,None,,,,,,,,,0,13,13,13,0,5,5,5,,,,,,,,,,,,,,,,,,,,,,,,,,,,,,,,,,,,,,,,,,,,,,,,,,,,,,,,,,,,,,,,,,,,,1.8532,819.9387037,None,None,1,819.9387037,None,,P048,FENCOG,2,Post,2022_Jun_07_1226,N-Back (New Version 2021),2021.1.4,120.1832073
,,,,Conditions/Version_1/zeroback(4)_v1.xlsx,New rule: Press 'space' when you see the letter 'x' or 'X'.,C,None,,,,,,,,,0,13,13,13,0,6,6,6,,,,,,,,,,,,,,,,,,,,,,,,,,,,,,,,,,,,,,,,,,,,,,,,,,,,,,,,,,,,,,,,,,,,,1.2642,823.2113846,None,None,1,823.2113846,None,,P048,FENCOG,2,Post,2022_Jun_07_1226,N-Back (New Version 2021),2021.1.4,120.1832073
,,,,Conditions/Version_1/zeroback(4)_v1.xlsx,New rule: Press 'space' when you see the letter 'x' or 'X'.,m,None,,,,,,,,,0,13,13,13,0,7,7,7,,,,,,,,,,,,,,,,,,,,,,,,,,,,,,,,,,,,,,,,,,,,,,,,,,,,,,,,,,,,,,,,,,,,,1.4316,826.6436188,None,None,1,826.6436188,None,,P048,FENCOG,2,Post,2022_Jun_07_1226,N-Back (New Version 2021),2021.1.4,120.1832073
,,,,Conditions/Version_1/zeroback(4)_v1.xlsx,New rule: Press 'space' when you see the letter 'x' or 'X'.,p,None,,,,,,,,,0,13,13,13,0,8,8,8,,,,,,,,,,,,,,,,,,,,,,,,,,,,,,,,,,,,,,,,,,,,,,,,,,,,,,,,,,,,,,,,,,,,,1.847,830.4932729,None,None,1,830.4932729,None,,P048,FENCOG,2,Post,2022_Jun_07_1226,N-Back (New Version 2021),2021.1.4,120.1832073
,,,,Conditions/Version_1/zeroback(4)_v1.xlsx,New rule: Press 'space' when you see the letter 'x' or 'X'.,X,space,,,,,,,,,0,13,13,13,0,9,9,9,,,,,,,,,,,,,,,,,,,,,,,,,,,,,,,,,,,,,,,,,,,,,,,,,,,,,,,,,,,,,,,,,,,,,1.8346,834.3414132,None,space,1,834.3414132,None,1.5070249,P048,FENCOG,2,Post,2022_Jun_07_1226,N-Back (New Version 2021),2021.1.4,120.1832073
,,,,Conditions/Version_1/zeroback(4)_v1.xlsx,New rule: Press 'space' when you see the letter 'x' or 'X'.,,,,,,,,,,,0,13,13,13,,,,,,,,,,,,,,,,,,,,,,,,,,,,,,,,,,,,,,,,,,,,,,,,,,,,,,,,,,,,,,,,,,,,,,,,,,,,,,,,,P048,FENCOG,2,Post,2022_Jun_07_1226,N-Back (New Version 2021),2021.1.4,120.1832073
,,,,Conditions/Version_1/oneback(4)_v1.xlsx,New rule: Press 'space' when you see 1-back (i.e. the same letter as the one that appeared 1 letter ago.),w,None,,,,,,,,,0,14,14,14,0,0,0,0,,,,,,,,,,,,,,,,,,,,,,,,,,,,,,,,,,,,,,,,,,,,,,,,,,,,,,,,,,,836.365854,None,839.3508853,None,space,0.5851998,839.3508853,None,836.365854,None,1.8222,841.7893126,None,None,1,841.7893126,None,,P048,FENCOG,2,Post,2022_Jun_07_1226,N-Back (New Version 2021),2021.1.4,120.1832073
,,,,Conditions/Version_1/oneback(4)_v1.xlsx,New rule: Press 'space' when you see 1-back (i.e. the same letter as the one that appeared 1 letter ago.),q,None,,,,,,,,,0,14,14,14,0,1,1,1,,,,,,,,,,,,,,,,,,,,,,,,,,,,,,,,,,,,,,,,,,,,,,,,,,,,,,,,,,,,,,,,,,,,,1.01,844.8050301,None,None,1,844.8050301,None,,P048,FENCOG,2,Post,2022_Jun_07_1226,N-Back (New Version 2021),2021.1.4,120.1832073
,,,,Conditions/Version_1/oneback(4)_v1.xlsx,New rule: Press 'space' when you see 1-back (i.e. the same letter as the one that appeared 1 letter ago.),i,None,,,,,,,,,0,14,14,14,0,2,2,2,,,,,,,,,,,,,,,,,,,,,,,,,,,,,,,,,,,,,,,,,,,,,,,,,,,,,,,,,,,,,,,,,,,,,1.1092,847.9205996,None,None,1,847.9205996,None,,P048,FENCOG,2,Post,2022_Jun_07_1226,N-Back (New Version 2021),2021.1.4,120.1832073
,,,,Conditions/Version_1/oneback(4)_v1.xlsx,New rule: Press 'space' when you see 1-back (i.e. the same letter as the one that appeared 1 letter ago.),t,None,,,,,,,,,0,14,14,14,0,3,3,3,,,,,,,,,,,,,,,,,,,,,,,,,,,,,,,,,,,,,,,,,,,,,,,,,,,,,,,,,,,,,,,,,,,,,1.134,851.0541753,None,None,1,851.0541753,None,,P048,FENCOG,2,Post,2022_Jun_07_1226,N-Back (New Version 2021),2021.1.4,120.1832073
,,,,Conditions/Version_1/oneback(4)_v1.xlsx,New rule: Press 'space' when you see 1-back (i.e. the same letter as the one that appeared 1 letter ago.),v,None,,,,,,,,,0,14,14,14,0,4,4,4,,,,,,,,,,,,,,,,,,,,,,,,,,,,,,,,,,,,,,,,,,,,,,,,,,,,,,,,,,,,,,,,,,,,,1.2642,854.3316202,None,None,1,854.3316202,None,,P048,FENCOG,2,Post,2022_Jun_07_1226,N-Back (New Version 2021),2021.1.4,120.1832073
,,,,Conditions/Version_1/oneback(4)_v1.xlsx,New rule: Press 'space' when you see 1-back (i.e. the same letter as the one that appeared 1 letter ago.),V,space,,,,,,,,,0,14,14,14,0,5,5,5,,,,,,,,,,,,,,,,,,,,,,,,,,,,,,,,,,,,,,,,,,,,,,,,,,,,,,,,,,,,,,,,,,,,,1.6982,858.036377,None,space,1,858.036377,None,1.4919419,P048,FENCOG,2,Post,2022_Jun_07_1226,N-Back (New Version 2021),2021.1.4,120.1832073
,,,,Conditions/Version_1/oneback(4)_v1.xlsx,New rule: Press 'space' when you see 1-back (i.e. the same letter as the one that appeared 1 letter ago.),v,space,,,,,,,,,0,14,14,14,0,6,6,6,,,,,,,,,,,,,,,,,,,,,,,,,,,,,,,,,,,,,,,,,,,,,,,,,,,,,,,,,,,,,,,,,,,,,1.6796,861.7223671,None,space,1,861.7223671,None,1.1740079,P048,FENCOG,2,Post,2022_Jun_07_1226,N-Back (New Version 2021),2021.1.4,120.1832073
,,,,Conditions/Version_1/oneback(4)_v1.xlsx,New rule: Press 'space' when you see 1-back (i.e. the same letter as the one that appeared 1 letter ago.),p,None,,,,,,,,,0,14,14,14,0,7,7,7,,,,,,,,,,,,,,,,,,,,,,,,,,,,,,,,,,,,,,,,,,,,,,,,,,,,,,,,,,,,,,,,,,,,,1.785,865.5155489,None,None,1,865.5155489,None,,P048,FENCOG,2,Post,2022_Jun_07_1226,N-Back (New Version 2021),2021.1.4,120.1832073
,,,,Conditions/Version_1/oneback(4)_v1.xlsx,New rule: Press 'space' when you see 1-back (i.e. the same letter as the one that appeared 1 letter ago.),w,None,,,,,,,,,0,14,14,14,0,8,8,8,,,,,,,,,,,,,,,,,,,,,,,,,,,,,,,,,,,,,,,,,,,,,,,,,,,,,,,,,,,,,,,,,,,,,1.4812,869.0006447,None,None,1,869.0006447,None,,P048,FENCOG,2,Post,2022_Jun_07_1226,N-Back (New Version 2021),2021.1.4,120.1832073
,,,,Conditions/Version_1/oneback(4)_v1.xlsx,New rule: Press 'space' when you see 1-back (i.e. the same letter as the one that appeared 1 letter ago.),W,space,,,,,,,,,0,14,14,14,0,9,9,9,,,,,,,,,,,,,,,,,,,,,,,,,,,,,,,,,,,,,,,,,,,,,,,,,,,,,,,,,,,,,,,,,,,,,1.8408,872.8467562,None,space,1,872.8467562,None,1.1377613,P048,FENCOG,2,Post,2022_Jun_07_1226,N-Back (New Version 2021),2021.1.4,120.1832073
,,,,Conditions/Version_1/oneback(4)_v1.xlsx,New rule: Press 'space' when you see 1-back (i.e. the same letter as the one that appeared 1 letter ago.),,,,,,,,,,,0,14,14,14,,,,,,,,,,,,,,,,,,,,,,,,,,,,,,,,,,,,,,,,,,,,,,,,,,,,,,,,,,,,,,,,,,,,,,,,,,,,,,,,,P048,FENCOG,2,Post,2022_Jun_07_1226,N-Back (New Version 2021),2021.1.4,120.1832073
,,,,Conditions/Version_1/threeback(4)_v1.xlsx,New rule: Press 'space' when you see 3-back (i.e. the same letter as the one that appeared 3 letters ago.),A,None,,,,,,,,,0,15,15,15,0,0,0,0,,,,,,,,,,,,,,,,,,,,,,,,,,,,,,,,,,,,,,,,,,,,,,,,,,,,,,,,,,,874.8704218,None,877.8560705,None,space,5.5601219,877.8560705,None,874.8704218,None,1.3324,884.7879566,None,None,1,884.7879566,None,,P048,FENCOG,2,Post,2022_Jun_07_1226,N-Back (New Version 2021),2021.1.4,120.1832073
,,,,Conditions/Version_1/threeback(4)_v1.xlsx,New rule: Press 'space' when you see 3-back (i.e. the same letter as the one that appeared 3 letters ago.),n,None,,,,,,,,,0,15,15,15,0,1,1,1,,,,,,,,,,,,,,,,,,,,,,,,,,,,,,,,,,,,,,,,,,,,,,,,,,,,,,,,,,,,,,,,,,,,,1.1898,887.9849729,None,None,1,887.9849729,None,,P048,FENCOG,2,Post,2022_Jun_07_1226,N-Back (New Version 2021),2021.1.4,120.1832073
,,,,Conditions/Version_1/threeback(4)_v1.xlsx,New rule: Press 'space' when you see 3-back (i.e. the same letter as the one that appeared 3 letters ago.),g,None,,,,,,,,,0,15,15,15,0,2,2,2,,,,,,,,,,,,,,,,,,,,,,,,,,,,,,,,,,,,,,,,,,,,,,,,,,,,,,,,,,,,,,,,,,,,,1.444,891.4412862,None,None,1,891.4412862,None,,P048,FENCOG,2,Post,2022_Jun_07_1226,N-Back (New Version 2021),2021.1.4,120.1832073
,,,,Conditions/Version_1/threeback(4)_v1.xlsx,New rule: Press 'space' when you see 3-back (i.e. the same letter as the one that appeared 3 letters ago.),A,space,,,,,,,,,0,15,15,15,0,3,3,3,,,,,,,,,,,,,,,,,,,,,,,,,,,,,,,,,,,,,,,,,,,,,,,,,,,,,,,,,,,,,,,,,,,,,1.9524,895.3985378,None,space,1,895.3985378,None,1.0016647,P048,FENCOG,2,Post,2022_Jun_07_1226,N-Back (New Version 2021),2021.1.4,120.1832073
,,,,Conditions/Version_1/threeback(4)_v1.xlsx,New rule: Press 'space' when you see 3-back (i.e. the same letter as the one that appeared 3 letters ago.),p,None,,,,,,,,,0,15,15,15,0,4,4,4,,,,,,,,,,,,,,,,,,,,,,,,,,,,,,,,,,,,,,,,,,,,,,,,,,,,,,,,,,,,,,,,,,,,,1.1402,898.5392068,None,space,0,898.5392068,None,1.3648801,P048,FENCOG,2,Post,2022_Jun_07_1226,N-Back (New Version 2021),2021.1.4,120.1832073
,,,,Conditions/Version_1/threeback(4)_v1.xlsx,New rule: Press 'space' when you see 3-back (i.e. the same letter as the one that appeared 3 letters ago.),O,None,,,,,,,,,0,15,15,15,0,5,5,5,,,,,,,,,,,,,,,,,,,,,,,,,,,,,,,,,,,,,,,,,,,,,,,,,,,,,,,,,,,,,,,,,,,,,1.041,901.5952419,None,None,1,901.5952419,None,,P048,FENCOG,2,Post,2022_Jun_07_1226,N-Back (New Version 2021),2021.1.4,120.1832073
,,,,Conditions/Version_1/threeback(4)_v1.xlsx,New rule: Press 'space' when you see 3-back (i.e. the same letter as the one that appeared 3 letters ago.),a,space,,,,,,,,,0,15,15,15,0,6,6,6,,,,,,,,,,,,,,,,,,,,,,,,,,,,,,,,,,,,,,,,,,,,,,,,,,,,,,,,,,,,,,,,,,,,,1.3448,904.9455381,None,space,1,904.9455381,None,1.3747757,P048,FENCOG,2,Post,2022_Jun_07_1226,N-Back (New Version 2021),2021.1.4,120.1832073
,,,,Conditions/Version_1/threeback(4)_v1.xlsx,New rule: Press 'space' when you see 3-back (i.e. the same letter as the one that appeared 3 letters ago.),p,space,,,,,,,,,0,15,15,15,0,7,7,7,,,,,,,,,,,,,,,,,,,,,,,,,,,,,,,,,,,,,,,,,,,,,,,,,,,,,,,,,,,,,,,,,,,,,1.4006,908.3530704,None,space,1,908.3530704,None,1.5196994,P048,FENCOG,2,Post,2022_Jun_07_1226,N-Back (New Version 2021),2021.1.4,120.1832073
,,,,Conditions/Version_1/threeback(4)_v1.xlsx,New rule: Press 'space' when you see 3-back (i.e. the same letter as the one that appeared 3 letters ago.),x,None,,,,,,,,,0,15,15,15,0,8,8,8,,,,,,,,,,,,,,,,,,,,,,,,,,,,,,,,,,,,,,,,,,,,,,,,,,,,,,,,,,,,,,,,,,,,,1.0658,911.4191963,None,None,1,911.4191963,None,,P048,FENCOG,2,Post,2022_Jun_07_1226,N-Back (New Version 2021),2021.1.4,120.1832073
,,,,Conditions/Version_1/threeback(4)_v1.xlsx,New rule: Press 'space' when you see 3-back (i.e. the same letter as the one that appeared 3 letters ago.),X,None,,,,,,,,,0,15,15,15,0,9,9,9,,,,,,,,,,,,,,,,,,,,,,,,,,,,,,,,,,,,,,,,,,,,,,,,,,,,,,,,,,,,,,,,,,,,,1.072,914.4940465,None,None,1,914.4940465,None,,P048,FENCOG,2,Post,2022_Jun_07_1226,N-Back (New Version 2021),2021.1.4,120.1832073
,,,,Conditions/Version_1/threeback(4)_v1.xlsx,New rule: Press 'space' when you see 3-back (i.e. the same letter as the one that appeared 3 letters ago.),,,,,,,,,,,0,15,15,15,,,,,,,,,,,,,,,,,,,,,,,,,,,,,,,,,,,,,,,,,,,,,,,,,,,,,,,,,,,,,,,,,,,,,,,,,,,,,,,,,P048,FENCOG,2,Post,2022_Jun_07_1226,N-Back (New Version 2021),2021.1.4,120.1832073
