CondFileP,InstructionsP,LettersDisplayedP,CorrectnessP,CondFile,Instructions,LettersDisplayed,Correctness,practicetrials.thisRepN,practicetrials.thisTrialN,practicetrials.thisN,practicetrials.thisIndex,InnerLoopPractice.thisRepN,InnerLoopPractice.thisTrialN,InnerLoopPractice.thisN,InnerLoopPractice.thisIndex,trials.thisRepN,trials.thisTrialN,trials.thisN,trials.thisIndex,InnerLoop.thisRepN,InnerLoop.thisTrialN,InnerLoop.thisN,InnerLoop.thisIndex,TaskVersionText.started,TaskVersionText.stopped,InstrKey1.keys,InstrKey1.rt,InstrKey1.started,InstrKey1.stopped,text.started,text.stopped,key_resp_4.keys,key_resp_4.rt,key_resp_4.started,key_resp_4.stopped,text_2.started,text_2.stopped,key_resp_3.keys,key_resp_3.rt,key_resp_3.started,key_resp_3.stopped,text_3.started,text_3.stopped,key_resp_2.keys,key_resp_2.rt,key_resp_2.started,key_resp_2.stopped,PractIn1.started,PractIn1.stopped,PractIn2.started,PractIn2.stopped,PractInstructionPass.keys,PractInstructionPass.rt,PractInstructionPass.started,PractInstructionPass.stopped,PractBlock1.started,PractBlock1.stopped,ISIjitterPractice,ISI_Pract_Fixation.started,ISI_Pract_Fixation.stopped,N_backP.started,N_backP.stopped,KeyPractice.keys,KeyPractice.corr,KeyPractice.started,KeyPractice.stopped,text_4.started,text_4.stopped,KeyPractice.rt,TransitionText.started,TransitionText.stopped,key_resp_6.keys,key_resp_6.rt,key_resp_6.started,key_resp_6.stopped,text_5.started,text_5.stopped,key_resp_5.keys,key_resp_5.rt,key_resp_5.started,key_resp_5.stopped,MainInt1.started,MainInt1.stopped,MainInt2.started,MainInt2.stopped,InstructionPass.keys,InstructionPass.rt,InstructionPass.started,InstructionPass.stopped,Blocks1.started,Blocks1.stopped,ISIjitter,N_backD.started,N_backD.stopped,key_resp.keys,key_resp.corr,key_resp.started,key_resp.stopped,key_resp.rt,participant,Study Name,Task Version (required to run),PRE/POST,date,expName,psychopyVersion,frameRate,
,,,,,,,,,,,,,,,,,,,,,,,,28.67772929999046,None,space,116.62869909999426,29.17191889998503,None,,,,,,,,,,,,,,,,,,,,,,,,,,,,,,,,,,,,,,,,,,,,,,,,,,,,,,,,,,,,,,,,,,,,,,,P048,fencog,1,Pre,2022_May_31_1219,N-Back (New Version 2021),2021.1.4,120.01920310694219,
,,,,,,,,,,,,,,,,,,,,,,,,,,,,,,145.83759679994546,None,space,1.8948570999782532,146.32965680002235,None,,,,,,,,,,,,,,,,,,,,,,,,,,,,,,,,,,,,,,,,,,,,,,,,,,,,,,,,,,,,,,,,,P048,fencog,1,Pre,2022_May_31_1219,N-Back (New Version 2021),2021.1.4,120.01920310694219,
,,,,,,,,,,,,,,,,,,,,,,,,,,,,,,,,,,,,148.26559660001658,None,space,3.7014821000630036,148.7631379000377,None,,,,,,,,,,,,,,,,,,,,,,,,,,,,,,,,,,,,,,,,,,,,,,,,,,,,,,,,,,,P048,fencog,1,Pre,2022_May_31_1219,N-Back (New Version 2021),2021.1.4,120.01920310694219,
,,,,,,,,,,,,,,,,,,,,,,,,,,,,,,,,,,,,,,,,,,152.49534619995393,None,space,6.0142642999999225,152.98630899994168,None,,,,,,,,,,,,,,,,,,,,,,,,,,,,,,,,,,,,,,,,,,,,,,,,,,,,,P048,fencog,1,Pre,2022_May_31_1219,N-Back (New Version 2021),2021.1.4,120.01920310694219,
Conditions/Version_1Pr/zeroback(1)_v1.xlsx,Rule: Press 'space' when you see the letter 'x' or 'X'.,Z,None,,,,,0,0,0,0,0,0,0,0,,,,,,,,,,,,,,,,,,,,,,,,,,,,,,,,,160.3962954999879,None,163.384422800038,None,space,3.2001879999879748,163.384422800038,None,160.3962954999879,None,1.99,166.61594960000366,None,168.61703930003569,None,None,1,168.61703930003569,None,170.61532460001763,None,,,,,,,,,,,,,,,,,,,,,,,,,,,,,,,,P048,fencog,1,Pre,2022_May_31_1219,N-Back (New Version 2021),2021.1.4,120.01920310694219,
Conditions/Version_1Pr/zeroback(1)_v1.xlsx,Rule: Press 'space' when you see the letter 'x' or 'X'.,r,None,,,,,0,0,0,0,0,1,1,1,,,,,,,,,,,,,,,,,,,,,,,,,,,,,,,,,,,,,,,,,,,1.415,172.11313980002888,None,173.53083559998777,None,None,1,173.53083559998777,None,175.53693039994687,None,,,,,,,,,,,,,,,,,,,,,,,,,,,,,,,,P048,fencog,1,Pre,2022_May_31_1219,N-Back (New Version 2021),2021.1.4,120.01920310694219,
Conditions/Version_1Pr/zeroback(1)_v1.xlsx,Rule: Press 'space' when you see the letter 'x' or 'X'.,X,space,,,,,0,0,0,0,0,2,2,2,,,,,,,,,,,,,,,,,,,,,,,,,,,,,,,,,,,,,,,,,,,1.19,177.03666209999938,None,178.23659109999426,None,space,1,178.23659109999426,None,178.57146120001562,None,0.3239943999797106,,,,,,,,,,,,,,,,,,,,,,,,,,,,,,,P048,fencog,1,Pre,2022_May_31_1219,N-Back (New Version 2021),2021.1.4,120.01920310694219,
Conditions/Version_1Pr/zeroback(1)_v1.xlsx,Rule: Press 'space' when you see the letter 'x' or 'X'.,p,None,,,,,0,0,0,0,0,3,3,3,,,,,,,,,,,,,,,,,,,,,,,,,,,,,,,,,,,,,,,,,,,1.84,180.07729689998087,None,181.92013630003203,None,None,1,181.92013630003203,None,183.9263322999468,None,,,,,,,,,,,,,,,,,,,,,,,,,,,,,,,,P048,fencog,1,Pre,2022_May_31_1219,N-Back (New Version 2021),2021.1.4,120.01920310694219,
Conditions/Version_1Pr/zeroback(1)_v1.xlsx,Rule: Press 'space' when you see the letter 'x' or 'X'.,w,None,,,,,0,0,0,0,0,4,4,4,,,,,,,,,,,,,,,,,,,,,,,,,,,,,,,,,,,,,,,,,,,1.065,185.42590819997713,None,186.49378489993978,None,None,1,186.49378489993978,None,188.4999668999808,None,,,,,,,,,,,,,,,,,,,,,,,,,,,,,,,,P048,fencog,1,Pre,2022_May_31_1219,N-Back (New Version 2021),2021.1.4,120.01920310694219,
Conditions/Version_1Pr/zeroback(1)_v1.xlsx,Rule: Press 'space' when you see the letter 'x' or 'X'.,e,None,,,,,0,0,0,0,0,5,5,5,,,,,,,,,,,,,,,,,,,,,,,,,,,,,,,,,,,,,,,,,,,1.515,189.99947719997726,None,191.5163524999516,None,None,1,191.5163524999516,None,193.5235777000198,None,,,,,,,,,,,,,,,,,,,,,,,,,,,,,,,,P048,fencog,1,Pre,2022_May_31_1219,N-Back (New Version 2021),2021.1.4,120.01920310694219,
Conditions/Version_1Pr/zeroback(1)_v1.xlsx,Rule: Press 'space' when you see the letter 'x' or 'X'.,X,space,,,,,0,0,0,0,0,6,6,6,,,,,,,,,,,,,,,,,,,,,,,,,,,,,,,,,,,,,,,,,,,1.865,195.0226985999616,None,196.8898675000528,None,space,1,196.8898675000528,None,197.40615489997435,None,0.5026196999242529,,,,,,,,,,,,,,,,,,,,,,,,,,,,,,,P048,fencog,1,Pre,2022_May_31_1219,N-Back (New Version 2021),2021.1.4,120.01920310694219,
Conditions/Version_1Pr/zeroback(1)_v1.xlsx,Rule: Press 'space' when you see the letter 'x' or 'X'.,x,space,,,,,0,0,0,0,0,7,7,7,,,,,,,,,,,,,,,,,,,,,,,,,,,,,,,,,,,,,,,,,,,1.915,198.90502239996567,None,200.82289229996968,None,space,1,200.82289229996968,None,201.28002379997633,None,0.4415761000709608,,,,,,,,,,,,,,,,,,,,,,,,,,,,,,,P048,fencog,1,Pre,2022_May_31_1219,N-Back (New Version 2021),2021.1.4,120.01920310694219,
Conditions/Version_1Pr/zeroback(1)_v1.xlsx,Rule: Press 'space' when you see the letter 'x' or 'X'.,p,None,,,,,0,0,0,0,0,8,8,8,,,,,,,,,,,,,,,,,,,,,,,,,,,,,,,,,,,,,,,,,,,1.94,202.77910689997952,None,204.72109649993945,None,space,0,204.72109649993945,None,205.1663279000204,None,0.4313708000117913,,,,,,,,,,,,,,,,,,,,,,,,,,,,,,,P048,fencog,1,Pre,2022_May_31_1219,N-Back (New Version 2021),2021.1.4,120.01920310694219,
Conditions/Version_1Pr/zeroback(1)_v1.xlsx,Rule: Press 'space' when you see the letter 'x' or 'X'.,r,None,,,,,0,0,0,0,0,9,9,9,,,,,,,,,,,,,,,,,,,,,,,,,,,,,,,,,,,,,,,,,,,1.04,206.66961470001843,None,207.71207929996308,None,None,1,207.71207929996308,None,209.71849590004422,None,,,,,,,,,,,,,,,,,,,,,,,,,,,,,,,,P048,fencog,1,Pre,2022_May_31_1219,N-Back (New Version 2021),2021.1.4,120.01920310694219,
Conditions/Version_1Pr/zeroback(1)_v1.xlsx,Rule: Press 'space' when you see the letter 'x' or 'X'.,,,,,,,0,0,0,0,,,,,,,,,,,,,,,,,,,,,,,,,,,,,,,,,,,,,,,,,,,,,,,,,,,,,,,,,,,,,,,,,,,,,,,,,,,,,,,,,,,,,,,,,P048,fencog,1,Pre,2022_May_31_1219,N-Back (New Version 2021),2021.1.4,120.01920310694219,
Conditions/Version_1Pr/oneback(1)_v1.xlsx,New rule: Press 'space' when you see 1-back (i.e. the same letter as the one that appeared 1 letter ago.),a,None,,,,,0,1,1,1,0,0,0,0,,,,,,,,,,,,,,,,,,,,,,,,,,,,,,,,,211.24326799996197,None,214.22772319999058,None,space,5.332884000032209,214.22772319999058,None,211.24326799996197,None,2.015,219.588317799964,None,221.60913280001841,None,None,1,221.60913280001841,None,223.61462929996196,None,,,,,,,,,,,,,,,,,,,,,,,,,,,,,,,,P048,fencog,1,Pre,2022_May_31_1219,N-Back (New Version 2021),2021.1.4,120.01920310694219,
Conditions/Version_1Pr/oneback(1)_v1.xlsx,New rule: Press 'space' when you see 1-back (i.e. the same letter as the one that appeared 1 letter ago.),x,None,,,,,0,1,1,1,0,1,1,1,,,,,,,,,,,,,,,,,,,,,,,,,,,,,,,,,,,,,,,,,,,1.14,225.11416110000573,None,226.25718800001778,None,None,1,226.25718800001778,None,228.26327440002933,None,,,,,,,,,,,,,,,,,,,,,,,,,,,,,,,,P048,fencog,1,Pre,2022_May_31_1219,N-Back (New Version 2021),2021.1.4,120.01920310694219,
Conditions/Version_1Pr/oneback(1)_v1.xlsx,New rule: Press 'space' when you see 1-back (i.e. the same letter as the one that appeared 1 letter ago.),g,None,,,,,0,1,1,1,0,2,2,2,,,,,,,,,,,,,,,,,,,,,,,,,,,,,,,,,,,,,,,,,,,1.89,229.76278830005322,None,231.6555086999433,None,None,1,231.6555086999433,None,233.66159100004006,None,,,,,,,,,,,,,,,,,,,,,,,,,,,,,,,,P048,fencog,1,Pre,2022_May_31_1219,N-Back (New Version 2021),2021.1.4,120.01920310694219,
Conditions/Version_1Pr/oneback(1)_v1.xlsx,New rule: Press 'space' when you see 1-back (i.e. the same letter as the one that appeared 1 letter ago.),G,space,,,,,0,1,1,1,0,3,3,3,,,,,,,,,,,,,,,,,,,,,,,,,,,,,,,,,,,,,,,,,,,1.64,235.16120870003942,None,236.80510580004193,None,space,1,236.80510580004193,None,237.20367069996428,None,0.3873361999867484,,,,,,,,,,,,,,,,,,,,,,,,,,,,,,,P048,fencog,1,Pre,2022_May_31_1219,N-Back (New Version 2021),2021.1.4,120.01920310694219,
Conditions/Version_1Pr/oneback(1)_v1.xlsx,New rule: Press 'space' when you see 1-back (i.e. the same letter as the one that appeared 1 letter ago.),u,None,,,,,0,1,1,1,0,4,4,4,,,,,,,,,,,,,,,,,,,,,,,,,,,,,,,,,,,,,,,,,,,1.515,238.71014360000845,None,240.2280105999671,None,None,1,240.2280105999671,None,242.2338612000458,None,,,,,,,,,,,,,,,,,,,,,,,,,,,,,,,,P048,fencog,1,Pre,2022_May_31_1219,N-Back (New Version 2021),2021.1.4,120.01920310694219,
Conditions/Version_1Pr/oneback(1)_v1.xlsx,New rule: Press 'space' when you see 1-back (i.e. the same letter as the one that appeared 1 letter ago.),y,None,,,,,0,1,1,1,0,5,5,5,,,,,,,,,,,,,,,,,,,,,,,,,,,,,,,,,,,,,,,,,,,1.265,243.73371850000694,None,244.99967060005292,None,None,1,244.99967060005292,None,246.99918659997638,None,,,,,,,,,,,,,,,,,,,,,,,,,,,,,,,,P048,fencog,1,Pre,2022_May_31_1219,N-Back (New Version 2021),2021.1.4,120.01920310694219,
Conditions/Version_1Pr/oneback(1)_v1.xlsx,New rule: Press 'space' when you see 1-back (i.e. the same letter as the one that appeared 1 letter ago.),y,space,,,,,0,1,1,1,0,6,6,6,,,,,,,,,,,,,,,,,,,,,,,,,,,,,,,,,,,,,,,,,,,1.24,248.49896300002,None,249.74023190001026,None,space,1,249.74023190001026,None,250.38330520002637,None,0.6282824999652803,,,,,,,,,,,,,,,,,,,,,,,,,,,,,,,P048,fencog,1,Pre,2022_May_31_1219,N-Back (New Version 2021),2021.1.4,120.01920310694219,
Conditions/Version_1Pr/oneback(1)_v1.xlsx,New rule: Press 'space' when you see 1-back (i.e. the same letter as the one that appeared 1 letter ago.),k,None,,,,,0,1,1,1,0,7,7,7,,,,,,,,,,,,,,,,,,,,,,,,,,,,,,,,,,,,,,,,,,,1.54,251.88961940002628,None,253.43239149998408,None,None,1,253.43239149998408,None,255.43858229997568,None,,,,,,,,,,,,,,,,,,,,,,,,,,,,,,,,P048,fencog,1,Pre,2022_May_31_1219,N-Back (New Version 2021),2021.1.4,120.01920310694219,
Conditions/Version_1Pr/oneback(1)_v1.xlsx,New rule: Press 'space' when you see 1-back (i.e. the same letter as the one that appeared 1 letter ago.),c,None,,,,,0,1,1,1,0,8,8,8,,,,,,,,,,,,,,,,,,,,,,,,,,,,,,,,,,,,,,,,,,,1.815,256.93808620003983,None,258.75576740002725,None,None,1,258.75576740002725,None,260.7619631999405,None,,,,,,,,,,,,,,,,,,,,,,,,,,,,,,,,P048,fencog,1,Pre,2022_May_31_1219,N-Back (New Version 2021),2021.1.4,120.01920310694219,
Conditions/Version_1Pr/oneback(1)_v1.xlsx,New rule: Press 'space' when you see 1-back (i.e. the same letter as the one that appeared 1 letter ago.),r,None,,,,,0,1,1,1,0,9,9,9,,,,,,,,,,,,,,,,,,,,,,,,,,,,,,,,,,,,,,,,,,,1.44,262.2615451000165,None,263.70366200001445,None,None,1,263.70366200001445,None,265.7101590000093,None,,,,,,,,,,,,,,,,,,,,,,,,,,,,,,,,P048,fencog,1,Pre,2022_May_31_1219,N-Back (New Version 2021),2021.1.4,120.01920310694219,
Conditions/Version_1Pr/oneback(1)_v1.xlsx,New rule: Press 'space' when you see 1-back (i.e. the same letter as the one that appeared 1 letter ago.),,,,,,,0,1,1,1,,,,,,,,,,,,,,,,,,,,,,,,,,,,,,,,,,,,,,,,,,,,,,,,,,,,,,,,,,,,,,,,,,,,,,,,,,,,,,,,,,,,,,,,,P048,fencog,1,Pre,2022_May_31_1219,N-Back (New Version 2021),2021.1.4,120.01920310694219,
Conditions/Version_1Pr/twoback(1)_v1.xlsx,New rule: Press 'space' when you see 2-back (i.e. the same letter as the one that appeared 2 letters ago.),E,None,,,,,0,2,2,2,0,0,0,0,,,,,,,,,,,,,,,,,,,,,,,,,,,,,,,,,267.23310920002405,None,270.21905459999107,None,space,0.9173346000025049,270.21905459999107,None,267.23310920002405,None,1.615,271.16820930002723,None,272.78511209995486,None,None,1,272.78511209995486,None,274.784236800042,None,,,,,,,,,,,,,,,,,,,,,,,,,,,,,,,,P048,fencog,1,Pre,2022_May_31_1219,N-Back (New Version 2021),2021.1.4,120.01920310694219,
Conditions/Version_1Pr/twoback(1)_v1.xlsx,New rule: Press 'space' when you see 2-back (i.e. the same letter as the one that appeared 2 letters ago.),p,None,,,,,0,2,2,2,0,1,1,1,,,,,,,,,,,,,,,,,,,,,,,,,,,,,,,,,,,,,,,,,,,1.14,276.2906550000189,None,277.4327914000023,None,None,1,277.4327914000023,None,279.4398199999705,None,,,,,,,,,,,,,,,,,,,,,,,,,,,,,,,,P048,fencog,1,Pre,2022_May_31_1219,N-Back (New Version 2021),2021.1.4,120.01920310694219,
Conditions/Version_1Pr/twoback(1)_v1.xlsx,New rule: Press 'space' when you see 2-back (i.e. the same letter as the one that appeared 2 letters ago.),e,space,,,,,0,2,2,2,0,2,2,2,,,,,,,,,,,,,,,,,,,,,,,,,,,,,,,,,,,,,,,,,,,1.44,280.9393347000005,None,282.38040589995217,None,space,1,282.38040589995217,None,282.83090960001573,None,0.43602269992697984,,,,,,,,,,,,,,,,,,,,,,,,,,,,,,,P048,fencog,1,Pre,2022_May_31_1219,N-Back (New Version 2021),2021.1.4,120.01920310694219,
Conditions/Version_1Pr/twoback(1)_v1.xlsx,New rule: Press 'space' when you see 2-back (i.e. the same letter as the one that appeared 2 letters ago.),s,None,,,,,0,2,2,2,0,3,3,3,,,,,,,,,,,,,,,,,,,,,,,,,,,,,,,,,,,,,,,,,,,1.265,284.33002730004955,None,285.60131709999405,None,None,1,285.60131709999405,None,287.6041592999827,None,,,,,,,,,,,,,,,,,,,,,,,,,,,,,,,,P048,fencog,1,Pre,2022_May_31_1219,N-Back (New Version 2021),2021.1.4,120.01920310694219,
Conditions/Version_1Pr/twoback(1)_v1.xlsx,New rule: Press 'space' when you see 2-back (i.e. the same letter as the one that appeared 2 letters ago.),S,None,,,,,0,2,2,2,0,4,4,4,,,,,,,,,,,,,,,,,,,,,,,,,,,,,,,,,,,,,,,,,,,1.515,289.10362129996065,None,290.62522419996094,None,None,1,290.62522419996094,None,292.62760140001774,None,,,,,,,,,,,,,,,,,,,,,,,,,,,,,,,,P048,fencog,1,Pre,2022_May_31_1219,N-Back (New Version 2021),2021.1.4,120.01920310694219,
Conditions/Version_1Pr/twoback(1)_v1.xlsx,New rule: Press 'space' when you see 2-back (i.e. the same letter as the one that appeared 2 letters ago.),s,space,,,,,0,2,2,2,0,5,5,5,,,,,,,,,,,,,,,,,,,,,,,,,,,,,,,,,,,,,,,,,,,1.415,294.1271568000084,None,295.54319140000734,None,space,1,295.54319140000734,None,295.9294137000106,None,0.3692213000031188,,,,,,,,,,,,,,,,,,,,,,,,,,,,,,,P048,fencog,1,Pre,2022_May_31_1219,N-Back (New Version 2021),2021.1.4,120.01920310694219,
Conditions/Version_1Pr/twoback(1)_v1.xlsx,New rule: Press 'space' when you see 2-back (i.e. the same letter as the one that appeared 2 letters ago.),P,None,,,,,0,2,2,2,0,6,6,6,,,,,,,,,,,,,,,,,,,,,,,,,,,,,,,,,,,,,,,,,,,1.84,297.434454799979,None,299.27732550003566,None,None,1,299.27732550003566,None,301.2831572999712,None,,,,,,,,,,,,,,,,,,,,,,,,,,,,,,,,P048,fencog,1,Pre,2022_May_31_1219,N-Back (New Version 2021),2021.1.4,120.01920310694219,
Conditions/Version_1Pr/twoback(1)_v1.xlsx,New rule: Press 'space' when you see 2-back (i.e. the same letter as the one that appeared 2 letters ago.),C,None,,,,,0,2,2,2,0,7,7,7,,,,,,,,,,,,,,,,,,,,,,,,,,,,,,,,,,,,,,,,,,,1.09,302.7829252999509,None,303.8756544999778,None,None,1,303.8756544999778,None,305.8820119999582,None,,,,,,,,,,,,,,,,,,,,,,,,,,,,,,,,P048,fencog,1,Pre,2022_May_31_1219,N-Back (New Version 2021),2021.1.4,120.01920310694219,
Conditions/Version_1Pr/twoback(1)_v1.xlsx,New rule: Press 'space' when you see 2-back (i.e. the same letter as the one that appeared 2 letters ago.),x,None,,,,,0,2,2,2,0,8,8,8,,,,,,,,,,,,,,,,,,,,,,,,,,,,,,,,,,,,,,,,,,,1.715,307.3815408999799,None,309.0982119999826,None,None,1,309.0982119999826,None,311.09705480001867,None,,,,,,,,,,,,,,,,,,,,,,,,,,,,,,,,P048,fencog,1,Pre,2022_May_31_1219,N-Back (New Version 2021),2021.1.4,120.01920310694219,
Conditions/Version_1Pr/twoback(1)_v1.xlsx,New rule: Press 'space' when you see 2-back (i.e. the same letter as the one that appeared 2 letters ago.),Z,None,,,,,0,2,2,2,0,9,9,9,,,,,,,,,,,,,,,,,,,,,,,,,,,,,,,,,,,,,,,,,,,1.815,312.59662540000863,None,314.41489240003284,None,None,1,314.41489240003284,None,316.4205528999446,None,,,,,,,,,,,,,,,,,,,,,,,,,,,,,,,,P048,fencog,1,Pre,2022_May_31_1219,N-Back (New Version 2021),2021.1.4,120.01920310694219,
Conditions/Version_1Pr/twoback(1)_v1.xlsx,New rule: Press 'space' when you see 2-back (i.e. the same letter as the one that appeared 2 letters ago.),,,,,,,0,2,2,2,,,,,,,,,,,,,,,,,,,,,,,,,,,,,,,,,,,,,,,,,,,,,,,,,,,,,,,,,,,,,,,,,,,,,,,,,,,,,,,,,,,,,,,,,P048,fencog,1,Pre,2022_May_31_1219,N-Back (New Version 2021),2021.1.4,120.01920310694219,
Conditions/Version_1Pr/threeback(1)_v1.xlsx,New rule: Press 'space' when you see 3-back (i.e. the same letter as the one that appeared 3 letters ago.),r,None,,,,,0,3,3,3,0,0,0,0,,,,,,,,,,,,,,,,,,,,,,,,,,,,,,,,,317.94212899997365,None,320.92914280004334,None,space,0.6071513999486342,320.92914280004334,None,317.94212899997365,None,1.69,321.56691139994655,None,323.2611465000082,None,None,1,323.2611465000082,None,325.260911499965,None,,,,,,,,,,,,,,,,,,,,,,,,,,,,,,,,P048,fencog,1,Pre,2022_May_31_1219,N-Back (New Version 2021),2021.1.4,120.01920310694219,
Conditions/Version_1Pr/threeback(1)_v1.xlsx,New rule: Press 'space' when you see 3-back (i.e. the same letter as the one that appeared 3 letters ago.),a,None,,,,,0,3,3,3,0,1,1,1,,,,,,,,,,,,,,,,,,,,,,,,,,,,,,,,,,,,,,,,,,,1.74,326.7671864000149,None,328.51076129998546,None,None,1,328.51076129998546,None,330.51820030005183,None,,,,,,,,,,,,,,,,,,,,,,,,,,,,,,,,P048,fencog,1,Pre,2022_May_31_1219,N-Back (New Version 2021),2021.1.4,120.01920310694219,
Conditions/Version_1Pr/threeback(1)_v1.xlsx,New rule: Press 'space' when you see 3-back (i.e. the same letter as the one that appeared 3 letters ago.),t,None,,,,,0,3,3,3,0,2,2,2,,,,,,,,,,,,,,,,,,,,,,,,,,,,,,,,,,,,,,,,,,,1.915,332.01593720004894,None,333.93287150003016,None,None,1,333.93287150003016,None,335.9397858999437,None,,,,,,,,,,,,,,,,,,,,,,,,,,,,,,,,P048,fencog,1,Pre,2022_May_31_1219,N-Back (New Version 2021),2021.1.4,120.01920310694219,
Conditions/Version_1Pr/threeback(1)_v1.xlsx,New rule: Press 'space' when you see 3-back (i.e. the same letter as the one that appeared 3 letters ago.),r,space,,,,,0,3,3,3,0,3,3,3,,,,,,,,,,,,,,,,,,,,,,,,,,,,,,,,,,,,,,,,,,,1.215,337.4393446999602,None,338.6553875999525,None,space,1,338.6553875999525,None,339.08185029996093,None,0.41698670003097504,,,,,,,,,,,,,,,,,,,,,,,,,,,,,,,P048,fencog,1,Pre,2022_May_31_1219,N-Back (New Version 2021),2021.1.4,120.01920310694219,
Conditions/Version_1Pr/threeback(1)_v1.xlsx,New rule: Press 'space' when you see 3-back (i.e. the same letter as the one that appeared 3 letters ago.),a,None,,,,,0,3,3,3,0,4,4,4,,,,,,,,,,,,,,,,,,,,,,,,,,,,,,,,,,,,,,,,,,,1.04,340.58837510005105,None,341.63038580003195,None,space,0,341.63038580003195,None,342.24087099998724,None,0.5940476999385282,,,,,,,,,,,,,,,,,,,,,,,,,,,,,,,P048,fencog,1,Pre,2022_May_31_1219,N-Back (New Version 2021),2021.1.4,120.01920310694219,
Conditions/Version_1Pr/threeback(1)_v1.xlsx,New rule: Press 'space' when you see 3-back (i.e. the same letter as the one that appeared 3 letters ago.),Y,None,,,,,0,3,3,3,0,5,5,5,,,,,,,,,,,,,,,,,,,,,,,,,,,,,,,,,,,,,,,,,,,1.265,343.74576610000804,None,345.01416739996057,None,None,1,345.01416739996057,None,347.019594399957,None,,,,,,,,,,,,,,,,,,,,,,,,,,,,,,,,P048,fencog,1,Pre,2022_May_31_1219,N-Back (New Version 2021),2021.1.4,120.01920310694219,
Conditions/Version_1Pr/threeback(1)_v1.xlsx,New rule: Press 'space' when you see 3-back (i.e. the same letter as the one that appeared 3 letters ago.),q,None,,,,,0,3,3,3,0,6,6,6,,,,,,,,,,,,,,,,,,,,,,,,,,,,,,,,,,,,,,,,,,,1.64,348.51939759997185,None,350.16224530001637,None,None,1,350.16224530001637,None,352.1682954999851,None,,,,,,,,,,,,,,,,,,,,,,,,,,,,,,,,P048,fencog,1,Pre,2022_May_31_1219,N-Back (New Version 2021),2021.1.4,120.01920310694219,
Conditions/Version_1Pr/threeback(1)_v1.xlsx,New rule: Press 'space' when you see 3-back (i.e. the same letter as the one that appeared 3 letters ago.),A,space,,,,,0,3,3,3,0,7,7,7,,,,,,,,,,,,,,,,,,,,,,,,,,,,,,,,,,,,,,,,,,,1.54,353.6679064000491,None,355.2108987000538,None,space,1,355.2108987000538,None,355.9435484999558,None,0.7174838999053463,,,,,,,,,,,,,,,,,,,,,,,,,,,,,,,P048,fencog,1,Pre,2022_May_31_1219,N-Back (New Version 2021),2021.1.4,120.01920310694219,
Conditions/Version_1Pr/threeback(1)_v1.xlsx,New rule: Press 'space' when you see 3-back (i.e. the same letter as the one that appeared 3 letters ago.),y,None,,,,,0,3,3,3,0,8,8,8,,,,,,,,,,,,,,,,,,,,,,,,,,,,,,,,,,,,,,,,,,,1.465,357.4500694000162,None,358.91984700004105,None,space,0,358.91984700004105,None,359.479051399976,None,0.5444425999885425,,,,,,,,,,,,,,,,,,,,,,,,,,,,,,,P048,fencog,1,Pre,2022_May_31_1219,N-Back (New Version 2021),2021.1.4,120.01920310694219,
Conditions/Version_1Pr/threeback(1)_v1.xlsx,New rule: Press 'space' when you see 3-back (i.e. the same letter as the one that appeared 3 letters ago.),r,None,,,,,0,3,3,3,0,9,9,9,,,,,,,,,,,,,,,,,,,,,,,,,,,,,,,,,,,,,,,,,,,1.29,360.9821731999982,None,362.2740686000325,None,None,1,362.2740686000325,None,364.28115129994694,None,,,,,,,,,,,,,,,,,,,,,,,,,,,,,,,,P048,fencog,1,Pre,2022_May_31_1219,N-Back (New Version 2021),2021.1.4,120.01920310694219,
Conditions/Version_1Pr/threeback(1)_v1.xlsx,New rule: Press 'space' when you see 3-back (i.e. the same letter as the one that appeared 3 letters ago.),,,,,,,0,3,3,3,,,,,,,,,,,,,,,,,,,,,,,,,,,,,,,,,,,,,,,,,,,,,,,,,,,,,,,,,,,,,,,,,,,,,,,,,,,,,,,,,,,,,,,,,P048,fencog,1,Pre,2022_May_31_1219,N-Back (New Version 2021),2021.1.4,120.01920310694219,
,,,,,,,,,,,,,,,,,,,,,,,,,,,,,,,,,,,,,,,,,,,,,,,,,,,,,,,,,,,,,,,,,,,,,,365.78718969994225,None,space,8.575749100069515,366.2806962999748,None,,,,,,,,,,,,,,,,,,,,,,,,,P048,fencog,1,Pre,2022_May_31_1219,N-Back (New Version 2021),2021.1.4,120.01920310694219,
,,,,,,,,,,,,,,,,,,,,,,,,,,,,,,,,,,,,,,,,,,,,,,,,,,,,,,,,,,,,,,,,,,,,,,,,,,,,374.8841378999641,None,space,2.1260512000881135,375.3784432000248,None,,,,,,,,,,,,,,,,,,,P048,fencog,1,Pre,2022_May_31_1219,N-Back (New Version 2021),2021.1.4,120.01920310694219,
,,,,Conditions/Version_1/zeroback(1)_v1.xlsx,Rule: Press 'space' when you see the letter 'x' or 'X'.,b,None,,,,,,,,,0,0,0,0,0,0,0,0,,,,,,,,,,,,,,,,,,,,,,,,,,,,,,,,,,,,,,,,,,,,,,,,,,,,,,,,,,,377.62603939999826,None,380.61184519995004,None,space,0.16438309999648482,380.61184519995004,None,377.62603939999826,None,1.3696,382.18553689995315,None,None,1,382.18553689995315,None,,P048,fencog,1,Pre,2022_May_31_1219,N-Back (New Version 2021),2021.1.4,120.01920310694219,
,,,,Conditions/Version_1/zeroback(1)_v1.xlsx,Rule: Press 'space' when you see the letter 'x' or 'X'.,T,None,,,,,,,,,0,0,0,0,0,1,1,1,,,,,,,,,,,,,,,,,,,,,,,,,,,,,,,,,,,,,,,,,,,,,,,,,,,,,,,,,,,,,,,,,,,,,1.0844,385.28510770003777,None,None,1,385.28510770003777,None,,P048,fencog,1,Pre,2022_May_31_1219,N-Back (New Version 2021),2021.1.4,120.01920310694219,
,,,,Conditions/Version_1/zeroback(1)_v1.xlsx,Rule: Press 'space' when you see the letter 'x' or 'X'.,L,None,,,,,,,,,0,0,0,0,0,2,2,2,,,,,,,,,,,,,,,,,,,,,,,,,,,,,,,,,,,,,,,,,,,,,,,,,,,,,,,,,,,,,,,,,,,,,1.5432,388.84190150001086,None,None,1,388.84190150001086,None,,P048,fencog,1,Pre,2022_May_31_1219,N-Back (New Version 2021),2021.1.4,120.01920310694219,
,,,,Conditions/Version_1/zeroback(1)_v1.xlsx,Rule: Press 'space' when you see the letter 'x' or 'X'.,x,space,,,,,,,,,0,0,0,0,0,3,3,3,,,,,,,,,,,,,,,,,,,,,,,,,,,,,,,,,,,,,,,,,,,,,,,,,,,,,,,,,,,,,,,,,,,,,1.7416,392.5937392000342,None,space,1,392.5937392000342,None,1.2866060000378639,P048,fencog,1,Pre,2022_May_31_1219,N-Back (New Version 2021),2021.1.4,120.01920310694219,
,,,,Conditions/Version_1/zeroback(1)_v1.xlsx,Rule: Press 'space' when you see the letter 'x' or 'X'.,o,None,,,,,,,,,0,0,0,0,0,4,4,4,,,,,,,,,,,,,,,,,,,,,,,,,,,,,,,,,,,,,,,,,,,,,,,,,,,,,,,,,,,,,,,,,,,,,1.5866,396.1917344999965,None,None,1,396.1917344999965,None,,P048,fencog,1,Pre,2022_May_31_1219,N-Back (New Version 2021),2021.1.4,120.01920310694219,
,,,,Conditions/Version_1/zeroback(1)_v1.xlsx,Rule: Press 'space' when you see the letter 'x' or 'X'.,P,None,,,,,,,,,0,0,0,0,0,5,5,5,,,,,,,,,,,,,,,,,,,,,,,,,,,,,,,,,,,,,,,,,,,,,,,,,,,,,,,,,,,,,,,,,,,,,1.258,399.4548144999426,None,None,1,399.4548144999426,None,,P048,fencog,1,Pre,2022_May_31_1219,N-Back (New Version 2021),2021.1.4,120.01920310694219,
,,,,Conditions/Version_1/zeroback(1)_v1.xlsx,Rule: Press 'space' when you see the letter 'x' or 'X'.,X,space,,,,,,,,,0,0,0,0,0,6,6,6,,,,,,,,,,,,,,,,,,,,,,,,,,,,,,,,,,,,,,,,,,,,,,,,,,,,,,,,,,,,,,,,,,,,,1.754,403.21969289996196,None,space,1,403.21969289996196,None,1.0527870000805706,P048,fencog,1,Pre,2022_May_31_1219,N-Back (New Version 2021),2021.1.4,120.01920310694219,
,,,,Conditions/Version_1/zeroback(1)_v1.xlsx,Rule: Press 'space' when you see the letter 'x' or 'X'.,n,None,,,,,,,,,0,0,0,0,0,7,7,7,,,,,,,,,,,,,,,,,,,,,,,,,,,,,,,,,,,,,,,,,,,,,,,,,,,,,,,,,,,,,,,,,,,,,1.6052,406.8300045999931,None,None,1,406.8300045999931,None,,P048,fencog,1,Pre,2022_May_31_1219,N-Back (New Version 2021),2021.1.4,120.01920310694219,
,,,,Conditions/Version_1/zeroback(1)_v1.xlsx,Rule: Press 'space' when you see the letter 'x' or 'X'.,M,None,,,,,,,,,0,0,0,0,0,8,8,8,,,,,,,,,,,,,,,,,,,,,,,,,,,,,,,,,,,,,,,,,,,,,,,,,,,,,,,,,,,,,,,,,,,,,1.4812,410.3207107000053,None,None,1,410.3207107000053,None,,P048,fencog,1,Pre,2022_May_31_1219,N-Back (New Version 2021),2021.1.4,120.01920310694219,
,,,,Conditions/Version_1/zeroback(1)_v1.xlsx,Rule: Press 'space' when you see the letter 'x' or 'X'.,a,None,,,,,,,,,0,0,0,0,0,9,9,9,,,,,,,,,,,,,,,,,,,,,,,,,,,,,,,,,,,,,,,,,,,,,,,,,,,,,,,,,,,,,,,,,,,,,1.4688,413.80090919998474,None,None,1,413.80090919998474,None,,P048,fencog,1,Pre,2022_May_31_1219,N-Back (New Version 2021),2021.1.4,120.01920310694219,
,,,,Conditions/Version_1/zeroback(1)_v1.xlsx,Rule: Press 'space' when you see the letter 'x' or 'X'.,,,,,,,,,,,0,0,0,0,,,,,,,,,,,,,,,,,,,,,,,,,,,,,,,,,,,,,,,,,,,,,,,,,,,,,,,,,,,,,,,,,,,,,,,,,,,,,,,,,P048,fencog,1,Pre,2022_May_31_1219,N-Back (New Version 2021),2021.1.4,120.01920310694219,
,,,,Conditions/Version_1/oneback(1)_v1.xlsx,New rule: Press 'space' when you see 1-back (i.e. the same letter as the one that appeared 1 letter ago.),b,None,,,,,,,,,0,1,1,1,0,0,0,0,,,,,,,,,,,,,,,,,,,,,,,,,,,,,,,,,,,,,,,,,,,,,,,,,,,,,,,,,,,415.83011810004245,None,418.81671679997817,None,space,2.375655999989249,418.81671679997817,None,415.83011810004245,None,1.3882,422.6154812000459,None,None,1,422.6154812000459,None,,P048,fencog,1,Pre,2022_May_31_1219,N-Back (New Version 2021),2021.1.4,120.01920310694219,
,,,,Conditions/Version_1/oneback(1)_v1.xlsx,New rule: Press 'space' when you see 1-back (i.e. the same letter as the one that appeared 1 letter ago.),p,None,,,,,,,,,0,1,1,1,0,1,1,1,,,,,,,,,,,,,,,,,,,,,,,,,,,,,,,,,,,,,,,,,,,,,,,,,,,,,,,,,,,,,,,,,,,,,1.8098,426.4375874999678,None,None,1,426.4375874999678,None,,P048,fencog,1,Pre,2022_May_31_1219,N-Back (New Version 2021),2021.1.4,120.01920310694219,
,,,,Conditions/Version_1/oneback(1)_v1.xlsx,New rule: Press 'space' when you see 1-back (i.e. the same letter as the one that appeared 1 letter ago.),M,None,,,,,,,,,0,1,1,1,0,2,2,2,,,,,,,,,,,,,,,,,,,,,,,,,,,,,,,,,,,,,,,,,,,,,,,,,,,,,,,,,,,,,,,,,,,,,1.4626,429.90447579999454,None,None,1,429.90447579999454,None,,P048,fencog,1,Pre,2022_May_31_1219,N-Back (New Version 2021),2021.1.4,120.01920310694219,
,,,,Conditions/Version_1/oneback(1)_v1.xlsx,New rule: Press 'space' when you see 1-back (i.e. the same letter as the one that appeared 1 letter ago.),M,space,,,,,,,,,0,1,1,1,0,3,3,3,,,,,,,,,,,,,,,,,,,,,,,,,,,,,,,,,,,,,,,,,,,,,,,,,,,,,,,,,,,,,,,,,,,,,1.4006,433.3192821999546,None,space,1,433.3192821999546,None,1.441051400033757,P048,fencog,1,Pre,2022_May_31_1219,N-Back (New Version 2021),2021.1.4,120.01920310694219,
,,,,Conditions/Version_1/oneback(1)_v1.xlsx,New rule: Press 'space' when you see 1-back (i.e. the same letter as the one that appeared 1 letter ago.),n,None,,,,,,,,,0,1,1,1,0,4,4,4,,,,,,,,,,,,,,,,,,,,,,,,,,,,,,,,,,,,,,,,,,,,,,,,,,,,,,,,,,,,,,,,,,,,,1.258,436.5764696999686,None,None,1,436.5764696999686,None,,P048,fencog,1,Pre,2022_May_31_1219,N-Back (New Version 2021),2021.1.4,120.01920310694219,
,,,,Conditions/Version_1/oneback(1)_v1.xlsx,New rule: Press 'space' when you see 1-back (i.e. the same letter as the one that appeared 1 letter ago.),g,None,,,,,,,,,0,1,1,1,0,5,5,5,,,,,,,,,,,,,,,,,,,,,,,,,,,,,,,,,,,,,,,,,,,,,,,,,,,,,,,,,,,,,,,,,,,,,1.0472,439.6256137000164,None,None,1,439.6256137000164,None,,P048,fencog,1,Pre,2022_May_31_1219,N-Back (New Version 2021),2021.1.4,120.01920310694219,
,,,,Conditions/Version_1/oneback(1)_v1.xlsx,New rule: Press 'space' when you see 1-back (i.e. the same letter as the one that appeared 1 letter ago.),P,None,,,,,,,,,0,1,1,1,0,6,6,6,,,,,,,,,,,,,,,,,,,,,,,,,,,,,,,,,,,,,,,,,,,,,,,,,,,,,,,,,,,,,,,,,,,,,1.9338,443.56013310002163,None,None,1,443.56013310002163,None,,P048,fencog,1,Pre,2022_May_31_1219,N-Back (New Version 2021),2021.1.4,120.01920310694219,
,,,,Conditions/Version_1/oneback(1)_v1.xlsx,New rule: Press 'space' when you see 1-back (i.e. the same letter as the one that appeared 1 letter ago.),o,None,,,,,,,,,0,1,1,1,0,7,7,7,,,,,,,,,,,,,,,,,,,,,,,,,,,,,,,,,,,,,,,,,,,,,,,,,,,,,,,,,,,,,,,,,,,,,1.6486,447.2160865999758,None,None,1,447.2160865999758,None,,P048,fencog,1,Pre,2022_May_31_1219,N-Back (New Version 2021),2021.1.4,120.01920310694219,
,,,,Conditions/Version_1/oneback(1)_v1.xlsx,New rule: Press 'space' when you see 1-back (i.e. the same letter as the one that appeared 1 letter ago.),f,None,,,,,,,,,0,1,1,1,0,8,8,8,,,,,,,,,,,,,,,,,,,,,,,,,,,,,,,,,,,,,,,,,,,,,,,,,,,,,,,,,,,,,,,,,,,,,1.3634,450.5935651999898,None,None,1,450.5935651999898,None,,P048,fencog,1,Pre,2022_May_31_1219,N-Back (New Version 2021),2021.1.4,120.01920310694219,
,,,,Conditions/Version_1/oneback(1)_v1.xlsx,New rule: Press 'space' when you see 1-back (i.e. the same letter as the one that appeared 1 letter ago.),F,space,,,,,,,,,0,1,1,1,0,9,9,9,,,,,,,,,,,,,,,,,,,,,,,,,,,,,,,,,,,,,,,,,,,,,,,,,,,,,,,,,,,,,,,,,,,,,1.3572,453.95622799999546,None,space,1,453.95622799999546,None,1.2841070999857038,P048,fencog,1,Pre,2022_May_31_1219,N-Back (New Version 2021),2021.1.4,120.01920310694219,
,,,,Conditions/Version_1/oneback(1)_v1.xlsx,New rule: Press 'space' when you see 1-back (i.e. the same letter as the one that appeared 1 letter ago.),,,,,,,,,,,0,1,1,1,,,,,,,,,,,,,,,,,,,,,,,,,,,,,,,,,,,,,,,,,,,,,,,,,,,,,,,,,,,,,,,,,,,,,,,,,,,,,,,,,P048,fencog,1,Pre,2022_May_31_1219,N-Back (New Version 2021),2021.1.4,120.01920310694219,
,,,,Conditions/Version_1/twoback(1)_v1.xlsx,New rule: Press 'space' when you see 2-back (i.e. the same letter as the one that appeared 2 letters ago.),b,None,,,,,,,,,0,2,2,2,0,0,0,0,,,,,,,,,,,,,,,,,,,,,,,,,,,,,,,,,,,,,,,,,,,,,,,,,,,,,,,,,,,455.98930320004,None,458.97241809999105,None,space,4.9479863999877125,458.97241809999105,None,455.98930320004,None,1.2084,465.16807190002874,None,None,1,465.16807190002874,None,,P048,fencog,1,Pre,2022_May_31_1219,N-Back (New Version 2021),2021.1.4,120.01920310694219,
,,,,Conditions/Version_1/twoback(1)_v1.xlsx,New rule: Press 'space' when you see 2-back (i.e. the same letter as the one that appeared 2 letters ago.),h,None,,,,,,,,,0,2,2,2,0,1,1,1,,,,,,,,,,,,,,,,,,,,,,,,,,,,,,,,,,,,,,,,,,,,,,,,,,,,,,,,,,,,,,,,,,,,,1.6734,468.84239959996194,None,None,1,468.84239959996194,None,,P048,fencog,1,Pre,2022_May_31_1219,N-Back (New Version 2021),2021.1.4,120.01920310694219,
,,,,Conditions/Version_1/twoback(1)_v1.xlsx,New rule: Press 'space' when you see 2-back (i.e. the same letter as the one that appeared 2 letters ago.),j,None,,,,,,,,,0,2,2,2,0,2,2,2,,,,,,,,,,,,,,,,,,,,,,,,,,,,,,,,,,,,,,,,,,,,,,,,,,,,,,,,,,,,,,,,,,,,,1.9276,472.77949490002356,None,None,1,472.77949490002356,None,,P048,fencog,1,Pre,2022_May_31_1219,N-Back (New Version 2021),2021.1.4,120.01920310694219,
,,,,Conditions/Version_1/twoback(1)_v1.xlsx,New rule: Press 'space' when you see 2-back (i.e. the same letter as the one that appeared 2 letters ago.),H,space,,,,,,,,,0,2,2,2,0,3,3,3,,,,,,,,,,,,,,,,,,,,,,,,,,,,,,,,,,,,,,,,,,,,,,,,,,,,,,,,,,,,,,,,,,,,,1.94,476.7247968999436,None,space,1,476.7247968999436,None,1.4593608001014218,P048,fencog,1,Pre,2022_May_31_1219,N-Back (New Version 2021),2021.1.4,120.01920310694219,
,,,,Conditions/Version_1/twoback(1)_v1.xlsx,New rule: Press 'space' when you see 2-back (i.e. the same letter as the one that appeared 2 letters ago.),p,None,,,,,,,,,0,2,2,2,0,4,4,4,,,,,,,,,,,,,,,,,,,,,,,,,,,,,,,,,,,,,,,,,,,,,,,,,,,,,,,,,,,,,,,,,,,,,1.7044,480.4403422999894,None,None,1,480.4403422999894,None,,P048,fencog,1,Pre,2022_May_31_1219,N-Back (New Version 2021),2021.1.4,120.01920310694219,
,,,,Conditions/Version_1/twoback(1)_v1.xlsx,New rule: Press 'space' when you see 2-back (i.e. the same letter as the one that appeared 2 letters ago.),p,None,,,,,,,,,0,2,2,2,0,5,5,5,,,,,,,,,,,,,,,,,,,,,,,,,,,,,,,,,,,,,,,,,,,,,,,,,,,,,,,,,,,,,,,,,,,,,1.2456,483.69612009997945,None,None,1,483.69612009997945,None,,P048,fencog,1,Pre,2022_May_31_1219,N-Back (New Version 2021),2021.1.4,120.01920310694219,
,,,,Conditions/Version_1/twoback(1)_v1.xlsx,New rule: Press 'space' when you see 2-back (i.e. the same letter as the one that appeared 2 letters ago.),w,None,,,,,,,,,0,2,2,2,0,6,6,6,,,,,,,,,,,,,,,,,,,,,,,,,,,,,,,,,,,,,,,,,,,,,,,,,,,,,,,,,,,,,,,,,,,,,1.3386,487.03643990005367,None,None,1,487.03643990005367,None,,P048,fencog,1,Pre,2022_May_31_1219,N-Back (New Version 2021),2021.1.4,120.01920310694219,
,,,,Conditions/Version_1/twoback(1)_v1.xlsx,New rule: Press 'space' when you see 2-back (i.e. the same letter as the one that appeared 2 letters ago.),R,None,,,,,,,,,0,2,2,2,0,7,7,7,,,,,,,,,,,,,,,,,,,,,,,,,,,,,,,,,,,,,,,,,,,,,,,,,,,,,,,,,,,,,,,,,,,,,1.0534,490.0960248999763,None,None,1,490.0960248999763,None,,P048,fencog,1,Pre,2022_May_31_1219,N-Back (New Version 2021),2021.1.4,120.01920310694219,
,,,,Conditions/Version_1/twoback(1)_v1.xlsx,New rule: Press 'space' when you see 2-back (i.e. the same letter as the one that appeared 2 letters ago.),a,None,,,,,,,,,0,2,2,2,0,8,8,8,,,,,,,,,,,,,,,,,,,,,,,,,,,,,,,,,,,,,,,,,,,,,,,,,,,,,,,,,,,,,,,,,,,,,1.9028,494.0114416000433,None,None,1,494.0114416000433,None,,P048,fencog,1,Pre,2022_May_31_1219,N-Back (New Version 2021),2021.1.4,120.01920310694219,
,,,,Conditions/Version_1/twoback(1)_v1.xlsx,New rule: Press 'space' when you see 2-back (i.e. the same letter as the one that appeared 2 letters ago.),r,space,,,,,,,,,0,2,2,2,0,9,9,9,,,,,,,,,,,,,,,,,,,,,,,,,,,,,,,,,,,,,,,,,,,,,,,,,,,,,,,,,,,,,,,,,,,,,1.1464,497.16929069999605,None,space,1,497.16929069999605,None,1.695077299955301,P048,fencog,1,Pre,2022_May_31_1219,N-Back (New Version 2021),2021.1.4,120.01920310694219,
,,,,Conditions/Version_1/twoback(1)_v1.xlsx,New rule: Press 'space' when you see 2-back (i.e. the same letter as the one that appeared 2 letters ago.),,,,,,,,,,,0,2,2,2,,,,,,,,,,,,,,,,,,,,,,,,,,,,,,,,,,,,,,,,,,,,,,,,,,,,,,,,,,,,,,,,,,,,,,,,,,,,,,,,,P048,fencog,1,Pre,2022_May_31_1219,N-Back (New Version 2021),2021.1.4,120.01920310694219,
,,,,Conditions/Version_1/threeback(1)_v1.xlsx,New rule: Press 'space' when you see 3-back (i.e. the same letter as the one that appeared 3 letters ago.),r,None,,,,,,,,,0,3,3,3,0,0,0,0,,,,,,,,,,,,,,,,,,,,,,,,,,,,,,,,,,,,,,,,,,,,,,,,,,,,,,,,,,,499.197599099949,None,502.1839413000271,None,space,0.7763741000089794,502.1839413000271,None,499.197599099949,None,1.2952,504.29000639996957,None,None,1,504.29000639996957,None,,P048,fencog,1,Pre,2022_May_31_1219,N-Back (New Version 2021),2021.1.4,120.01920310694219,
,,,,Conditions/Version_1/threeback(1)_v1.xlsx,New rule: Press 'space' when you see 3-back (i.e. the same letter as the one that appeared 3 letters ago.),o,None,,,,,,,,,0,3,3,3,0,1,1,1,,,,,,,,,,,,,,,,,,,,,,,,,,,,,,,,,,,,,,,,,,,,,,,,,,,,,,,,,,,,,,,,,,,,,1.5618,507.85630300000776,None,None,1,507.85630300000776,None,,P048,fencog,1,Pre,2022_May_31_1219,N-Back (New Version 2021),2021.1.4,120.01920310694219,
,,,,Conditions/Version_1/threeback(1)_v1.xlsx,New rule: Press 'space' when you see 3-back (i.e. the same letter as the one that appeared 3 letters ago.),P,None,,,,,,,,,0,3,3,3,0,2,2,2,,,,,,,,,,,,,,,,,,,,,,,,,,,,,,,,,,,,,,,,,,,,,,,,,,,,,,,,,,,,,,,,,,,,,1.1216,510.9887022000039,None,None,1,510.9887022000039,None,,P048,fencog,1,Pre,2022_May_31_1219,N-Back (New Version 2021),2021.1.4,120.01920310694219,
,,,,Conditions/Version_1/threeback(1)_v1.xlsx,New rule: Press 'space' when you see 3-back (i.e. the same letter as the one that appeared 3 letters ago.),R,space,,,,,,,,,0,3,3,3,0,3,3,3,,,,,,,,,,,,,,,,,,,,,,,,,,,,,,,,,,,,,,,,,,,,,,,,,,,,,,,,,,,,,,,,,,,,,1.9834,514.9784123999998,None,space,1,514.9784123999998,None,1.4779380999971181,P048,fencog,1,Pre,2022_May_31_1219,N-Back (New Version 2021),2021.1.4,120.01920310694219,
,,,,Conditions/Version_1/threeback(1)_v1.xlsx,New rule: Press 'space' when you see 3-back (i.e. the same letter as the one that appeared 3 letters ago.),p,None,,,,,,,,,0,3,3,3,0,4,4,4,,,,,,,,,,,,,,,,,,,,,,,,,,,,,,,,,,,,,,,,,,,,,,,,,,,,,,,,,,,,,,,,,,,,,1.8842,518.8699465000536,None,None,1,518.8699465000536,None,,P048,fencog,1,Pre,2022_May_31_1219,N-Back (New Version 2021),2021.1.4,120.01920310694219,
,,,,Conditions/Version_1/threeback(1)_v1.xlsx,New rule: Press 'space' when you see 3-back (i.e. the same letter as the one that appeared 3 letters ago.),E,None,,,,,,,,,0,3,3,3,0,5,5,5,,,,,,,,,,,,,,,,,,,,,,,,,,,,,,,,,,,,,,,,,,,,,,,,,,,,,,,,,,,,,,,,,,,,,1.847,522.7261489999946,None,None,1,522.7261489999946,None,,P048,fencog,1,Pre,2022_May_31_1219,N-Back (New Version 2021),2021.1.4,120.01920310694219,
,,,,Conditions/Version_1/threeback(1)_v1.xlsx,New rule: Press 'space' when you see 3-back (i.e. the same letter as the one that appeared 3 letters ago.),e,None,,,,,,,,,0,3,3,3,0,6,6,6,,,,,,,,,,,,,,,,,,,,,,,,,,,,,,,,,,,,,,,,,,,,,,,,,,,,,,,,,,,,,,,,,,,,,1.9214,526.6510582000483,None,None,1,526.6510582000483,None,,P048,fencog,1,Pre,2022_May_31_1219,N-Back (New Version 2021),2021.1.4,120.01920310694219,
,,,,Conditions/Version_1/threeback(1)_v1.xlsx,New rule: Press 'space' when you see 3-back (i.e. the same letter as the one that appeared 3 letters ago.),m,None,,,,,,,,,0,3,3,3,0,7,7,7,,,,,,,,,,,,,,,,,,,,,,,,,,,,,,,,,,,,,,,,,,,,,,,,,,,,,,,,,,,,,,,,,,,,,1.8904,530.55393309996,None,None,1,530.55393309996,None,,P048,fencog,1,Pre,2022_May_31_1219,N-Back (New Version 2021),2021.1.4,120.01920310694219,
,,,,Conditions/Version_1/threeback(1)_v1.xlsx,New rule: Press 'space' when you see 3-back (i.e. the same letter as the one that appeared 3 letters ago.),n,None,,,,,,,,,0,3,3,3,0,8,8,8,,,,,,,,,,,,,,,,,,,,,,,,,,,,,,,,,,,,,,,,,,,,,,,,,,,,,,,,,,,,,,,,,,,,,1.3262,533.8897178999614,None,None,1,533.8897178999614,None,,P048,fencog,1,Pre,2022_May_31_1219,N-Back (New Version 2021),2021.1.4,120.01920310694219,
,,,,Conditions/Version_1/threeback(1)_v1.xlsx,New rule: Press 'space' when you see 3-back (i.e. the same letter as the one that appeared 3 letters ago.),e,space,,,,,,,,,0,3,3,3,0,9,9,9,,,,,,,,,,,,,,,,,,,,,,,,,,,,,,,,,,,,,,,,,,,,,,,,,,,,,,,,,,,,,,,,,,,,,1.7292,537.6216543000191,None,None,0,537.6216543000191,None,,P048,fencog,1,Pre,2022_May_31_1219,N-Back (New Version 2021),2021.1.4,120.01920310694219,
,,,,Conditions/Version_1/threeback(1)_v1.xlsx,New rule: Press 'space' when you see 3-back (i.e. the same letter as the one that appeared 3 letters ago.),,,,,,,,,,,0,3,3,3,,,,,,,,,,,,,,,,,,,,,,,,,,,,,,,,,,,,,,,,,,,,,,,,,,,,,,,,,,,,,,,,,,,,,,,,,,,,,,,,,P048,fencog,1,Pre,2022_May_31_1219,N-Back (New Version 2021),2021.1.4,120.01920310694219,
,,,,Conditions/Version_1/oneback(2)_v1.xlsx,New rule: Press 'space' when you see 1-back (i.e. the same letter as the one that appeared 1 letter ago.),q,None,,,,,,,,,0,4,4,4,0,0,0,0,,,,,,,,,,,,,,,,,,,,,,,,,,,,,,,,,,,,,,,,,,,,,,,,,,,,,,,,,,,539.6437867999775,None,542.6308542999905,None,space,0.361294100061059,542.6308542999905,None,539.6437867999775,None,1.537,544.5695833000354,None,None,1,544.5695833000354,None,,P048,fencog,1,Pre,2022_May_31_1219,N-Back (New Version 2021),2021.1.4,120.01920310694219,
,,,,Conditions/Version_1/oneback(2)_v1.xlsx,New rule: Press 'space' when you see 1-back (i.e. the same letter as the one that appeared 1 letter ago.),Q,space,,,,,,,,,0,4,4,4,0,1,1,1,,,,,,,,,,,,,,,,,,,,,,,,,,,,,,,,,,,,,,,,,,,,,,,,,,,,,,,,,,,,,,,,,,,,,1.2952,547.8689937000163,None,space,1,547.8689937000163,None,1.7633614999940619,P048,fencog,1,Pre,2022_May_31_1219,N-Back (New Version 2021),2021.1.4,120.01920310694219,
,,,,Conditions/Version_1/oneback(2)_v1.xlsx,New rule: Press 'space' when you see 1-back (i.e. the same letter as the one that appeared 1 letter ago.),P,None,,,,,,,,,0,4,4,4,0,2,2,2,,,,,,,,,,,,,,,,,,,,,,,,,,,,,,,,,,,,,,,,,,,,,,,,,,,,,,,,,,,,,,,,,,,,,1.0162,550.8851901999442,None,None,1,550.8851901999442,None,,P048,fencog,1,Pre,2022_May_31_1219,N-Back (New Version 2021),2021.1.4,120.01920310694219,
,,,,Conditions/Version_1/oneback(2)_v1.xlsx,New rule: Press 'space' when you see 1-back (i.e. the same letter as the one that appeared 1 letter ago.),o,None,,,,,,,,,0,4,4,4,0,3,3,3,,,,,,,,,,,,,,,,,,,,,,,,,,,,,,,,,,,,,,,,,,,,,,,,,,,,,,,,,,,,,,,,,,,,,1.041,553.9334806000115,None,None,1,553.9334806000115,None,,P048,fencog,1,Pre,2022_May_31_1219,N-Back (New Version 2021),2021.1.4,120.01920310694219,
,,,,Conditions/Version_1/oneback(2)_v1.xlsx,New rule: Press 'space' when you see 1-back (i.e. the same letter as the one that appeared 1 letter ago.),m,None,,,,,,,,,0,4,4,4,0,4,4,4,,,,,,,,,,,,,,,,,,,,,,,,,,,,,,,,,,,,,,,,,,,,,,,,,,,,,,,,,,,,,,,,,,,,,1.2642,557.2007479999447,None,None,1,557.2007479999447,None,,P048,fencog,1,Pre,2022_May_31_1219,N-Back (New Version 2021),2021.1.4,120.01920310694219,
,,,,Conditions/Version_1/oneback(2)_v1.xlsx,New rule: Press 'space' when you see 1-back (i.e. the same letter as the one that appeared 1 letter ago.),Z,None,,,,,,,,,0,4,4,4,0,5,5,5,,,,,,,,,,,,,,,,,,,,,,,,,,,,,,,,,,,,,,,,,,,,,,,,,,,,,,,,,,,,,,,,,,,,,1.9462,561.1570308000082,None,None,1,561.1570308000082,None,,P048,fencog,1,Pre,2022_May_31_1219,N-Back (New Version 2021),2021.1.4,120.01920310694219,
,,,,Conditions/Version_1/oneback(2)_v1.xlsx,New rule: Press 'space' when you see 1-back (i.e. the same letter as the one that appeared 1 letter ago.),c,None,,,,,,,,,0,4,4,4,0,6,6,6,,,,,,,,,,,,,,,,,,,,,,,,,,,,,,,,,,,,,,,,,,,,,,,,,,,,,,,,,,,,,,,,,,,,,1.661,564.8314996999688,None,None,1,564.8314996999688,None,,P048,fencog,1,Pre,2022_May_31_1219,N-Back (New Version 2021),2021.1.4,120.01920310694219,
,,,,Conditions/Version_1/oneback(2)_v1.xlsx,New rule: Press 'space' when you see 1-back (i.e. the same letter as the one that appeared 1 letter ago.),c,space,,,,,,,,,0,4,4,4,0,7,7,7,,,,,,,,,,,,,,,,,,,,,,,,,,,,,,,,,,,,,,,,,,,,,,,,,,,,,,,,,,,,,,,,,,,,,1.6362,568.4790029999567,None,space,1,568.4790029999567,None,1.6013255999423563,P048,fencog,1,Pre,2022_May_31_1219,N-Back (New Version 2021),2021.1.4,120.01920310694219,
,,,,Conditions/Version_1/oneback(2)_v1.xlsx,New rule: Press 'space' when you see 1-back (i.e. the same letter as the one that appeared 1 letter ago.),P,None,,,,,,,,,0,4,4,4,0,8,8,8,,,,,,,,,,,,,,,,,,,,,,,,,,,,,,,,,,,,,,,,,,,,,,,,,,,,,,,,,,,,,,,,,,,,,1.134,571.6117087999592,None,None,1,571.6117087999592,None,,P048,fencog,1,Pre,2022_May_31_1219,N-Back (New Version 2021),2021.1.4,120.01920310694219,
,,,,Conditions/Version_1/oneback(2)_v1.xlsx,New rule: Press 'space' when you see 1-back (i.e. the same letter as the one that appeared 1 letter ago.),p,space,,,,,,,,,0,4,4,4,0,9,9,9,,,,,,,,,,,,,,,,,,,,,,,,,,,,,,,,,,,,,,,,,,,,,,,,,,,,,,,,,,,,,,,,,,,,,1.2766,574.895309500047,None,space,1,574.895309500047,None,1.6169120999984443,P048,fencog,1,Pre,2022_May_31_1219,N-Back (New Version 2021),2021.1.4,120.01920310694219,
,,,,Conditions/Version_1/oneback(2)_v1.xlsx,New rule: Press 'space' when you see 1-back (i.e. the same letter as the one that appeared 1 letter ago.),,,,,,,,,,,0,4,4,4,,,,,,,,,,,,,,,,,,,,,,,,,,,,,,,,,,,,,,,,,,,,,,,,,,,,,,,,,,,,,,,,,,,,,,,,,,,,,,,,,P048,fencog,1,Pre,2022_May_31_1219,N-Back (New Version 2021),2021.1.4,120.01920310694219,
,,,,Conditions/Version_1/zeroback(2)_v1.xlsx,New rule: Press 'space' when you see the letter 'x' or 'X'.,p,None,,,,,,,,,0,5,5,5,0,0,0,0,,,,,,,,,,,,,,,,,,,,,,,,,,,,,,,,,,,,,,,,,,,,,,,,,,,,,,,,,,,576.9204593000468,None,579.9035501000471,None,space,0.12041630002204329,579.9035501000471,None,576.9204593000468,None,1.5556,581.6088619000511,None,space,0,581.6088619000511,None,0.5273358999984339,P048,fencog,1,Pre,2022_May_31_1219,N-Back (New Version 2021),2021.1.4,120.01920310694219,
,,,,Conditions/Version_1/zeroback(2)_v1.xlsx,New rule: Press 'space' when you see the letter 'x' or 'X'.,L,None,,,,,,,,,0,5,5,5,0,1,1,1,,,,,,,,,,,,,,,,,,,,,,,,,,,,,,,,,,,,,,,,,,,,,,,,,,,,,,,,,,,,,,,,,,,,,1.8718,585.4825053999666,None,None,1,585.4825053999666,None,,P048,fencog,1,Pre,2022_May_31_1219,N-Back (New Version 2021),2021.1.4,120.01920310694219,
,,,,Conditions/Version_1/zeroback(2)_v1.xlsx,New rule: Press 'space' when you see the letter 'x' or 'X'.,G,None,,,,,,,,,0,5,5,5,0,2,2,2,,,,,,,,,,,,,,,,,,,,,,,,,,,,,,,,,,,,,,,,,,,,,,,,,,,,,,,,,,,,,,,,,,,,,1.9462,589.431322599994,None,None,1,589.431322599994,None,,P048,fencog,1,Pre,2022_May_31_1219,N-Back (New Version 2021),2021.1.4,120.01920310694219,
,,,,Conditions/Version_1/zeroback(2)_v1.xlsx,New rule: Press 'space' when you see the letter 'x' or 'X'.,y,None,,,,,,,,,0,5,5,5,0,3,3,3,,,,,,,,,,,,,,,,,,,,,,,,,,,,,,,,,,,,,,,,,,,,,,,,,,,,,,,,,,,,,,,,,,,,,1.4316,592.8636559000006,None,None,1,592.8636559000006,None,,P048,fencog,1,Pre,2022_May_31_1219,N-Back (New Version 2021),2021.1.4,120.01920310694219,
,,,,Conditions/Version_1/zeroback(2)_v1.xlsx,New rule: Press 'space' when you see the letter 'x' or 'X'.,Y,None,,,,,,,,,0,5,5,5,0,4,4,4,,,,,,,,,,,,,,,,,,,,,,,,,,,,,,,,,,,,,,,,,,,,,,,,,,,,,,,,,,,,,,,,,,,,,1.7292,596.5974195000017,None,None,1,596.5974195000017,None,,P048,fencog,1,Pre,2022_May_31_1219,N-Back (New Version 2021),2021.1.4,120.01920310694219,
,,,,Conditions/Version_1/zeroback(2)_v1.xlsx,New rule: Press 'space' when you see the letter 'x' or 'X'.,W,None,,,,,,,,,0,5,5,5,0,5,5,5,,,,,,,,,,,,,,,,,,,,,,,,,,,,,,,,,,,,,,,,,,,,,,,,,,,,,,,,,,,,,,,,,,,,,1.227,599.8397771000164,None,None,1,599.8397771000164,None,,P048,fencog,1,Pre,2022_May_31_1219,N-Back (New Version 2021),2021.1.4,120.01920310694219,
,,,,Conditions/Version_1/zeroback(2)_v1.xlsx,New rule: Press 'space' when you see the letter 'x' or 'X'.,x,space,,,,,,,,,0,5,5,5,0,6,6,6,,,,,,,,,,,,,,,,,,,,,,,,,,,,,,,,,,,,,,,,,,,,,,,,,,,,,,,,,,,,,,,,,,,,,1.444,603.2938830000348,None,space,1,603.2938830000348,None,1.4902479000156745,P048,fencog,1,Pre,2022_May_31_1219,N-Back (New Version 2021),2021.1.4,120.01920310694219,
,,,,Conditions/Version_1/zeroback(2)_v1.xlsx,New rule: Press 'space' when you see the letter 'x' or 'X'.,X,space,,,,,,,,,0,5,5,5,0,7,7,7,,,,,,,,,,,,,,,,,,,,,,,,,,,,,,,,,,,,,,,,,,,,,,,,,,,,,,,,,,,,,,,,,,,,,1.2394,606.5366024000105,None,space,1,606.5366024000105,None,1.3995517999865115,P048,fencog,1,Pre,2022_May_31_1219,N-Back (New Version 2021),2021.1.4,120.01920310694219,
,,,,Conditions/Version_1/zeroback(2)_v1.xlsx,New rule: Press 'space' when you see the letter 'x' or 'X'.,p,None,,,,,,,,,0,5,5,5,0,8,8,8,,,,,,,,,,,,,,,,,,,,,,,,,,,,,,,,,,,,,,,,,,,,,,,,,,,,,,,,,,,,,,,,,,,,,1.7354,610.2847440999467,None,None,1,610.2847440999467,None,,P048,fencog,1,Pre,2022_May_31_1219,N-Back (New Version 2021),2021.1.4,120.01920310694219,
,,,,Conditions/Version_1/zeroback(2)_v1.xlsx,New rule: Press 'space' when you see the letter 'x' or 'X'.,h,None,,,,,,,,,0,5,5,5,0,9,9,9,,,,,,,,,,,,,,,,,,,,,,,,,,,,,,,,,,,,,,,,,,,,,,,,,,,,,,,,,,,,,,,,,,,,,1.2146,613.5074256999651,None,None,1,613.5074256999651,None,,P048,fencog,1,Pre,2022_May_31_1219,N-Back (New Version 2021),2021.1.4,120.01920310694219,
,,,,Conditions/Version_1/zeroback(2)_v1.xlsx,New rule: Press 'space' when you see the letter 'x' or 'X'.,,,,,,,,,,,0,5,5,5,,,,,,,,,,,,,,,,,,,,,,,,,,,,,,,,,,,,,,,,,,,,,,,,,,,,,,,,,,,,,,,,,,,,,,,,,,,,,,,,,P048,fencog,1,Pre,2022_May_31_1219,N-Back (New Version 2021),2021.1.4,120.01920310694219,
,,,,Conditions/Version_1/threeback(2)_v1.xlsx,New rule: Press 'space' when you see 3-back (i.e. the same letter as the one that appeared 3 letters ago.),q,None,,,,,,,,,0,6,6,6,0,0,0,0,,,,,,,,,,,,,,,,,,,,,,,,,,,,,,,,,,,,,,,,,,,,,,,,,,,,,,,,,,,615.530982599943,None,618.5169366999762,None,space,0.14719130005687475,618.5169366999762,None,615.530982599943,None,1.3448,620.0473346000072,None,None,1,620.0473346000072,None,,P048,fencog,1,Pre,2022_May_31_1219,N-Back (New Version 2021),2021.1.4,120.01920310694219,
,,,,Conditions/Version_1/threeback(2)_v1.xlsx,New rule: Press 'space' when you see 3-back (i.e. the same letter as the one that appeared 3 letters ago.),Y,None,,,,,,,,,0,6,6,6,0,1,1,1,,,,,,,,,,,,,,,,,,,,,,,,,,,,,,,,,,,,,,,,,,,,,,,,,,,,,,,,,,,,,,,,,,,,,1.9772,624.0302534999792,None,None,1,624.0302534999792,None,,P048,fencog,1,Pre,2022_May_31_1219,N-Back (New Version 2021),2021.1.4,120.01920310694219,
,,,,Conditions/Version_1/threeback(2)_v1.xlsx,New rule: Press 'space' when you see 3-back (i.e. the same letter as the one that appeared 3 letters ago.),p,None,,,,,,,,,0,6,6,6,0,2,2,2,,,,,,,,,,,,,,,,,,,,,,,,,,,,,,,,,,,,,,,,,,,,,,,,,,,,,,,,,,,,,,,,,,,,,1.01,627.0550639999565,None,None,1,627.0550639999565,None,,P048,fencog,1,Pre,2022_May_31_1219,N-Back (New Version 2021),2021.1.4,120.01920310694219,
,,,,Conditions/Version_1/threeback(2)_v1.xlsx,New rule: Press 'space' when you see 3-back (i.e. the same letter as the one that appeared 3 letters ago.),p,None,,,,,,,,,0,6,6,6,0,3,3,3,,,,,,,,,,,,,,,,,,,,,,,,,,,,,,,,,,,,,,,,,,,,,,,,,,,,,,,,,,,,,,,,,,,,,1.1216,630.1861496999627,None,None,1,630.1861496999627,None,,P048,fencog,1,Pre,2022_May_31_1219,N-Back (New Version 2021),2021.1.4,120.01920310694219,
,,,,Conditions/Version_1/threeback(2)_v1.xlsx,New rule: Press 'space' when you see 3-back (i.e. the same letter as the one that appeared 3 letters ago.),y,space,,,,,,,,,0,6,6,6,0,4,4,4,,,,,,,,,,,,,,,,,,,,,,,,,,,,,,,,,,,,,,,,,,,,,,,,,,,,,,,,,,,,,,,,,,,,,1.9152,634.1034103999846,None,space,1,634.1034103999846,None,1.8967608000384644,P048,fencog,1,Pre,2022_May_31_1219,N-Back (New Version 2021),2021.1.4,120.01920310694219,
,,,,Conditions/Version_1/threeback(2)_v1.xlsx,New rule: Press 'space' when you see 3-back (i.e. the same letter as the one that appeared 3 letters ago.),u,None,,,,,,,,,0,6,6,6,0,5,5,5,,,,,,,,,,,,,,,,,,,,,,,,,,,,,,,,,,,,,,,,,,,,,,,,,,,,,,,,,,,,,,,,,,,,,1.0596,637.1773746999679,None,None,1,637.1773746999679,None,,P048,fencog,1,Pre,2022_May_31_1219,N-Back (New Version 2021),2021.1.4,120.01920310694219,
,,,,Conditions/Version_1/threeback(2)_v1.xlsx,New rule: Press 'space' when you see 3-back (i.e. the same letter as the one that appeared 3 letters ago.),P,space,,,,,,,,,0,6,6,6,0,6,6,6,,,,,,,,,,,,,,,,,,,,,,,,,,,,,,,,,,,,,,,,,,,,,,,,,,,,,,,,,,,,,,,,,,,,,1.5556,640.7416769999545,None,space,1,640.7416769999545,None,1.1786099000601098,P048,fencog,1,Pre,2022_May_31_1219,N-Back (New Version 2021),2021.1.4,120.01920310694219,
,,,,Conditions/Version_1/threeback(2)_v1.xlsx,New rule: Press 'space' when you see 3-back (i.e. the same letter as the one that appeared 3 letters ago.),a,None,,,,,,,,,0,6,6,6,0,7,7,7,,,,,,,,,,,,,,,,,,,,,,,,,,,,,,,,,,,,,,,,,,,,,,,,,,,,,,,,,,,,,,,,,,,,,1.1278,643.8758467000443,None,None,1,643.8758467000443,None,,P048,fencog,1,Pre,2022_May_31_1219,N-Back (New Version 2021),2021.1.4,120.01920310694219,
,,,,Conditions/Version_1/threeback(2)_v1.xlsx,New rule: Press 'space' when you see 3-back (i.e. the same letter as the one that appeared 3 letters ago.),U,space,,,,,,,,,0,6,6,6,0,8,8,8,,,,,,,,,,,,,,,,,,,,,,,,,,,,,,,,,,,,,,,,,,,,,,,,,,,,,,,,,,,,,,,,,,,,,1.9896,647.8791843999643,None,space,1,647.8791843999643,None,1.5690454000141472,P048,fencog,1,Pre,2022_May_31_1219,N-Back (New Version 2021),2021.1.4,120.01920310694219,
,,,,Conditions/Version_1/threeback(2)_v1.xlsx,New rule: Press 'space' when you see 3-back (i.e. the same letter as the one that appeared 3 letters ago.),q,None,,,,,,,,,0,6,6,6,0,9,9,9,,,,,,,,,,,,,,,,,,,,,,,,,,,,,,,,,,,,,,,,,,,,,,,,,,,,,,,,,,,,,,,,,,,,,1.4812,651.3631520000054,None,None,1,651.3631520000054,None,,P048,fencog,1,Pre,2022_May_31_1219,N-Back (New Version 2021),2021.1.4,120.01920310694219,
,,,,Conditions/Version_1/threeback(2)_v1.xlsx,New rule: Press 'space' when you see 3-back (i.e. the same letter as the one that appeared 3 letters ago.),,,,,,,,,,,0,6,6,6,,,,,,,,,,,,,,,,,,,,,,,,,,,,,,,,,,,,,,,,,,,,,,,,,,,,,,,,,,,,,,,,,,,,,,,,,,,,,,,,,P048,fencog,1,Pre,2022_May_31_1219,N-Back (New Version 2021),2021.1.4,120.01920310694219,
,,,,Conditions/Version_1/twoback(2)_v1.xlsx,New rule: Press 'space' when you see 2-back (i.e. the same letter as the one that appeared 2 letters ago.),q,None,,,,,,,,,0,7,7,7,0,0,0,0,,,,,,,,,,,,,,,,,,,,,,,,,,,,,,,,,,,,,,,,,,,,,,,,,,,,,,,,,,,653.3882245999994,None,656.3723921000492,None,space,0.5318681999342516,656.3723921000492,None,653.3882245999994,None,1.63,658.571672399994,None,None,1,658.571672399994,None,,P048,fencog,1,Pre,2022_May_31_1219,N-Back (New Version 2021),2021.1.4,120.01920310694219,
,,,,Conditions/Version_1/twoback(2)_v1.xlsx,New rule: Press 'space' when you see 2-back (i.e. the same letter as the one that appeared 2 letters ago.),r,None,,,,,,,,,0,7,7,7,0,1,1,1,,,,,,,,,,,,,,,,,,,,,,,,,,,,,,,,,,,,,,,,,,,,,,,,,,,,,,,,,,,,,,,,,,,,,1.9152,662.4951887000352,None,None,1,662.4951887000352,None,,P048,fencog,1,Pre,2022_May_31_1219,N-Back (New Version 2021),2021.1.4,120.01920310694219,
,,,,Conditions/Version_1/twoback(2)_v1.xlsx,New rule: Press 'space' when you see 2-back (i.e. the same letter as the one that appeared 2 letters ago.),q,space,,,,,,,,,0,7,7,7,0,2,2,2,,,,,,,,,,,,,,,,,,,,,,,,,,,,,,,,,,,,,,,,,,,,,,,,,,,,,,,,,,,,,,,,,,,,,1.2084,665.71002889995,None,space,1,665.71002889995,None,1.874152100062929,P048,fencog,1,Pre,2022_May_31_1219,N-Back (New Version 2021),2021.1.4,120.01920310694219,
,,,,Conditions/Version_1/twoback(2)_v1.xlsx,New rule: Press 'space' when you see 2-back (i.e. the same letter as the one that appeared 2 letters ago.),P,None,,,,,,,,,0,7,7,7,0,3,3,3,,,,,,,,,,,,,,,,,,,,,,,,,,,,,,,,,,,,,,,,,,,,,,,,,,,,,,,,,,,,,,,,,,,,,1.7974,669.5161412999732,None,None,1,669.5161412999732,None,,P048,fencog,1,Pre,2022_May_31_1219,N-Back (New Version 2021),2021.1.4,120.01920310694219,
,,,,Conditions/Version_1/twoback(2)_v1.xlsx,New rule: Press 'space' when you see 2-back (i.e. the same letter as the one that appeared 2 letters ago.),p,None,,,,,,,,,0,7,7,7,0,4,4,4,,,,,,,,,,,,,,,,,,,,,,,,,,,,,,,,,,,,,,,,,,,,,,,,,,,,,,,,,,,,,,,,,,,,,1.0658,672.5839229000267,None,space,0,672.5839229000267,None,0.5360165999736637,P048,fencog,1,Pre,2022_May_31_1219,N-Back (New Version 2021),2021.1.4,120.01920310694219,
,,,,Conditions/Version_1/twoback(2)_v1.xlsx,New rule: Press 'space' when you see 2-back (i.e. the same letter as the one that appeared 2 letters ago.),H,None,,,,,,,,,0,7,7,7,0,5,5,5,,,,,,,,,,,,,,,,,,,,,,,,,,,,,,,,,,,,,,,,,,,,,,,,,,,,,,,,,,,,,,,,,,,,,1.4936,676.0902869999409,None,None,1,676.0902869999409,None,,P048,fencog,1,Pre,2022_May_31_1219,N-Back (New Version 2021),2021.1.4,120.01920310694219,
,,,,Conditions/Version_1/twoback(2)_v1.xlsx,New rule: Press 'space' when you see 2-back (i.e. the same letter as the one that appeared 2 letters ago.),g,None,,,,,,,,,0,7,7,7,0,6,6,6,,,,,,,,,,,,,,,,,,,,,,,,,,,,,,,,,,,,,,,,,,,,,,,,,,,,,,,,,,,,,,,,,,,,,1.9524,680.0552662999835,None,None,1,680.0552662999835,None,,P048,fencog,1,Pre,2022_May_31_1219,N-Back (New Version 2021),2021.1.4,120.01920310694219,
,,,,Conditions/Version_1/twoback(2)_v1.xlsx,New rule: Press 'space' when you see 2-back (i.e. the same letter as the one that appeared 2 letters ago.),j,None,,,,,,,,,0,7,7,7,0,7,7,7,,,,,,,,,,,,,,,,,,,,,,,,,,,,,,,,,,,,,,,,,,,,,,,,,,,,,,,,,,,,,,,,,,,,,1.3944,683.4618403000059,None,None,1,683.4618403000059,None,,P048,fencog,1,Pre,2022_May_31_1219,N-Back (New Version 2021),2021.1.4,120.01920310694219,
,,,,Conditions/Version_1/twoback(2)_v1.xlsx,New rule: Press 'space' when you see 2-back (i.e. the same letter as the one that appeared 2 letters ago.),g,space,,,,,,,,,0,7,7,7,0,8,8,8,,,,,,,,,,,,,,,,,,,,,,,,,,,,,,,,,,,,,,,,,,,,,,,,,,,,,,,,,,,,,,,,,,,,,1.5432,687.0119041999569,None,space,1,687.0119041999569,None,1.1801368000451475,P048,fencog,1,Pre,2022_May_31_1219,N-Back (New Version 2021),2021.1.4,120.01920310694219,
,,,,Conditions/Version_1/twoback(2)_v1.xlsx,New rule: Press 'space' when you see 2-back (i.e. the same letter as the one that appeared 2 letters ago.),G,None,,,,,,,,,0,7,7,7,0,9,9,9,,,,,,,,,,,,,,,,,,,,,,,,,,,,,,,,,,,,,,,,,,,,,,,,,,,,,,,,,,,,,,,,,,,,,1.9834,691.0017716999864,None,None,1,691.0017716999864,None,,P048,fencog,1,Pre,2022_May_31_1219,N-Back (New Version 2021),2021.1.4,120.01920310694219,
,,,,Conditions/Version_1/twoback(2)_v1.xlsx,New rule: Press 'space' when you see 2-back (i.e. the same letter as the one that appeared 2 letters ago.),,,,,,,,,,,0,7,7,7,,,,,,,,,,,,,,,,,,,,,,,,,,,,,,,,,,,,,,,,,,,,,,,,,,,,,,,,,,,,,,,,,,,,,,,,,,,,,,,,,P048,fencog,1,Pre,2022_May_31_1219,N-Back (New Version 2021),2021.1.4,120.01920310694219,
,,,,Conditions/Version_1/threeback(3)_v1.xlsx,New rule: Press 'space' when you see 3-back (i.e. the same letter as the one that appeared 3 letters ago.),w,None,,,,,,,,,0,8,8,8,0,0,0,0,,,,,,,,,,,,,,,,,,,,,,,,,,,,,,,,,,,,,,,,,,,,,,,,,,,,,,,,,,,693.0260746999411,None,696.0115790000418,None,space,0.5086566000245512,696.0115790000418,None,693.0260746999411,None,1.8284,698.3843126000138,None,None,1,698.3843126000138,None,,P048,fencog,1,Pre,2022_May_31_1219,N-Back (New Version 2021),2021.1.4,120.01920310694219,
,,,,Conditions/Version_1/threeback(3)_v1.xlsx,New rule: Press 'space' when you see 3-back (i.e. the same letter as the one that appeared 3 letters ago.),p,None,,,,,,,,,0,8,8,8,0,1,1,1,,,,,,,,,,,,,,,,,,,,,,,,,,,,,,,,,,,,,,,,,,,,,,,,,,,,,,,,,,,,,,,,,,,,,1.3696,701.7647682999959,None,None,1,701.7647682999959,None,,P048,fencog,1,Pre,2022_May_31_1219,N-Back (New Version 2021),2021.1.4,120.01920310694219,
,,,,Conditions/Version_1/threeback(3)_v1.xlsx,New rule: Press 'space' when you see 3-back (i.e. the same letter as the one that appeared 3 letters ago.),P,None,,,,,,,,,0,8,8,8,0,2,2,2,,,,,,,,,,,,,,,,,,,,,,,,,,,,,,,,,,,,,,,,,,,,,,,,,,,,,,,,,,,,,,,,,,,,,1.3758,705.1471436000429,None,None,1,705.1471436000429,None,,P048,fencog,1,Pre,2022_May_31_1219,N-Back (New Version 2021),2021.1.4,120.01920310694219,
,,,,Conditions/Version_1/threeback(3)_v1.xlsx,New rule: Press 'space' when you see 3-back (i.e. the same letter as the one that appeared 3 letters ago.),i,None,,,,,,,,,0,8,8,8,0,3,3,3,,,,,,,,,,,,,,,,,,,,,,,,,,,,,,,,,,,,,,,,,,,,,,,,,,,,,,,,,,,,,,,,,,,,,1.6796,708.8323455000063,None,None,1,708.8323455000063,None,,P048,fencog,1,Pre,2022_May_31_1219,N-Back (New Version 2021),2021.1.4,120.01920310694219,
,,,,Conditions/Version_1/threeback(3)_v1.xlsx,New rule: Press 'space' when you see 3-back (i.e. the same letter as the one that appeared 3 letters ago.),f,None,,,,,,,,,0,8,8,8,0,4,4,4,,,,,,,,,,,,,,,,,,,,,,,,,,,,,,,,,,,,,,,,,,,,,,,,,,,,,,,,,,,,,,,,,,,,,1.6858,712.5287818999495,None,None,1,712.5287818999495,None,,P048,fencog,1,Pre,2022_May_31_1219,N-Back (New Version 2021),2021.1.4,120.01920310694219,
,,,,Conditions/Version_1/threeback(3)_v1.xlsx,New rule: Press 'space' when you see 3-back (i.e. the same letter as the one that appeared 3 letters ago.),o,None,,,,,,,,,0,8,8,8,0,5,5,5,,,,,,,,,,,,,,,,,,,,,,,,,,,,,,,,,,,,,,,,,,,,,,,,,,,,,,,,,,,,,,,,,,,,,1.041,715.5690373999532,None,None,1,715.5690373999532,None,,P048,fencog,1,Pre,2022_May_31_1219,N-Back (New Version 2021),2021.1.4,120.01920310694219,
,,,,Conditions/Version_1/threeback(3)_v1.xlsx,New rule: Press 'space' when you see 3-back (i.e. the same letter as the one that appeared 3 letters ago.),w,None,,,,,,,,,0,8,8,8,0,6,6,6,,,,,,,,,,,,,,,,,,,,,,,,,,,,,,,,,,,,,,,,,,,,,,,,,,,,,,,,,,,,,,,,,,,,,1.8222,719.3947791999672,None,None,1,719.3947791999672,None,,P048,fencog,1,Pre,2022_May_31_1219,N-Back (New Version 2021),2021.1.4,120.01920310694219,
,,,,Conditions/Version_1/threeback(3)_v1.xlsx,New rule: Press 'space' when you see 3-back (i.e. the same letter as the one that appeared 3 letters ago.),F,space,,,,,,,,,0,8,8,8,0,7,7,7,,,,,,,,,,,,,,,,,,,,,,,,,,,,,,,,,,,,,,,,,,,,,,,,,,,,,,,,,,,,,,,,,,,,,1.2952,722.705276099965,None,None,0,722.705276099965,None,,P048,fencog,1,Pre,2022_May_31_1219,N-Back (New Version 2021),2021.1.4,120.01920310694219,
,,,,Conditions/Version_1/threeback(3)_v1.xlsx,New rule: Press 'space' when you see 3-back (i.e. the same letter as the one that appeared 3 letters ago.),p,None,,,,,,,,,0,8,8,8,0,8,8,8,,,,,,,,,,,,,,,,,,,,,,,,,,,,,,,,,,,,,,,,,,,,,,,,,,,,,,,,,,,,,,,,,,,,,1.9338,726.6501495999983,None,None,1,726.6501495999983,None,,P048,fencog,1,Pre,2022_May_31_1219,N-Back (New Version 2021),2021.1.4,120.01920310694219,
,,,,Conditions/Version_1/threeback(3)_v1.xlsx,New rule: Press 'space' when you see 3-back (i.e. the same letter as the one that appeared 3 letters ago.),W,space,,,,,,,,,0,8,8,8,0,9,9,9,,,,,,,,,,,,,,,,,,,,,,,,,,,,,,,,,,,,,,,,,,,,,,,,,,,,,,,,,,,,,,,,,,,,,1.3944,730.0564596999902,None,space,1,730.0564596999902,None,1.959421299980022,P048,fencog,1,Pre,2022_May_31_1219,N-Back (New Version 2021),2021.1.4,120.01920310694219,
,,,,Conditions/Version_1/threeback(3)_v1.xlsx,New rule: Press 'space' when you see 3-back (i.e. the same letter as the one that appeared 3 letters ago.),,,,,,,,,,,0,8,8,8,,,,,,,,,,,,,,,,,,,,,,,,,,,,,,,,,,,,,,,,,,,,,,,,,,,,,,,,,,,,,,,,,,,,,,,,,,,,,,,,,P048,fencog,1,Pre,2022_May_31_1219,N-Back (New Version 2021),2021.1.4,120.01920310694219,
,,,,Conditions/Version_1/zeroback(3)_v1.xlsx,New rule: Press 'space' when you see the letter 'x' or 'X'.,X,space,,,,,,,,,0,9,9,9,0,0,0,0,,,,,,,,,,,,,,,,,,,,,,,,,,,,,,,,,,,,,,,,,,,,,,,,,,,,,,,,,,,732.0739521000069,None,735.0645401000511,None,space,1.3674552999436855,735.0645401000511,None,732.0739521000069,None,1.9958,738.4620870000217,None,space,1,738.4620870000217,None,1.5297168999677524,P048,fencog,1,Pre,2022_May_31_1219,N-Back (New Version 2021),2021.1.4,120.01920310694219,
,,,,Conditions/Version_1/zeroback(3)_v1.xlsx,New rule: Press 'space' when you see the letter 'x' or 'X'.,B,None,,,,,,,,,0,9,9,9,0,1,1,1,,,,,,,,,,,,,,,,,,,,,,,,,,,,,,,,,,,,,,,,,,,,,,,,,,,,,,,,,,,,,,,,,,,,,1.4998,741.9617552999407,None,None,1,741.9617552999407,None,,P048,fencog,1,Pre,2022_May_31_1219,N-Back (New Version 2021),2021.1.4,120.01920310694219,
,,,,Conditions/Version_1/zeroback(3)_v1.xlsx,New rule: Press 'space' when you see the letter 'x' or 'X'.,m,None,,,,,,,,,0,9,9,9,0,2,2,2,,,,,,,,,,,,,,,,,,,,,,,,,,,,,,,,,,,,,,,,,,,,,,,,,,,,,,,,,,,,,,,,,,,,,1.3324,745.301789799938,None,None,1,745.301789799938,None,,P048,fencog,1,Pre,2022_May_31_1219,N-Back (New Version 2021),2021.1.4,120.01920310694219,
,,,,Conditions/Version_1/zeroback(3)_v1.xlsx,New rule: Press 'space' when you see the letter 'x' or 'X'.,m,None,,,,,,,,,0,9,9,9,0,3,3,3,,,,,,,,,,,,,,,,,,,,,,,,,,,,,,,,,,,,,,,,,,,,,,,,,,,,,,,,,,,,,,,,,,,,,1.63,748.9340726999799,None,None,1,748.9340726999799,None,,P048,fencog,1,Pre,2022_May_31_1219,N-Back (New Version 2021),2021.1.4,120.01920310694219,
,,,,Conditions/Version_1/zeroback(3)_v1.xlsx,New rule: Press 'space' when you see the letter 'x' or 'X'.,o,None,,,,,,,,,0,9,9,9,0,4,4,4,,,,,,,,,,,,,,,,,,,,,,,,,,,,,,,,,,,,,,,,,,,,,,,,,,,,,,,,,,,,,,,,,,,,,1.9524,752.89123259997,None,None,1,752.89123259997,None,,P048,fencog,1,Pre,2022_May_31_1219,N-Back (New Version 2021),2021.1.4,120.01920310694219,
,,,,Conditions/Version_1/zeroback(3)_v1.xlsx,New rule: Press 'space' when you see the letter 'x' or 'X'.,p,None,,,,,,,,,0,9,9,9,0,5,5,5,,,,,,,,,,,,,,,,,,,,,,,,,,,,,,,,,,,,,,,,,,,,,,,,,,,,,,,,,,,,,,,,,,,,,1.8656,756.7567209999543,None,None,1,756.7567209999543,None,,P048,fencog,1,Pre,2022_May_31_1219,N-Back (New Version 2021),2021.1.4,120.01920310694219,
,,,,Conditions/Version_1/zeroback(3)_v1.xlsx,New rule: Press 'space' when you see the letter 'x' or 'X'.,G,None,,,,,,,,,0,9,9,9,0,6,6,6,,,,,,,,,,,,,,,,,,,,,,,,,,,,,,,,,,,,,,,,,,,,,,,,,,,,,,,,,,,,,,,,,,,,,1.5742,760.3306498000165,None,None,1,760.3306498000165,None,,P048,fencog,1,Pre,2022_May_31_1219,N-Back (New Version 2021),2021.1.4,120.01920310694219,
,,,,Conditions/Version_1/zeroback(3)_v1.xlsx,New rule: Press 'space' when you see the letter 'x' or 'X'.,X,space,,,,,,,,,0,9,9,9,0,7,7,7,,,,,,,,,,,,,,,,,,,,,,,,,,,,,,,,,,,,,,,,,,,,,,,,,,,,,,,,,,,,,,,,,,,,,1.0286,763.3631343999878,None,space,1,763.3631343999878,None,1.5487504000775516,P048,fencog,1,Pre,2022_May_31_1219,N-Back (New Version 2021),2021.1.4,120.01920310694219,
,,,,Conditions/Version_1/zeroback(3)_v1.xlsx,New rule: Press 'space' when you see the letter 'x' or 'X'.,p,None,,,,,,,,,0,9,9,9,0,8,8,8,,,,,,,,,,,,,,,,,,,,,,,,,,,,,,,,,,,,,,,,,,,,,,,,,,,,,,,,,,,,,,,,,,,,,1.8842,767.2536182999611,None,None,1,767.2536182999611,None,,P048,fencog,1,Pre,2022_May_31_1219,N-Back (New Version 2021),2021.1.4,120.01920310694219,
,,,,Conditions/Version_1/zeroback(3)_v1.xlsx,New rule: Press 'space' when you see the letter 'x' or 'X'.,x,space,,,,,,,,,0,9,9,9,0,9,9,9,,,,,,,,,,,,,,,,,,,,,,,,,,,,,,,,,,,,,,,,,,,,,,,,,,,,,,,,,,,,,,,,,,,,,1.2332,770.4860175000504,None,space,1,770.4860175000504,None,0.9938969999784604,P048,fencog,1,Pre,2022_May_31_1219,N-Back (New Version 2021),2021.1.4,120.01920310694219,
,,,,Conditions/Version_1/zeroback(3)_v1.xlsx,New rule: Press 'space' when you see the letter 'x' or 'X'.,,,,,,,,,,,0,9,9,9,,,,,,,,,,,,,,,,,,,,,,,,,,,,,,,,,,,,,,,,,,,,,,,,,,,,,,,,,,,,,,,,,,,,,,,,,,,,,,,,,P048,fencog,1,Pre,2022_May_31_1219,N-Back (New Version 2021),2021.1.4,120.01920310694219,
,,,,Conditions/Version_1/twoback(3)_v1.xlsx,New rule: Press 'space' when you see 2-back (i.e. the same letter as the one that appeared 2 letters ago.),e,None,,,,,,,,,0,10,10,10,0,0,0,0,,,,,,,,,,,,,,,,,,,,,,,,,,,,,,,,,,,,,,,,,,,,,,,,,,,,,,,,,,,772.5052974999417,None,775.4940520999953,None,space,0.05785089998971671,775.4940520999953,None,772.5052974999417,None,1.4874,777.0674693000037,None,None,1,777.0674693000037,None,,P048,fencog,1,Pre,2022_May_31_1219,N-Back (New Version 2021),2021.1.4,120.01920310694219,
,,,,Conditions/Version_1/twoback(3)_v1.xlsx,New rule: Press 'space' when you see 2-back (i.e. the same letter as the one that appeared 2 letters ago.),o,None,,,,,,,,,0,10,10,10,0,1,1,1,,,,,,,,,,,,,,,,,,,,,,,,,,,,,,,,,,,,,,,,,,,,,,,,,,,,,,,,,,,,,,,,,,,,,1.4626,780.5330618999433,None,None,1,780.5330618999433,None,,P048,fencog,1,Pre,2022_May_31_1219,N-Back (New Version 2021),2021.1.4,120.01920310694219,
,,,,Conditions/Version_1/twoback(3)_v1.xlsx,New rule: Press 'space' when you see 2-back (i.e. the same letter as the one that appeared 2 letters ago.),P,None,,,,,,,,,0,10,10,10,0,2,2,2,,,,,,,,,,,,,,,,,,,,,,,,,,,,,,,,,,,,,,,,,,,,,,,,,,,,,,,,,,,,,,,,,,,,,1.0658,783.5988433000166,None,None,1,783.5988433000166,None,,P048,fencog,1,Pre,2022_May_31_1219,N-Back (New Version 2021),2021.1.4,120.01920310694219,
,,,,Conditions/Version_1/twoback(3)_v1.xlsx,New rule: Press 'space' when you see 2-back (i.e. the same letter as the one that appeared 2 letters ago.),z,None,,,,,,,,,0,10,10,10,0,3,3,3,,,,,,,,,,,,,,,,,,,,,,,,,,,,,,,,,,,,,,,,,,,,,,,,,,,,,,,,,,,,,,,,,,,,,1.5184,787.1243927000323,None,None,1,787.1243927000323,None,,P048,fencog,1,Pre,2022_May_31_1219,N-Back (New Version 2021),2021.1.4,120.01920310694219,
,,,,Conditions/Version_1/twoback(3)_v1.xlsx,New rule: Press 'space' when you see 2-back (i.e. the same letter as the one that appeared 2 letters ago.),X,None,,,,,,,,,0,10,10,10,0,4,4,4,,,,,,,,,,,,,,,,,,,,,,,,,,,,,,,,,,,,,,,,,,,,,,,,,,,,,,,,,,,,,,,,,,,,,1.6052,790.7384026000509,None,None,1,790.7384026000509,None,,P048,fencog,1,Pre,2022_May_31_1219,N-Back (New Version 2021),2021.1.4,120.01920310694219,
,,,,Conditions/Version_1/twoback(3)_v1.xlsx,New rule: Press 'space' when you see 2-back (i.e. the same letter as the one that appeared 2 letters ago.),z,space,,,,,,,,,0,10,10,10,0,5,5,5,,,,,,,,,,,,,,,,,,,,,,,,,,,,,,,,,,,,,,,,,,,,,,,,,,,,,,,,,,,,,,,,,,,,,1.5494,794.2873244000366,None,space,1,794.2873244000366,None,1.544531499966979,P048,fencog,1,Pre,2022_May_31_1219,N-Back (New Version 2021),2021.1.4,120.01920310694219,
,,,,Conditions/Version_1/twoback(3)_v1.xlsx,New rule: Press 'space' when you see 2-back (i.e. the same letter as the one that appeared 2 letters ago.),x,space,,,,,,,,,0,10,10,10,0,6,6,6,,,,,,,,,,,,,,,,,,,,,,,,,,,,,,,,,,,,,,,,,,,,,,,,,,,,,,,,,,,,,,,,,,,,,1.2208,797.511413399945,None,space,1,797.511413399945,None,1.6803354999283329,P048,fencog,1,Pre,2022_May_31_1219,N-Back (New Version 2021),2021.1.4,120.01920310694219,
,,,,Conditions/Version_1/twoback(3)_v1.xlsx,New rule: Press 'space' when you see 2-back (i.e. the same letter as the one that appeared 2 letters ago.),c,None,,,,,,,,,0,10,10,10,0,7,7,7,,,,,,,,,,,,,,,,,,,,,,,,,,,,,,,,,,,,,,,,,,,,,,,,,,,,,,,,,,,,,,,,,,,,,1.9772,801.49356610002,None,None,1,801.49356610002,None,,P048,fencog,1,Pre,2022_May_31_1219,N-Back (New Version 2021),2021.1.4,120.01920310694219,
,,,,Conditions/Version_1/twoback(3)_v1.xlsx,New rule: Press 'space' when you see 2-back (i.e. the same letter as the one that appeared 2 letters ago.),i,None,,,,,,,,,0,10,10,10,0,8,8,8,,,,,,,,,,,,,,,,,,,,,,,,,,,,,,,,,,,,,,,,,,,,,,,,,,,,,,,,,,,,,,,,,,,,,1.63,805.1257598999655,None,None,1,805.1257598999655,None,,P048,fencog,1,Pre,2022_May_31_1219,N-Back (New Version 2021),2021.1.4,120.01920310694219,
,,,,Conditions/Version_1/twoback(3)_v1.xlsx,New rule: Press 'space' when you see 2-back (i.e. the same letter as the one that appeared 2 letters ago.),C,space,,,,,,,,,0,10,10,10,0,9,9,9,,,,,,,,,,,,,,,,,,,,,,,,,,,,,,,,,,,,,,,,,,,,,,,,,,,,,,,,,,,,,,,,,,,,,1.6672,808.7935339000542,None,space,1,808.7935339000542,None,1.550555899972096,P048,fencog,1,Pre,2022_May_31_1219,N-Back (New Version 2021),2021.1.4,120.01920310694219,
,,,,Conditions/Version_1/twoback(3)_v1.xlsx,New rule: Press 'space' when you see 2-back (i.e. the same letter as the one that appeared 2 letters ago.),,,,,,,,,,,0,10,10,10,,,,,,,,,,,,,,,,,,,,,,,,,,,,,,,,,,,,,,,,,,,,,,,,,,,,,,,,,,,,,,,,,,,,,,,,,,,,,,,,,P048,fencog,1,Pre,2022_May_31_1219,N-Back (New Version 2021),2021.1.4,120.01920310694219,
,,,,Conditions/Version_1/oneback(3)_v1.xlsx,New rule: Press 'space' when you see 1-back (i.e. the same letter as the one that appeared 1 letter ago.),o,None,,,,,,,,,0,11,11,11,0,0,0,0,,,,,,,,,,,,,,,,,,,,,,,,,,,,,,,,,,,,,,,,,,,,,,,,,,,,,,,,,,,810.8282429999672,None,813.8085251000011,None,space,0.39953549997881055,813.8085251000011,None,810.8282429999672,None,1.3324,815.5818898000289,None,None,1,815.5818898000289,None,,P048,fencog,1,Pre,2022_May_31_1219,N-Back (New Version 2021),2021.1.4,120.01920310694219,
,,,,Conditions/Version_1/oneback(3)_v1.xlsx,New rule: Press 'space' when you see 1-back (i.e. the same letter as the one that appeared 1 letter ago.),O,space,,,,,,,,,0,11,11,11,0,1,1,1,,,,,,,,,,,,,,,,,,,,,,,,,,,,,,,,,,,,,,,,,,,,,,,,,,,,,,,,,,,,,,,,,,,,,1.413,819.0478085000068,None,space,1,819.0478085000068,None,0.7761690999614075,P048,fencog,1,Pre,2022_May_31_1219,N-Back (New Version 2021),2021.1.4,120.01920310694219,
,,,,Conditions/Version_1/oneback(3)_v1.xlsx,New rule: Press 'space' when you see 1-back (i.e. the same letter as the one that appeared 1 letter ago.),h,None,,,,,,,,,0,11,11,11,0,2,2,2,,,,,,,,,,,,,,,,,,,,,,,,,,,,,,,,,,,,,,,,,,,,,,,,,,,,,,,,,,,,,,,,,,,,,1.165,822.1805530999554,None,None,1,822.1805530999554,None,,P048,fencog,1,Pre,2022_May_31_1219,N-Back (New Version 2021),2021.1.4,120.01920310694219,
,,,,Conditions/Version_1/oneback(3)_v1.xlsx,New rule: Press 'space' when you see 1-back (i.e. the same letter as the one that appeared 1 letter ago.),g,None,,,,,,,,,0,11,11,11,0,3,3,3,,,,,,,,,,,,,,,,,,,,,,,,,,,,,,,,,,,,,,,,,,,,,,,,,,,,,,,,,,,,,,,,,,,,,1.444,825.6367385999765,None,None,1,825.6367385999765,None,,P048,fencog,1,Pre,2022_May_31_1219,N-Back (New Version 2021),2021.1.4,120.01920310694219,
,,,,Conditions/Version_1/oneback(3)_v1.xlsx,New rule: Press 'space' when you see 1-back (i.e. the same letter as the one that appeared 1 letter ago.),n,None,,,,,,,,,0,11,11,11,0,4,4,4,,,,,,,,,,,,,,,,,,,,,,,,,,,,,,,,,,,,,,,,,,,,,,,,,,,,,,,,,,,,,,,,,,,,,1.6486,829.2865549999988,None,None,1,829.2865549999988,None,,P048,fencog,1,Pre,2022_May_31_1219,N-Back (New Version 2021),2021.1.4,120.01920310694219,
,,,,Conditions/Version_1/oneback(3)_v1.xlsx,New rule: Press 'space' when you see 1-back (i.e. the same letter as the one that appeared 1 letter ago.),z,None,,,,,,,,,0,11,11,11,0,5,5,5,,,,,,,,,,,,,,,,,,,,,,,,,,,,,,,,,,,,,,,,,,,,,,,,,,,,,,,,,,,,,,,,,,,,,1.2084,832.5011550999479,None,None,1,832.5011550999479,None,,P048,fencog,1,Pre,2022_May_31_1219,N-Back (New Version 2021),2021.1.4,120.01920310694219,
,,,,Conditions/Version_1/oneback(3)_v1.xlsx,New rule: Press 'space' when you see 1-back (i.e. the same letter as the one that appeared 1 letter ago.),X,None,,,,,,,,,0,11,11,11,0,6,6,6,,,,,,,,,,,,,,,,,,,,,,,,,,,,,,,,,,,,,,,,,,,,,,,,,,,,,,,,,,,,,,,,,,,,,1.9648,836.4672443999443,None,None,1,836.4672443999443,None,,P048,fencog,1,Pre,2022_May_31_1219,N-Back (New Version 2021),2021.1.4,120.01920310694219,
,,,,Conditions/Version_1/oneback(3)_v1.xlsx,New rule: Press 'space' when you see 1-back (i.e. the same letter as the one that appeared 1 letter ago.),r,None,,,,,,,,,0,11,11,11,0,7,7,7,,,,,,,,,,,,,,,,,,,,,,,,,,,,,,,,,,,,,,,,,,,,,,,,,,,,,,,,,,,,,,,,,,,,,1.6672,840.1323919999413,None,None,1,840.1323919999413,None,,P048,fencog,1,Pre,2022_May_31_1219,N-Back (New Version 2021),2021.1.4,120.01920310694219,
,,,,Conditions/Version_1/oneback(3)_v1.xlsx,New rule: Press 'space' when you see 1-back (i.e. the same letter as the one that appeared 1 letter ago.),r,space,,,,,,,,,0,11,11,11,0,8,8,8,,,,,,,,,,,,,,,,,,,,,,,,,,,,,,,,,,,,,,,,,,,,,,,,,,,,,,,,,,,,,,,,,,,,,1.599,843.7314130000304,None,space,1,843.7314130000304,None,1.0284652999835089,P048,fencog,1,Pre,2022_May_31_1219,N-Back (New Version 2021),2021.1.4,120.01920310694219,
,,,,Conditions/Version_1/oneback(3)_v1.xlsx,New rule: Press 'space' when you see 1-back (i.e. the same letter as the one that appeared 1 letter ago.),P,None,,,,,,,,,0,11,11,11,0,9,9,9,,,,,,,,,,,,,,,,,,,,,,,,,,,,,,,,,,,,,,,,,,,,,,,,,,,,,,,,,,,,,,,,,,,,,1.4316,847.1656203999883,None,None,1,847.1656203999883,None,,P048,fencog,1,Pre,2022_May_31_1219,N-Back (New Version 2021),2021.1.4,120.01920310694219,
,,,,Conditions/Version_1/oneback(3)_v1.xlsx,New rule: Press 'space' when you see 1-back (i.e. the same letter as the one that appeared 1 letter ago.),,,,,,,,,,,0,11,11,11,,,,,,,,,,,,,,,,,,,,,,,,,,,,,,,,,,,,,,,,,,,,,,,,,,,,,,,,,,,,,,,,,,,,,,,,,,,,,,,,,P048,fencog,1,Pre,2022_May_31_1219,N-Back (New Version 2021),2021.1.4,120.01920310694219,
,,,,Conditions/Version_1/twoback(4)_v1.xlsx,New rule: Press 'space' when you see 2-back (i.e. the same letter as the one that appeared 2 letters ago.),r,None,,,,,,,,,0,12,12,12,0,0,0,0,,,,,,,,,,,,,,,,,,,,,,,,,,,,,,,,,,,,,,,,,,,,,,,,,,,,,,,,,,,849.1924620999489,None,852.1811518999748,None,space,0.602729200036265,852.1811518999748,None,849.1924620999489,None,1.9586,854.7779219000367,None,None,1,854.7779219000367,None,,P048,fencog,1,Pre,2022_May_31_1219,N-Back (New Version 2021),2021.1.4,120.01920310694219,
,,,,Conditions/Version_1/twoback(4)_v1.xlsx,New rule: Press 'space' when you see 2-back (i.e. the same letter as the one that appeared 2 letters ago.),T,None,,,,,,,,,0,12,12,12,0,1,1,1,,,,,,,,,,,,,,,,,,,,,,,,,,,,,,,,,,,,,,,,,,,,,,,,,,,,,,,,,,,,,,,,,,,,,1.723,858.5018151999684,None,None,1,858.5018151999684,None,,P048,fencog,1,Pre,2022_May_31_1219,N-Back (New Version 2021),2021.1.4,120.01920310694219,
,,,,Conditions/Version_1/twoback(4)_v1.xlsx,New rule: Press 'space' when you see 2-back (i.e. the same letter as the one that appeared 2 letters ago.),o,None,,,,,,,,,0,12,12,12,0,2,2,2,,,,,,,,,,,,,,,,,,,,,,,,,,,,,,,,,,,,,,,,,,,,,,,,,,,,,,,,,,,,,,,,,,,,,1.3758,861.8842532000272,None,None,1,861.8842532000272,None,,P048,fencog,1,Pre,2022_May_31_1219,N-Back (New Version 2021),2021.1.4,120.01920310694219,
,,,,Conditions/Version_1/twoback(4)_v1.xlsx,New rule: Press 'space' when you see 2-back (i.e. the same letter as the one that appeared 2 letters ago.),p,None,,,,,,,,,0,12,12,12,0,3,3,3,,,,,,,,,,,,,,,,,,,,,,,,,,,,,,,,,,,,,,,,,,,,,,,,,,,,,,,,,,,,,,,,,,,,,1.7602,865.6500556999817,None,None,1,865.6500556999817,None,,P048,fencog,1,Pre,2022_May_31_1219,N-Back (New Version 2021),2021.1.4,120.01920310694219,
,,,,Conditions/Version_1/twoback(4)_v1.xlsx,New rule: Press 'space' when you see 2-back (i.e. the same letter as the one that appeared 2 letters ago.),p,None,,,,,,,,,0,12,12,12,0,4,4,4,,,,,,,,,,,,,,,,,,,,,,,,,,,,,,,,,,,,,,,,,,,,,,,,,,,,,,,,,,,,,,,,,,,,,1.2394,868.8906447000336,None,None,1,868.8906447000336,None,,P048,fencog,1,Pre,2022_May_31_1219,N-Back (New Version 2021),2021.1.4,120.01920310694219,
,,,,Conditions/Version_1/twoback(4)_v1.xlsx,New rule: Press 'space' when you see 2-back (i.e. the same letter as the one that appeared 2 letters ago.),y,None,,,,,,,,,0,12,12,12,0,5,5,5,,,,,,,,,,,,,,,,,,,,,,,,,,,,,,,,,,,,,,,,,,,,,,,,,,,,,,,,,,,,,,,,,,,,,1.7354,872.6309643000131,None,None,1,872.6309643000131,None,,P048,fencog,1,Pre,2022_May_31_1219,N-Back (New Version 2021),2021.1.4,120.01920310694219,
,,,,Conditions/Version_1/twoback(4)_v1.xlsx,New rule: Press 'space' when you see 2-back (i.e. the same letter as the one that appeared 2 letters ago.),P,space,,,,,,,,,0,12,12,12,0,6,6,6,,,,,,,,,,,,,,,,,,,,,,,,,,,,,,,,,,,,,,,,,,,,,,,,,,,,,,,,,,,,,,,,,,,,,1.9214,876.5586350000231,None,space,1,876.5586350000231,None,1.3373160000192001,P048,fencog,1,Pre,2022_May_31_1219,N-Back (New Version 2021),2021.1.4,120.01920310694219,
,,,,Conditions/Version_1/twoback(4)_v1.xlsx,New rule: Press 'space' when you see 2-back (i.e. the same letter as the one that appeared 2 letters ago.),y,None,,,,,,,,,0,12,12,12,0,7,7,7,,,,,,,,,,,,,,,,,,,,,,,,,,,,,,,,,,,,,,,,,,,,,,,,,,,,,,,,,,,,,,,,,,,,,1.6238,880.1878337999806,None,space,0,880.1878337999806,None,1.2601679000072181,P048,fencog,1,Pre,2022_May_31_1219,N-Back (New Version 2021),2021.1.4,120.01920310694219,
,,,,Conditions/Version_1/twoback(4)_v1.xlsx,New rule: Press 'space' when you see 2-back (i.e. the same letter as the one that appeared 2 letters ago.),y,space,,,,,,,,,0,12,12,12,0,8,8,8,,,,,,,,,,,,,,,,,,,,,,,,,,,,,,,,,,,,,,,,,,,,,,,,,,,,,,,,,,,,,,,,,,,,,1.4998,883.6943740999559,None,space,1,883.6943740999559,None,0.6575699000386521,P048,fencog,1,Pre,2022_May_31_1219,N-Back (New Version 2021),2021.1.4,120.01920310694219,
,,,,Conditions/Version_1/twoback(4)_v1.xlsx,New rule: Press 'space' when you see 2-back (i.e. the same letter as the one that appeared 2 letters ago.),,,,,,,,,,,0,12,12,12,,,,,,,,,,,,,,,,,,,,,,,,,,,,,,,,,,,,,,,,,,,,,,,,,,,,,,,,,,,,,,,,,,,,,,,,,,,,,,,,,P048,fencog,1,Pre,2022_May_31_1219,N-Back (New Version 2021),2021.1.4,120.01920310694219,
,,,,Conditions/Version_1/zeroback(4)_v1.xlsx,New rule: Press 'space' when you see the letter 'x' or 'X'.,o,None,,,,,,,,,0,13,13,13,0,0,0,0,,,,,,,,,,,,,,,,,,,,,,,,,,,,,,,,,,,,,,,,,,,,,,,,,,,,,,,,,,,885.7138049999485,None,888.7063391000265,None,space,0.38163319998420775,888.7063391000265,None,885.7138049999485,None,1.6734,890.7934648999944,None,None,1,890.7934648999944,None,,P048,fencog,1,Pre,2022_May_31_1219,N-Back (New Version 2021),2021.1.4,120.01920310694219,
,,,,Conditions/Version_1/zeroback(4)_v1.xlsx,New rule: Press 'space' when you see the letter 'x' or 'X'.,X,space,,,,,,,,,0,13,13,13,0,1,1,1,,,,,,,,,,,,,,,,,,,,,,,,,,,,,,,,,,,,,,,,,,,,,,,,,,,,,,,,,,,,,,,,,,,,,1.4006,894.2006049000192,None,space,1,894.2006049000192,None,1.2877680999226868,P048,fencog,1,Pre,2022_May_31_1219,N-Back (New Version 2021),2021.1.4,120.01920310694219,
,,,,Conditions/Version_1/zeroback(4)_v1.xlsx,New rule: Press 'space' when you see the letter 'x' or 'X'.,p,None,,,,,,,,,0,13,13,13,0,2,2,2,,,,,,,,,,,,,,,,,,,,,,,,,,,,,,,,,,,,,,,,,,,,,,,,,,,,,,,,,,,,,,,,,,,,,1.9338,898.1401562000392,None,None,1,898.1401562000392,None,,P048,fencog,1,Pre,2022_May_31_1219,N-Back (New Version 2021),2021.1.4,120.01920310694219,
,,,,Conditions/Version_1/zeroback(4)_v1.xlsx,New rule: Press 'space' when you see the letter 'x' or 'X'.,m,None,,,,,,,,,0,13,13,13,0,3,3,3,,,,,,,,,,,,,,,,,,,,,,,,,,,,,,,,,,,,,,,,,,,,,,,,,,,,,,,,,,,,,,,,,,,,,1.568,901.7164376999717,None,None,1,901.7164376999717,None,,P048,fencog,1,Pre,2022_May_31_1219,N-Back (New Version 2021),2021.1.4,120.01920310694219,
,,,,Conditions/Version_1/zeroback(4)_v1.xlsx,New rule: Press 'space' when you see the letter 'x' or 'X'.,n,None,,,,,,,,,0,13,13,13,0,4,4,4,,,,,,,,,,,,,,,,,,,,,,,,,,,,,,,,,,,,,,,,,,,,,,,,,,,,,,,,,,,,,,,,,,,,,1.1526,904.8798378000502,None,None,1,904.8798378000502,None,,P048,fencog,1,Pre,2022_May_31_1219,N-Back (New Version 2021),2021.1.4,120.01920310694219,
,,,,Conditions/Version_1/zeroback(4)_v1.xlsx,New rule: Press 'space' when you see the letter 'x' or 'X'.,m,None,,,,,,,,,0,13,13,13,0,5,5,5,,,,,,,,,,,,,,,,,,,,,,,,,,,,,,,,,,,,,,,,,,,,,,,,,,,,,,,,,,,,,,,,,,,,,1.2456,908.1299808999756,None,None,1,908.1299808999756,None,,P048,fencog,1,Pre,2022_May_31_1219,N-Back (New Version 2021),2021.1.4,120.01920310694219,
,,,,Conditions/Version_1/zeroback(4)_v1.xlsx,New rule: Press 'space' when you see the letter 'x' or 'X'.,C,None,,,,,,,,,0,13,13,13,0,6,6,6,,,,,,,,,,,,,,,,,,,,,,,,,,,,,,,,,,,,,,,,,,,,,,,,,,,,,,,,,,,,,,,,,,,,,1.6176,911.7610892000375,None,None,1,911.7610892000375,None,,P048,fencog,1,Pre,2022_May_31_1219,N-Back (New Version 2021),2021.1.4,120.01920310694219,
,,,,Conditions/Version_1/zeroback(4)_v1.xlsx,New rule: Press 'space' when you see the letter 'x' or 'X'.,m,None,,,,,,,,,0,13,13,13,0,7,7,7,,,,,,,,,,,,,,,,,,,,,,,,,,,,,,,,,,,,,,,,,,,,,,,,,,,,,,,,,,,,,,,,,,,,,1.8408,915.6039342000149,None,None,1,915.6039342000149,None,,P048,fencog,1,Pre,2022_May_31_1219,N-Back (New Version 2021),2021.1.4,120.01920310694219,
,,,,Conditions/Version_1/zeroback(4)_v1.xlsx,New rule: Press 'space' when you see the letter 'x' or 'X'.,p,None,,,,,,,,,0,13,13,13,0,8,8,8,,,,,,,,,,,,,,,,,,,,,,,,,,,,,,,,,,,,,,,,,,,,,,,,,,,,,,,,,,,,,,,,,,,,,1.1216,918.734681300004,None,None,1,918.734681300004,None,,P048,fencog,1,Pre,2022_May_31_1219,N-Back (New Version 2021),2021.1.4,120.01920310694219,
,,,,Conditions/Version_1/zeroback(4)_v1.xlsx,New rule: Press 'space' when you see the letter 'x' or 'X'.,X,space,,,,,,,,,0,13,13,13,0,9,9,9,,,,,,,,,,,,,,,,,,,,,,,,,,,,,,,,,,,,,,,,,,,,,,,,,,,,,,,,,,,,,,,,,,,,,1.5928,922.3436879999936,None,space,1,922.3436879999936,None,1.5601569999707863,P048,fencog,1,Pre,2022_May_31_1219,N-Back (New Version 2021),2021.1.4,120.01920310694219,
,,,,Conditions/Version_1/zeroback(4)_v1.xlsx,New rule: Press 'space' when you see the letter 'x' or 'X'.,,,,,,,,,,,0,13,13,13,,,,,,,,,,,,,,,,,,,,,,,,,,,,,,,,,,,,,,,,,,,,,,,,,,,,,,,,,,,,,,,,,,,,,,,,,,,,,,,,,P048,fencog,1,Pre,2022_May_31_1219,N-Back (New Version 2021),2021.1.4,120.01920310694219,
,,,,Conditions/Version_1/oneback(4)_v1.xlsx,New rule: Press 'space' when you see 1-back (i.e. the same letter as the one that appeared 1 letter ago.),w,None,,,,,,,,,0,14,14,14,0,0,0,0,,,,,,,,,,,,,,,,,,,,,,,,,,,,,,,,,,,,,,,,,,,,,,,,,,,,,,,,,,,924.3680692999624,None,927.3505352999782,None,space,5.0654829000122845,927.3505352999782,None,924.3680692999624,None,1.1464,933.597734299954,None,None,1,933.597734299954,None,,P048,fencog,1,Pre,2022_May_31_1219,N-Back (New Version 2021),2021.1.4,120.01920310694219,
,,,,Conditions/Version_1/oneback(4)_v1.xlsx,New rule: Press 'space' when you see 1-back (i.e. the same letter as the one that appeared 1 letter ago.),q,None,,,,,,,,,0,14,14,14,0,1,1,1,,,,,,,,,,,,,,,,,,,,,,,,,,,,,,,,,,,,,,,,,,,,,,,,,,,,,,,,,,,,,,,,,,,,,1.2952,936.9055441999808,None,None,1,936.9055441999808,None,,P048,fencog,1,Pre,2022_May_31_1219,N-Back (New Version 2021),2021.1.4,120.01920310694219,
,,,,Conditions/Version_1/oneback(4)_v1.xlsx,New rule: Press 'space' when you see 1-back (i.e. the same letter as the one that appeared 1 letter ago.),i,None,,,,,,,,,0,14,14,14,0,2,2,2,,,,,,,,,,,,,,,,,,,,,,,,,,,,,,,,,,,,,,,,,,,,,,,,,,,,,,,,,,,,,,,,,,,,,1.1402,940.0526951999636,None,None,1,940.0526951999636,None,,P048,fencog,1,Pre,2022_May_31_1219,N-Back (New Version 2021),2021.1.4,120.01920310694219,
,,,,Conditions/Version_1/oneback(4)_v1.xlsx,New rule: Press 'space' when you see 1-back (i.e. the same letter as the one that appeared 1 letter ago.),t,None,,,,,,,,,0,14,14,14,0,3,3,3,,,,,,,,,,,,,,,,,,,,,,,,,,,,,,,,,,,,,,,,,,,,,,,,,,,,,,,,,,,,,,,,,,,,,1.8346,943.893246499938,None,None,1,943.893246499938,None,,P048,fencog,1,Pre,2022_May_31_1219,N-Back (New Version 2021),2021.1.4,120.01920310694219,
,,,,Conditions/Version_1/oneback(4)_v1.xlsx,New rule: Press 'space' when you see 1-back (i.e. the same letter as the one that appeared 1 letter ago.),v,None,,,,,,,,,0,14,14,14,0,4,4,4,,,,,,,,,,,,,,,,,,,,,,,,,,,,,,,,,,,,,,,,,,,,,,,,,,,,,,,,,,,,,,,,,,,,,1.5432,947.4431953999447,None,None,1,947.4431953999447,None,,P048,fencog,1,Pre,2022_May_31_1219,N-Back (New Version 2021),2021.1.4,120.01920310694219,
,,,,Conditions/Version_1/oneback(4)_v1.xlsx,New rule: Press 'space' when you see 1-back (i.e. the same letter as the one that appeared 1 letter ago.),V,space,,,,,,,,,0,14,14,14,0,5,5,5,,,,,,,,,,,,,,,,,,,,,,,,,,,,,,,,,,,,,,,,,,,,,,,,,,,,,,,,,,,,,,,,,,,,,1.8222,951.2774687999627,None,space,1,951.2774687999627,None,1.0984371000668034,P048,fencog,1,Pre,2022_May_31_1219,N-Back (New Version 2021),2021.1.4,120.01920310694219,
,,,,Conditions/Version_1/oneback(4)_v1.xlsx,New rule: Press 'space' when you see 1-back (i.e. the same letter as the one that appeared 1 letter ago.),v,space,,,,,,,,,0,14,14,14,0,6,6,6,,,,,,,,,,,,,,,,,,,,,,,,,,,,,,,,,,,,,,,,,,,,,,,,,,,,,,,,,,,,,,,,,,,,,1.4254,954.7087107000407,None,space,1,954.7087107000407,None,1.2592324999859557,P048,fencog,1,Pre,2022_May_31_1219,N-Back (New Version 2021),2021.1.4,120.01920310694219,
,,,,Conditions/Version_1/oneback(4)_v1.xlsx,New rule: Press 'space' when you see 1-back (i.e. the same letter as the one that appeared 1 letter ago.),p,None,,,,,,,,,0,14,14,14,0,7,7,7,,,,,,,,,,,,,,,,,,,,,,,,,,,,,,,,,,,,,,,,,,,,,,,,,,,,,,,,,,,,,,,,,,,,,1.4502,958.1640336000128,None,None,1,958.1640336000128,None,,P048,fencog,1,Pre,2022_May_31_1219,N-Back (New Version 2021),2021.1.4,120.01920310694219,
,,,,Conditions/Version_1/oneback(4)_v1.xlsx,New rule: Press 'space' when you see 1-back (i.e. the same letter as the one that appeared 1 letter ago.),w,None,,,,,,,,,0,14,14,14,0,8,8,8,,,,,,,,,,,,,,,,,,,,,,,,,,,,,,,,,,,,,,,,,,,,,,,,,,,,,,,,,,,,,,,,,,,,,1.5866,961.7551440000534,None,None,1,961.7551440000534,None,,P048,fencog,1,Pre,2022_May_31_1219,N-Back (New Version 2021),2021.1.4,120.01920310694219,
,,,,Conditions/Version_1/oneback(4)_v1.xlsx,New rule: Press 'space' when you see 1-back (i.e. the same letter as the one that appeared 1 letter ago.),W,space,,,,,,,,,0,14,14,14,0,9,9,9,,,,,,,,,,,,,,,,,,,,,,,,,,,,,,,,,,,,,,,,,,,,,,,,,,,,,,,,,,,,,,,,,,,,,1.196,964.9575400999747,None,space,1,964.9575400999747,None,1.2509025000035763,P048,fencog,1,Pre,2022_May_31_1219,N-Back (New Version 2021),2021.1.4,120.01920310694219,
,,,,Conditions/Version_1/oneback(4)_v1.xlsx,New rule: Press 'space' when you see 1-back (i.e. the same letter as the one that appeared 1 letter ago.),,,,,,,,,,,0,14,14,14,,,,,,,,,,,,,,,,,,,,,,,,,,,,,,,,,,,,,,,,,,,,,,,,,,,,,,,,,,,,,,,,,,,,,,,,,,,,,,,,,P048,fencog,1,Pre,2022_May_31_1219,N-Back (New Version 2021),2021.1.4,120.01920310694219,
,,,,Conditions/Version_1/threeback(4)_v1.xlsx,New rule: Press 'space' when you see 3-back (i.e. the same letter as the one that appeared 3 letters ago.),A,None,,,,,,,,,0,15,15,15,0,0,0,0,,,,,,,,,,,,,,,,,,,,,,,,,,,,,,,,,,,,,,,,,,,,,,,,,,,,,,,,,,,966.9827919000527,None,969.9710528999567,None,space,1.3886918999487534,969.9710528999567,None,966.9827919000527,None,1.8966,973.2927742999746,None,None,1,973.2927742999746,None,,P048,fencog,1,Pre,2022_May_31_1219,N-Back (New Version 2021),2021.1.4,120.01920310694219,
,,,,Conditions/Version_1/threeback(4)_v1.xlsx,New rule: Press 'space' when you see 3-back (i.e. the same letter as the one that appeared 3 letters ago.),n,None,,,,,,,,,0,15,15,15,0,1,1,1,,,,,,,,,,,,,,,,,,,,,,,,,,,,,,,,,,,,,,,,,,,,,,,,,,,,,,,,,,,,,,,,,,,,,1.6796,976.9752394000534,None,None,1,976.9752394000534,None,,P048,fencog,1,Pre,2022_May_31_1219,N-Back (New Version 2021),2021.1.4,120.01920310694219,
,,,,Conditions/Version_1/threeback(4)_v1.xlsx,New rule: Press 'space' when you see 3-back (i.e. the same letter as the one that appeared 3 letters ago.),g,None,,,,,,,,,0,15,15,15,0,2,2,2,,,,,,,,,,,,,,,,,,,,,,,,,,,,,,,,,,,,,,,,,,,,,,,,,,,,,,,,,,,,,,,,,,,,,1.5432,980.5256431000307,None,None,1,980.5256431000307,None,,P048,fencog,1,Pre,2022_May_31_1219,N-Back (New Version 2021),2021.1.4,120.01920310694219,
,,,,Conditions/Version_1/threeback(4)_v1.xlsx,New rule: Press 'space' when you see 3-back (i.e. the same letter as the one that appeared 3 letters ago.),A,space,,,,,,,,,0,15,15,15,0,3,3,3,,,,,,,,,,,,,,,,,,,,,,,,,,,,,,,,,,,,,,,,,,,,,,,,,,,,,,,,,,,,,,,,,,,,,1.9524,984.4895855999785,None,space,1,984.4895855999785,None,1.5023241000017151,P048,fencog,1,Pre,2022_May_31_1219,N-Back (New Version 2021),2021.1.4,120.01920310694219,
,,,,Conditions/Version_1/threeback(4)_v1.xlsx,New rule: Press 'space' when you see 3-back (i.e. the same letter as the one that appeared 3 letters ago.),p,None,,,,,,,,,0,15,15,15,0,4,4,4,,,,,,,,,,,,,,,,,,,,,,,,,,,,,,,,,,,,,,,,,,,,,,,,,,,,,,,,,,,,,,,,,,,,,1.7416,988.2303442000411,None,None,1,988.2303442000411,None,,P048,fencog,1,Pre,2022_May_31_1219,N-Back (New Version 2021),2021.1.4,120.01920310694219,
,,,,Conditions/Version_1/threeback(4)_v1.xlsx,New rule: Press 'space' when you see 3-back (i.e. the same letter as the one that appeared 3 letters ago.),O,None,,,,,,,,,0,15,15,15,0,5,5,5,,,,,,,,,,,,,,,,,,,,,,,,,,,,,,,,,,,,,,,,,,,,,,,,,,,,,,,,,,,,,,,,,,,,,1.8656,992.0959337999811,None,None,1,992.0959337999811,None,,P048,fencog,1,Pre,2022_May_31_1219,N-Back (New Version 2021),2021.1.4,120.01920310694219,
,,,,Conditions/Version_1/threeback(4)_v1.xlsx,New rule: Press 'space' when you see 3-back (i.e. the same letter as the one that appeared 3 letters ago.),a,space,,,,,,,,,0,15,15,15,0,6,6,6,,,,,,,,,,,,,,,,,,,,,,,,,,,,,,,,,,,,,,,,,,,,,,,,,,,,,,,,,,,,,,,,,,,,,1.8904,995.9903179999674,None,space,1,995.9903179999674,None,1.7695092000067234,P048,fencog,1,Pre,2022_May_31_1219,N-Back (New Version 2021),2021.1.4,120.01920310694219,
,,,,Conditions/Version_1/threeback(4)_v1.xlsx,New rule: Press 'space' when you see 3-back (i.e. the same letter as the one that appeared 3 letters ago.),p,space,,,,,,,,,0,15,15,15,0,7,7,7,,,,,,,,,,,,,,,,,,,,,,,,,,,,,,,,,,,,,,,,,,,,,,,,,,,,,,,,,,,,,,,,,,,,,1.5742,999.5708842000458,None,space,1,999.5708842000458,None,1.6450296000111848,P048,fencog,1,Pre,2022_May_31_1219,N-Back (New Version 2021),2021.1.4,120.01920310694219,
,,,,Conditions/Version_1/threeback(4)_v1.xlsx,New rule: Press 'space' when you see 3-back (i.e. the same letter as the one that appeared 3 letters ago.),x,None,,,,,,,,,0,15,15,15,0,8,8,8,,,,,,,,,,,,,,,,,,,,,,,,,,,,,,,,,,,,,,,,,,,,,,,,,,,,,,,,,,,,,,,,,,,,,1.7106,1003.2928310999414,None,None,1,1003.2928310999414,None,,P048,fencog,1,Pre,2022_May_31_1219,N-Back (New Version 2021),2021.1.4,120.01920310694219,
,,,,Conditions/Version_1/threeback(4)_v1.xlsx,New rule: Press 'space' when you see 3-back (i.e. the same letter as the one that appeared 3 letters ago.),X,None,,,,,,,,,0,15,15,15,0,9,9,9,,,,,,,,,,,,,,,,,,,,,,,,,,,,,,,,,,,,,,,,,,,,,,,,,,,,,,,,,,,,,,,,,,,,,1.3386,1006.6330518999603,None,None,1,1006.6330518999603,None,,P048,fencog,1,Pre,2022_May_31_1219,N-Back (New Version 2021),2021.1.4,120.01920310694219,
,,,,Conditions/Version_1/threeback(4)_v1.xlsx,New rule: Press 'space' when you see 3-back (i.e. the same letter as the one that appeared 3 letters ago.),,,,,,,,,,,0,15,15,15,,,,,,,,,,,,,,,,,,,,,,,,,,,,,,,,,,,,,,,,,,,,,,,,,,,,,,,,,,,,,,,,,,,,,,,,,,,,,,,,,P048,fencog,1,Pre,2022_May_31_1219,N-Back (New Version 2021),2021.1.4,120.01920310694219,
