CondFileP,InstructionsP,LettersDisplayedP,CorrectnessP,CondFile,Instructions,LettersDisplayed,Correctness,practicetrials.thisRepN,practicetrials.thisTrialN,practicetrials.thisN,practicetrials.thisIndex,InnerLoopPractice.thisRepN,InnerLoopPractice.thisTrialN,InnerLoopPractice.thisN,InnerLoopPractice.thisIndex,trials.thisRepN,trials.thisTrialN,trials.thisN,trials.thisIndex,InnerLoop.thisRepN,InnerLoop.thisTrialN,InnerLoop.thisN,InnerLoop.thisIndex,TaskVersionText.started,TaskVersionText.stopped,InstrKey1.keys,InstrKey1.rt,InstrKey1.started,InstrKey1.stopped,text.started,text.stopped,key_resp_4.keys,key_resp_4.rt,key_resp_4.started,key_resp_4.stopped,text_2.started,text_2.stopped,key_resp_3.keys,key_resp_3.rt,key_resp_3.started,key_resp_3.stopped,text_3.started,text_3.stopped,key_resp_2.keys,key_resp_2.rt,key_resp_2.started,key_resp_2.stopped,PractIn1.started,PractIn1.stopped,PractIn2.started,PractIn2.stopped,PractInstructionPass.keys,PractInstructionPass.rt,PractInstructionPass.started,PractInstructionPass.stopped,PractBlock1.started,PractBlock1.stopped,ISIjitterPractice,ISI_Pract_Fixation.started,ISI_Pract_Fixation.stopped,N_backP.started,N_backP.stopped,KeyPractice.keys,KeyPractice.corr,KeyPractice.rt,KeyPractice.started,KeyPractice.stopped,text_4.started,text_4.stopped,TransitionText.started,TransitionText.stopped,key_resp_6.keys,key_resp_6.rt,key_resp_6.started,key_resp_6.stopped,text_5.started,text_5.stopped,key_resp_5.keys,key_resp_5.rt,key_resp_5.started,key_resp_5.stopped,MainInt1.started,MainInt1.stopped,MainInt2.started,MainInt2.stopped,InstructionPass.keys,InstructionPass.rt,InstructionPass.started,InstructionPass.stopped,Blocks1.started,Blocks1.stopped,ISIjitter,N_backD.started,N_backD.stopped,key_resp.keys,key_resp.corr,key_resp.started,key_resp.stopped,key_resp.rt,participant,Study Name,Task Version (required to run),PRE/POST,date,expName,psychopyVersion,frameRate
,,,,,,,,,,,,,,,,,,,,,,,,45.7701091,None,space,1.6006879,46.2624916,None,,,,,,,,,,,,,,,,,,,,,,,,,,,,,,,,,,,,,,,,,,,,,,,,,,,,,,,,,,,,,,,,,,,,,,,P049,FENCOG,1,Pre,2022_Jun_06_1103,N-Back (New Version 2021),2021.1.4,120.0385084
,,,,,,,,,,,,,,,,,,,,,,,,,,,,,,47.8933385,None,space,58.8329189,48.3790239,None,,,,,,,,,,,,,,,,,,,,,,,,,,,,,,,,,,,,,,,,,,,,,,,,,,,,,,,,,,,,,,,,,P049,FENCOG,1,Pre,2022_Jun_06_1103,N-Back (New Version 2021),2021.1.4,120.0385084
,,,,,,,,,,,,,,,,,,,,,,,,,,,,,,,,,,,,107.2591311,None,space,12.1308075,107.7449053,None,,,,,,,,,,,,,,,,,,,,,,,,,,,,,,,,,,,,,,,,,,,,,,,,,,,,,,,,,,,P049,FENCOG,1,Pre,2022_Jun_06_1103,N-Back (New Version 2021),2021.1.4,120.0385084
,,,,,,,,,,,,,,,,,,,,,,,,,,,,,,,,,,,,,,,,,,119.899627,None,space,12.6682767,120.3912409,None,,,,,,,,,,,,,,,,,,,,,,,,,,,,,,,,,,,,,,,,,,,,,,,,,,,,,P049,FENCOG,1,Pre,2022_Jun_06_1103,N-Back (New Version 2021),2021.1.4,120.0385084
Conditions/Version_1Pr/zeroback(1)_v1.xlsx,Rule: Press 'space' when you see the letter 'x' or 'X'.,Z,None,,,,,0,0,0,0,0,0,0,0,,,,,,,,,,,,,,,,,,,,,,,,,,,,,,,,,134.4270745,None,137.4133333,None,space,1.6461527,137.4133333,None,134.4270745,None,1.34,139.0859134,None,140.4311638,None,space,0,0.5003431,140.4311638,None,140.9486879,None,,,,,,,,,,,,,,,,,,,,,,,,,,,,,,,P049,FENCOG,1,Pre,2022_Jun_06_1103,N-Back (New Version 2021),2021.1.4,120.0385084
Conditions/Version_1Pr/zeroback(1)_v1.xlsx,Rule: Press 'space' when you see the letter 'x' or 'X'.,r,None,,,,,0,0,0,0,0,1,1,1,,,,,,,,,,,,,,,,,,,,,,,,,,,,,,,,,,,,,,,,,,,1.24,142.4505581,None,143.6946182,None,None,1,,143.6946182,None,145.7018566,None,,,,,,,,,,,,,,,,,,,,,,,,,,,,,,,P049,FENCOG,1,Pre,2022_Jun_06_1103,N-Back (New Version 2021),2021.1.4,120.0385084
Conditions/Version_1Pr/zeroback(1)_v1.xlsx,Rule: Press 'space' when you see the letter 'x' or 'X'.,X,space,,,,,0,0,0,0,0,2,2,2,,,,,,,,,,,,,,,,,,,,,,,,,,,,,,,,,,,,,,,,,,,1.79,147.1991333,None,148.9917994,None,space,1,0.5237394,148.9917994,None,149.5246092,None,,,,,,,,,,,,,,,,,,,,,,,,,,,,,,,P049,FENCOG,1,Pre,2022_Jun_06_1103,N-Back (New Version 2021),2021.1.4,120.0385084
Conditions/Version_1Pr/zeroback(1)_v1.xlsx,Rule: Press 'space' when you see the letter 'x' or 'X'.,p,None,,,,,0,0,0,0,0,3,3,3,,,,,,,,,,,,,,,,,,,,,,,,,,,,,,,,,,,,,,,,,,,1.84,151.0331022,None,152.873965,None,None,1,,152.873965,None,154.880236,None,,,,,,,,,,,,,,,,,,,,,,,,,,,,,,,P049,FENCOG,1,Pre,2022_Jun_06_1103,N-Back (New Version 2021),2021.1.4,120.0385084
Conditions/Version_1Pr/zeroback(1)_v1.xlsx,Rule: Press 'space' when you see the letter 'x' or 'X'.,w,None,,,,,0,0,0,0,0,4,4,4,,,,,,,,,,,,,,,,,,,,,,,,,,,,,,,,,,,,,,,,,,,1.365,156.3795522,None,157.7515399,None,None,1,,157.7515399,None,159.7468346,None,,,,,,,,,,,,,,,,,,,,,,,,,,,,,,,P049,FENCOG,1,Pre,2022_Jun_06_1103,N-Back (New Version 2021),2021.1.4,120.0385084
Conditions/Version_1Pr/zeroback(1)_v1.xlsx,Rule: Press 'space' when you see the letter 'x' or 'X'.,e,None,,,,,0,0,0,0,0,5,5,5,,,,,,,,,,,,,,,,,,,,,,,,,,,,,,,,,,,,,,,,,,,1.565,161.25338,None,162.8248167,None,None,1,,162.8248167,None,164.8272821,None,,,,,,,,,,,,,,,,,,,,,,,,,,,,,,,P049,FENCOG,1,Pre,2022_Jun_06_1103,N-Back (New Version 2021),2021.1.4,120.0385084
Conditions/Version_1Pr/zeroback(1)_v1.xlsx,Rule: Press 'space' when you see the letter 'x' or 'X'.,X,space,,,,,0,0,0,0,0,6,6,6,,,,,,,,,,,,,,,,,,,,,,,,,,,,,,,,,,,,,,,,,,,1.04,166.3268502,None,167.3691472,None,space,1,0.3786856,167.3691472,None,167.7612469,None,,,,,,,,,,,,,,,,,,,,,,,,,,,,,,,P049,FENCOG,1,Pre,2022_Jun_06_1103,N-Back (New Version 2021),2021.1.4,120.0385084
Conditions/Version_1Pr/zeroback(1)_v1.xlsx,Rule: Press 'space' when you see the letter 'x' or 'X'.,x,space,,,,,0,0,0,0,0,7,7,7,,,,,,,,,,,,,,,,,,,,,,,,,,,,,,,,,,,,,,,,,,,1.865,169.2674394,None,171.1365192,None,space,1,0.3869754,171.1365192,None,171.5352226,None,,,,,,,,,,,,,,,,,,,,,,,,,,,,,,,P049,FENCOG,1,Pre,2022_Jun_06_1103,N-Back (New Version 2021),2021.1.4,120.0385084
Conditions/Version_1Pr/zeroback(1)_v1.xlsx,Rule: Press 'space' when you see the letter 'x' or 'X'.,p,None,,,,,0,0,0,0,0,8,8,8,,,,,,,,,,,,,,,,,,,,,,,,,,,,,,,,,,,,,,,,,,,1.115,173.0416101,None,174.1602531,None,None,1,,174.1602531,None,176.1656043,None,,,,,,,,,,,,,,,,,,,,,,,,,,,,,,,P049,FENCOG,1,Pre,2022_Jun_06_1103,N-Back (New Version 2021),2021.1.4,120.0385084
Conditions/Version_1Pr/zeroback(1)_v1.xlsx,Rule: Press 'space' when you see the letter 'x' or 'X'.,r,None,,,,,0,0,0,0,0,9,9,9,,,,,,,,,,,,,,,,,,,,,,,,,,,,,,,,,,,,,,,,,,,1.94,177.6652394,None,179.6069842,None,None,1,,179.6069842,None,181.6138429,None,,,,,,,,,,,,,,,,,,,,,,,,,,,,,,,P049,FENCOG,1,Pre,2022_Jun_06_1103,N-Back (New Version 2021),2021.1.4,120.0385084
Conditions/Version_1Pr/zeroback(1)_v1.xlsx,Rule: Press 'space' when you see the letter 'x' or 'X'.,,,,,,,0,0,0,0,,,,,,,,,,,,,,,,,,,,,,,,,,,,,,,,,,,,,,,,,,,,,,,,,,,,,,,,,,,,,,,,,,,,,,,,,,,,,,,,,,,,,,,,,P049,FENCOG,1,Pre,2022_Jun_06_1103,N-Back (New Version 2021),2021.1.4,120.0385084
Conditions/Version_1Pr/oneback(1)_v1.xlsx,New rule: Press 'space' when you see 1-back (i.e. the same letter as the one that appeared 1 letter ago.),a,None,,,,,0,1,1,1,0,0,0,0,,,,,,,,,,,,,,,,,,,,,,,,,,,,,,,,,183.1396522,None,186.1255053,None,space,7.3821978,186.1255053,None,183.1396522,None,1.44,193.5367028,None,194.9826635,None,None,1,,194.9826635,None,196.9844608,None,,,,,,,,,,,,,,,,,,,,,,,,,,,,,,,P049,FENCOG,1,Pre,2022_Jun_06_1103,N-Back (New Version 2021),2021.1.4,120.0385084
Conditions/Version_1Pr/oneback(1)_v1.xlsx,New rule: Press 'space' when you see 1-back (i.e. the same letter as the one that appeared 1 letter ago.),x,None,,,,,0,1,1,1,0,1,1,1,,,,,,,,,,,,,,,,,,,,,,,,,,,,,,,,,,,,,,,,,,,1.69,198.4840309,None,200.1759462,None,None,1,,200.1759462,None,202.1829402,None,,,,,,,,,,,,,,,,,,,,,,,,,,,,,,,P049,FENCOG,1,Pre,2022_Jun_06_1103,N-Back (New Version 2021),2021.1.4,120.0385084
Conditions/Version_1Pr/oneback(1)_v1.xlsx,New rule: Press 'space' when you see 1-back (i.e. the same letter as the one that appeared 1 letter ago.),g,None,,,,,0,1,1,1,0,2,2,2,,,,,,,,,,,,,,,,,,,,,,,,,,,,,,,,,,,,,,,,,,,1.49,203.6824991,None,205.1747764,None,None,1,,205.1747764,None,207.1750404,None,,,,,,,,,,,,,,,,,,,,,,,,,,,,,,,P049,FENCOG,1,Pre,2022_Jun_06_1103,N-Back (New Version 2021),2021.1.4,120.0385084
Conditions/Version_1Pr/oneback(1)_v1.xlsx,New rule: Press 'space' when you see 1-back (i.e. the same letter as the one that appeared 1 letter ago.),G,space,,,,,0,1,1,1,0,3,3,3,,,,,,,,,,,,,,,,,,,,,,,,,,,,,,,,,,,,,,,,,,,1.24,208.6819041,None,209.9265368,None,space,1,0.5970713,209.9265368,None,210.5401538,None,,,,,,,,,,,,,,,,,,,,,,,,,,,,,,,P049,FENCOG,1,Pre,2022_Jun_06_1103,N-Back (New Version 2021),2021.1.4,120.0385084
Conditions/Version_1Pr/oneback(1)_v1.xlsx,New rule: Press 'space' when you see 1-back (i.e. the same letter as the one that appeared 1 letter ago.),u,None,,,,,0,1,1,1,0,4,4,4,,,,,,,,,,,,,,,,,,,,,,,,,,,,,,,,,,,,,,,,,,,1.315,212.0467117,None,213.3635276,None,None,1,,213.3635276,None,215.370739,None,,,,,,,,,,,,,,,,,,,,,,,,,,,,,,,P049,FENCOG,1,Pre,2022_Jun_06_1103,N-Back (New Version 2021),2021.1.4,120.0385084
Conditions/Version_1Pr/oneback(1)_v1.xlsx,New rule: Press 'space' when you see 1-back (i.e. the same letter as the one that appeared 1 letter ago.),y,None,,,,,0,1,1,1,0,5,5,5,,,,,,,,,,,,,,,,,,,,,,,,,,,,,,,,,,,,,,,,,,,1.165,216.8701596,None,218.0383505,None,None,1,,218.0383505,None,220.044396,None,,,,,,,,,,,,,,,,,,,,,,,,,,,,,,,P049,FENCOG,1,Pre,2022_Jun_06_1103,N-Back (New Version 2021),2021.1.4,120.0385084
Conditions/Version_1Pr/oneback(1)_v1.xlsx,New rule: Press 'space' when you see 1-back (i.e. the same letter as the one that appeared 1 letter ago.),y,space,,,,,0,1,1,1,0,6,6,6,,,,,,,,,,,,,,,,,,,,,,,,,,,,,,,,,,,,,,,,,,,1.79,221.5439347,None,223.3350457,None,space,1,0.4766424,223.3350457,None,223.8278419,None,,,,,,,,,,,,,,,,,,,,,,,,,,,,,,,P049,FENCOG,1,Pre,2022_Jun_06_1103,N-Back (New Version 2021),2021.1.4,120.0385084
Conditions/Version_1Pr/oneback(1)_v1.xlsx,New rule: Press 'space' when you see 1-back (i.e. the same letter as the one that appeared 1 letter ago.),k,None,,,,,0,1,1,1,0,7,7,7,,,,,,,,,,,,,,,,,,,,,,,,,,,,,,,,,,,,,,,,,,,1.09,225.3344398,None,226.4271557,None,None,1,,226.4271557,None,228.4335382,None,,,,,,,,,,,,,,,,,,,,,,,,,,,,,,,P049,FENCOG,1,Pre,2022_Jun_06_1103,N-Back (New Version 2021),2021.1.4,120.0385084
Conditions/Version_1Pr/oneback(1)_v1.xlsx,New rule: Press 'space' when you see 1-back (i.e. the same letter as the one that appeared 1 letter ago.),c,None,,,,,0,1,1,1,0,8,8,8,,,,,,,,,,,,,,,,,,,,,,,,,,,,,,,,,,,,,,,,,,,1.965,229.932847,None,231.9006151,None,None,1,,231.9006151,None,233.9069432,None,,,,,,,,,,,,,,,,,,,,,,,,,,,,,,,P049,FENCOG,1,Pre,2022_Jun_06_1103,N-Back (New Version 2021),2021.1.4,120.0385084
Conditions/Version_1Pr/oneback(1)_v1.xlsx,New rule: Press 'space' when you see 1-back (i.e. the same letter as the one that appeared 1 letter ago.),r,None,,,,,0,1,1,1,0,9,9,9,,,,,,,,,,,,,,,,,,,,,,,,,,,,,,,,,,,,,,,,,,,1.74,235.4065154,None,237.1553028,None,None,1,,237.1553028,None,239.1555057,None,,,,,,,,,,,,,,,,,,,,,,,,,,,,,,,P049,FENCOG,1,Pre,2022_Jun_06_1103,N-Back (New Version 2021),2021.1.4,120.0385084
Conditions/Version_1Pr/oneback(1)_v1.xlsx,New rule: Press 'space' when you see 1-back (i.e. the same letter as the one that appeared 1 letter ago.),,,,,,,0,1,1,1,,,,,,,,,,,,,,,,,,,,,,,,,,,,,,,,,,,,,,,,,,,,,,,,,,,,,,,,,,,,,,,,,,,,,,,,,,,,,,,,,,,,,,,,,P049,FENCOG,1,Pre,2022_Jun_06_1103,N-Back (New Version 2021),2021.1.4,120.0385084
Conditions/Version_1Pr/twoback(1)_v1.xlsx,New rule: Press 'space' when you see 2-back (i.e. the same letter as the one that appeared 2 letters ago.),E,None,,,,,0,2,2,2,0,0,0,0,,,,,,,,,,,,,,,,,,,,,,,,,,,,,,,,,240.6897656,None,243.6729157,None,space,0.7626022,243.6729157,None,240.6897656,None,1.565,244.4635108,None,246.0318357,None,None,1,,246.0318357,None,248.0360975,None,,,,,,,,,,,,,,,,,,,,,,,,,,,,,,,P049,FENCOG,1,Pre,2022_Jun_06_1103,N-Back (New Version 2021),2021.1.4,120.0385084
Conditions/Version_1Pr/twoback(1)_v1.xlsx,New rule: Press 'space' when you see 2-back (i.e. the same letter as the one that appeared 2 letters ago.),p,None,,,,,0,2,2,2,0,1,1,1,,,,,,,,,,,,,,,,,,,,,,,,,,,,,,,,,,,,,,,,,,,1.74,249.5356371,None,251.2776273,None,None,1,,251.2776273,None,253.2845949,None,,,,,,,,,,,,,,,,,,,,,,,,,,,,,,,P049,FENCOG,1,Pre,2022_Jun_06_1103,N-Back (New Version 2021),2021.1.4,120.0385084
Conditions/Version_1Pr/twoback(1)_v1.xlsx,New rule: Press 'space' when you see 2-back (i.e. the same letter as the one that appeared 2 letters ago.),e,space,,,,,0,2,2,2,0,2,2,2,,,,,,,,,,,,,,,,,,,,,,,,,,,,,,,,,,,,,,,,,,,1.665,254.7840597,None,256.4502187,None,space,1,0.4175145,256.4502187,None,256.8779607,None,,,,,,,,,,,,,,,,,,,,,,,,,,,,,,,P049,FENCOG,1,Pre,2022_Jun_06_1103,N-Back (New Version 2021),2021.1.4,120.0385084
Conditions/Version_1Pr/twoback(1)_v1.xlsx,New rule: Press 'space' when you see 2-back (i.e. the same letter as the one that appeared 2 letters ago.),s,None,,,,,0,2,2,2,0,3,3,3,,,,,,,,,,,,,,,,,,,,,,,,,,,,,,,,,,,,,,,,,,,1.19,258.3840892,None,259.580836,None,None,1,,259.580836,None,261.5821992,None,,,,,,,,,,,,,,,,,,,,,,,,,,,,,,,P049,FENCOG,1,Pre,2022_Jun_06_1103,N-Back (New Version 2021),2021.1.4,120.0385084
Conditions/Version_1Pr/twoback(1)_v1.xlsx,New rule: Press 'space' when you see 2-back (i.e. the same letter as the one that appeared 2 letters ago.),S,None,,,,,0,2,2,2,0,4,4,4,,,,,,,,,,,,,,,,,,,,,,,,,,,,,,,,,,,,,,,,,,,1.115,263.0816911,None,264.2052609,None,None,1,,264.2052609,None,266.2053745,None,,,,,,,,,,,,,,,,,,,,,,,,,,,,,,,P049,FENCOG,1,Pre,2022_Jun_06_1103,N-Back (New Version 2021),2021.1.4,120.0385084
Conditions/Version_1Pr/twoback(1)_v1.xlsx,New rule: Press 'space' when you see 2-back (i.e. the same letter as the one that appeared 2 letters ago.),s,space,,,,,0,2,2,2,0,5,5,5,,,,,,,,,,,,,,,,,,,,,,,,,,,,,,,,,,,,,,,,,,,1.64,267.7052563,None,269.3462317,None,space,1,1.0334811,269.3462317,None,270.3878367,None,,,,,,,,,,,,,,,,,,,,,,,,,,,,,,,P049,FENCOG,1,Pre,2022_Jun_06_1103,N-Back (New Version 2021),2021.1.4,120.0385084
Conditions/Version_1Pr/twoback(1)_v1.xlsx,New rule: Press 'space' when you see 2-back (i.e. the same letter as the one that appeared 2 letters ago.),P,None,,,,,0,2,2,2,0,6,6,6,,,,,,,,,,,,,,,,,,,,,,,,,,,,,,,,,,,,,,,,,,,2.015,271.8895613,None,273.9050418,None,None,1,,273.9050418,None,275.9135,None,,,,,,,,,,,,,,,,,,,,,,,,,,,,,,,P049,FENCOG,1,Pre,2022_Jun_06_1103,N-Back (New Version 2021),2021.1.4,120.0385084
Conditions/Version_1Pr/twoback(1)_v1.xlsx,New rule: Press 'space' when you see 2-back (i.e. the same letter as the one that appeared 2 letters ago.),C,None,,,,,0,2,2,2,0,7,7,7,,,,,,,,,,,,,,,,,,,,,,,,,,,,,,,,,,,,,,,,,,,1.29,277.4108096,None,278.702638,None,None,1,,278.702638,None,280.7097897,None,,,,,,,,,,,,,,,,,,,,,,,,,,,,,,,P049,FENCOG,1,Pre,2022_Jun_06_1103,N-Back (New Version 2021),2021.1.4,120.0385084
Conditions/Version_1Pr/twoback(1)_v1.xlsx,New rule: Press 'space' when you see 2-back (i.e. the same letter as the one that appeared 2 letters ago.),x,None,,,,,0,2,2,2,0,8,8,8,,,,,,,,,,,,,,,,,,,,,,,,,,,,,,,,,,,,,,,,,,,1.215,282.2093893,None,283.4305598,None,None,1,,283.4305598,None,285.4333634,None,,,,,,,,,,,,,,,,,,,,,,,,,,,,,,,P049,FENCOG,1,Pre,2022_Jun_06_1103,N-Back (New Version 2021),2021.1.4,120.0385084
Conditions/Version_1Pr/twoback(1)_v1.xlsx,New rule: Press 'space' when you see 2-back (i.e. the same letter as the one that appeared 2 letters ago.),Z,None,,,,,0,2,2,2,0,9,9,9,,,,,,,,,,,,,,,,,,,,,,,,,,,,,,,,,,,,,,,,,,,1.59,286.9329939,None,288.5246861,None,None,1,,288.5246861,None,290.531897,None,,,,,,,,,,,,,,,,,,,,,,,,,,,,,,,P049,FENCOG,1,Pre,2022_Jun_06_1103,N-Back (New Version 2021),2021.1.4,120.0385084
Conditions/Version_1Pr/twoback(1)_v1.xlsx,New rule: Press 'space' when you see 2-back (i.e. the same letter as the one that appeared 2 letters ago.),,,,,,,0,2,2,2,,,,,,,,,,,,,,,,,,,,,,,,,,,,,,,,,,,,,,,,,,,,,,,,,,,,,,,,,,,,,,,,,,,,,,,,,,,,,,,,,,,,,,,,,P049,FENCOG,1,Pre,2022_Jun_06_1103,N-Back (New Version 2021),2021.1.4,120.0385084
Conditions/Version_1Pr/threeback(1)_v1.xlsx,New rule: Press 'space' when you see 3-back (i.e. the same letter as the one that appeared 3 letters ago.),r,None,,,,,0,3,3,3,0,0,0,0,,,,,,,,,,,,,,,,,,,,,,,,,,,,,,,,,292.0546875,None,295.0430221,None,space,0.1685114,295.0430221,None,292.0546875,None,1.29,295.2443624,None,296.5442203,None,None,1,,296.5442203,None,298.5462039,None,,,,,,,,,,,,,,,,,,,,,,,,,,,,,,,P049,FENCOG,1,Pre,2022_Jun_06_1103,N-Back (New Version 2021),2021.1.4,120.0385084
Conditions/Version_1Pr/threeback(1)_v1.xlsx,New rule: Press 'space' when you see 3-back (i.e. the same letter as the one that appeared 3 letters ago.),a,None,,,,,0,3,3,3,0,1,1,1,,,,,,,,,,,,,,,,,,,,,,,,,,,,,,,,,,,,,,,,,,,1.165,300.0454311,None,301.2150832,None,None,1,,301.2150832,None,303.2203977,None,,,,,,,,,,,,,,,,,,,,,,,,,,,,,,,P049,FENCOG,1,Pre,2022_Jun_06_1103,N-Back (New Version 2021),2021.1.4,120.0385084
Conditions/Version_1Pr/threeback(1)_v1.xlsx,New rule: Press 'space' when you see 3-back (i.e. the same letter as the one that appeared 3 letters ago.),t,None,,,,,0,3,3,3,0,2,2,2,,,,,,,,,,,,,,,,,,,,,,,,,,,,,,,,,,,,,,,,,,,1.44,304.71932,None,306.1621306,None,None,1,,306.1621306,None,308.1683277,None,,,,,,,,,,,,,,,,,,,,,,,,,,,,,,,P049,FENCOG,1,Pre,2022_Jun_06_1103,N-Back (New Version 2021),2021.1.4,120.0385084
Conditions/Version_1Pr/threeback(1)_v1.xlsx,New rule: Press 'space' when you see 3-back (i.e. the same letter as the one that appeared 3 letters ago.),r,space,,,,,0,3,3,3,0,3,3,3,,,,,,,,,,,,,,,,,,,,,,,,,,,,,,,,,,,,,,,,,,,1.915,309.6679035,None,311.5844654,None,space,1,0.4591392,311.5844654,None,312.0522357,None,,,,,,,,,,,,,,,,,,,,,,,,,,,,,,,P049,FENCOG,1,Pre,2022_Jun_06_1103,N-Back (New Version 2021),2021.1.4,120.0385084
Conditions/Version_1Pr/threeback(1)_v1.xlsx,New rule: Press 'space' when you see 3-back (i.e. the same letter as the one that appeared 3 letters ago.),a,None,,,,,0,3,3,3,0,4,4,4,,,,,,,,,,,,,,,,,,,,,,,,,,,,,,,,,,,,,,,,,,,1.565,313.5592399,None,315.1265246,None,space,0,1.0691431,315.1265246,None,316.2120089,None,,,,,,,,,,,,,,,,,,,,,,,,,,,,,,,P049,FENCOG,1,Pre,2022_Jun_06_1103,N-Back (New Version 2021),2021.1.4,120.0385084
Conditions/Version_1Pr/threeback(1)_v1.xlsx,New rule: Press 'space' when you see 3-back (i.e. the same letter as the one that appeared 3 letters ago.),Y,None,,,,,0,3,3,3,0,5,5,5,,,,,,,,,,,,,,,,,,,,,,,,,,,,,,,,,,,,,,,,,,,1.54,317.7155583,None,319.2597433,None,None,1,,319.2597433,None,321.2657507,None,,,,,,,,,,,,,,,,,,,,,,,,,,,,,,,P049,FENCOG,1,Pre,2022_Jun_06_1103,N-Back (New Version 2021),2021.1.4,120.0385084
Conditions/Version_1Pr/threeback(1)_v1.xlsx,New rule: Press 'space' when you see 3-back (i.e. the same letter as the one that appeared 3 letters ago.),q,None,,,,,0,3,3,3,0,6,6,6,,,,,,,,,,,,,,,,,,,,,,,,,,,,,,,,,,,,,,,,,,,1.115,322.764115,None,323.8806979,None,None,1,,323.8806979,None,325.8797539,None,,,,,,,,,,,,,,,,,,,,,,,,,,,,,,,P049,FENCOG,1,Pre,2022_Jun_06_1103,N-Back (New Version 2021),2021.1.4,120.0385084
Conditions/Version_1Pr/threeback(1)_v1.xlsx,New rule: Press 'space' when you see 3-back (i.e. the same letter as the one that appeared 3 letters ago.),A,space,,,,,0,3,3,3,0,7,7,7,,,,,,,,,,,,,,,,,,,,,,,,,,,,,,,,,,,,,,,,,,,1.04,327.379173,None,328.4233671,None,space,1,0.708284,328.4233671,None,329.1469142,None,,,,,,,,,,,,,,,,,,,,,,,,,,,,,,,P049,FENCOG,1,Pre,2022_Jun_06_1103,N-Back (New Version 2021),2021.1.4,120.0385084
Conditions/Version_1Pr/threeback(1)_v1.xlsx,New rule: Press 'space' when you see 3-back (i.e. the same letter as the one that appeared 3 letters ago.),y,None,,,,,0,3,3,3,0,8,8,8,,,,,,,,,,,,,,,,,,,,,,,,,,,,,,,,,,,,,,,,,,,1.89,330.6568204,None,332.5547444,None,None,1,,332.5547444,None,334.5605077,None,,,,,,,,,,,,,,,,,,,,,,,,,,,,,,,P049,FENCOG,1,Pre,2022_Jun_06_1103,N-Back (New Version 2021),2021.1.4,120.0385084
Conditions/Version_1Pr/threeback(1)_v1.xlsx,New rule: Press 'space' when you see 3-back (i.e. the same letter as the one that appeared 3 letters ago.),r,None,,,,,0,3,3,3,0,9,9,9,,,,,,,,,,,,,,,,,,,,,,,,,,,,,,,,,,,,,,,,,,,1.14,336.0601653,None,337.2017222,None,None,1,,337.2017222,None,339.2009616,None,,,,,,,,,,,,,,,,,,,,,,,,,,,,,,,P049,FENCOG,1,Pre,2022_Jun_06_1103,N-Back (New Version 2021),2021.1.4,120.0385084
Conditions/Version_1Pr/threeback(1)_v1.xlsx,New rule: Press 'space' when you see 3-back (i.e. the same letter as the one that appeared 3 letters ago.),,,,,,,0,3,3,3,,,,,,,,,,,,,,,,,,,,,,,,,,,,,,,,,,,,,,,,,,,,,,,,,,,,,,,,,,,,,,,,,,,,,,,,,,,,,,,,,,,,,,,,,P049,FENCOG,1,Pre,2022_Jun_06_1103,N-Back (New Version 2021),2021.1.4,120.0385084
,,,,,,,,,,,,,,,,,,,,,,,,,,,,,,,,,,,,,,,,,,,,,,,,,,,,,,,,,,,,,,,,,,,,,,340.7074292,None,space,0.9949872,341.2005494,None,,,,,,,,,,,,,,,,,,,,,,,,,P049,FENCOG,1,Pre,2022_Jun_06_1103,N-Back (New Version 2021),2021.1.4,120.0385084
,,,,,,,,,,,,,,,,,,,,,,,,,,,,,,,,,,,,,,,,,,,,,,,,,,,,,,,,,,,,,,,,,,,,,,,,,,,,342.2227231,None,space,2.5188966,342.7170948,None,,,,,,,,,,,,,,,,,,,P049,FENCOG,1,Pre,2022_Jun_06_1103,N-Back (New Version 2021),2021.1.4,120.0385084
,,,,Conditions/Version_1/zeroback(1)_v1.xlsx,Rule: Press 'space' when you see the letter 'x' or 'X'.,b,None,,,,,,,,,0,0,0,0,0,0,0,0,,,,,,,,,,,,,,,,,,,,,,,,,,,,,,,,,,,,,,,,,,,,,,,,,,,,,,,,,,,345.3502087,None,348.3518185,None,space,3.4597383,348.3518185,None,345.3502087,None,1.351,353.198987,None,None,1,353.198987,None,,P049,FENCOG,1,Pre,2022_Jun_06_1103,N-Back (New Version 2021),2021.1.4,120.0385084
,,,,Conditions/Version_1/zeroback(1)_v1.xlsx,Rule: Press 'space' when you see the letter 'x' or 'X'.,T,None,,,,,,,,,0,0,0,0,0,1,1,1,,,,,,,,,,,,,,,,,,,,,,,,,,,,,,,,,,,,,,,,,,,,,,,,,,,,,,,,,,,,,,,,,,,,,1.9586,357.1629575,None,None,1,357.1629575,None,,P049,FENCOG,1,Pre,2022_Jun_06_1103,N-Back (New Version 2021),2021.1.4,120.0385084
,,,,Conditions/Version_1/zeroback(1)_v1.xlsx,Rule: Press 'space' when you see the letter 'x' or 'X'.,L,None,,,,,,,,,0,0,0,0,0,2,2,2,,,,,,,,,,,,,,,,,,,,,,,,,,,,,,,,,,,,,,,,,,,,,,,,,,,,,,,,,,,,,,,,,,,,,1.3634,360.5376139,None,None,1,360.5376139,None,,P049,FENCOG,1,Pre,2022_Jun_06_1103,N-Back (New Version 2021),2021.1.4,120.0385084
,,,,Conditions/Version_1/zeroback(1)_v1.xlsx,Rule: Press 'space' when you see the letter 'x' or 'X'.,x,space,,,,,,,,,0,0,0,0,0,3,3,3,,,,,,,,,,,,,,,,,,,,,,,,,,,,,,,,,,,,,,,,,,,,,,,,,,,,,,,,,,,,,,,,,,,,,1.2456,363.797201,None,space,1,363.797201,None,1.046752,P049,FENCOG,1,Pre,2022_Jun_06_1103,N-Back (New Version 2021),2021.1.4,120.0385084
,,,,Conditions/Version_1/zeroback(1)_v1.xlsx,Rule: Press 'space' when you see the letter 'x' or 'X'.,o,None,,,,,,,,,0,0,0,0,0,4,4,4,,,,,,,,,,,,,,,,,,,,,,,,,,,,,,,,,,,,,,,,,,,,,,,,,,,,,,,,,,,,,,,,,,,,,1.2828,367.0841158,None,None,1,367.0841158,None,,P049,FENCOG,1,Pre,2022_Jun_06_1103,N-Back (New Version 2021),2021.1.4,120.0385084
,,,,Conditions/Version_1/zeroback(1)_v1.xlsx,Rule: Press 'space' when you see the letter 'x' or 'X'.,P,None,,,,,,,,,0,0,0,0,0,5,5,5,,,,,,,,,,,,,,,,,,,,,,,,,,,,,,,,,,,,,,,,,,,,,,,,,,,,,,,,,,,,,,,,,,,,,1.8532,370.9466809,None,None,1,370.9466809,None,,P049,FENCOG,1,Pre,2022_Jun_06_1103,N-Back (New Version 2021),2021.1.4,120.0385084
,,,,Conditions/Version_1/zeroback(1)_v1.xlsx,Rule: Press 'space' when you see the letter 'x' or 'X'.,X,space,,,,,,,,,0,0,0,0,0,6,6,6,,,,,,,,,,,,,,,,,,,,,,,,,,,,,,,,,,,,,,,,,,,,,,,,,,,,,,,,,,,,,,,,,,,,,1.382,374.3319686,None,space,1,374.3319686,None,0.4397027,P049,FENCOG,1,Pre,2022_Jun_06_1103,N-Back (New Version 2021),2021.1.4,120.0385084
,,,,Conditions/Version_1/zeroback(1)_v1.xlsx,Rule: Press 'space' when you see the letter 'x' or 'X'.,n,None,,,,,,,,,0,0,0,0,0,7,7,7,,,,,,,,,,,,,,,,,,,,,,,,,,,,,,,,,,,,,,,,,,,,,,,,,,,,,,,,,,,,,,,,,,,,,1.3014,377.6426013,None,None,1,377.6426013,None,,P049,FENCOG,1,Pre,2022_Jun_06_1103,N-Back (New Version 2021),2021.1.4,120.0385084
,,,,Conditions/Version_1/zeroback(1)_v1.xlsx,Rule: Press 'space' when you see the letter 'x' or 'X'.,M,None,,,,,,,,,0,0,0,0,0,8,8,8,,,,,,,,,,,,,,,,,,,,,,,,,,,,,,,,,,,,,,,,,,,,,,,,,,,,,,,,,,,,,,,,,,,,,1.0348,380.6832099,None,None,1,380.6832099,None,,P049,FENCOG,1,Pre,2022_Jun_06_1103,N-Back (New Version 2021),2021.1.4,120.0385084
,,,,Conditions/Version_1/zeroback(1)_v1.xlsx,Rule: Press 'space' when you see the letter 'x' or 'X'.,a,None,,,,,,,,,0,0,0,0,0,9,9,9,,,,,,,,,,,,,,,,,,,,,,,,,,,,,,,,,,,,,,,,,,,,,,,,,,,,,,,,,,,,,,,,,,,,,1.6982,384.3881903,None,None,1,384.3881903,None,,P049,FENCOG,1,Pre,2022_Jun_06_1103,N-Back (New Version 2021),2021.1.4,120.0385084
,,,,Conditions/Version_1/zeroback(1)_v1.xlsx,Rule: Press 'space' when you see the letter 'x' or 'X'.,,,,,,,,,,,0,0,0,0,,,,,,,,,,,,,,,,,,,,,,,,,,,,,,,,,,,,,,,,,,,,,,,,,,,,,,,,,,,,,,,,,,,,,,,,,,,,,,,,,P049,FENCOG,1,Pre,2022_Jun_06_1103,N-Back (New Version 2021),2021.1.4,120.0385084
,,,,Conditions/Version_1/oneback(1)_v1.xlsx,New rule: Press 'space' when you see 1-back (i.e. the same letter as the one that appeared 1 letter ago.),b,None,,,,,,,,,0,1,1,1,0,0,0,0,,,,,,,,,,,,,,,,,,,,,,,,,,,,,,,,,,,,,,,,,,,,,,,,,,,,,,,,,,,386.4185127,None,389.4049476,None,space,0.7747875,389.4049476,None,386.4185127,None,1.6796,391.8887248,None,None,1,391.8887248,None,,P049,FENCOG,1,Pre,2022_Jun_06_1103,N-Back (New Version 2021),2021.1.4,120.0385084
,,,,Conditions/Version_1/oneback(1)_v1.xlsx,New rule: Press 'space' when you see 1-back (i.e. the same letter as the one that appeared 1 letter ago.),p,None,,,,,,,,,0,1,1,1,0,1,1,1,,,,,,,,,,,,,,,,,,,,,,,,,,,,,,,,,,,,,,,,,,,,,,,,,,,,,,,,,,,,,,,,,,,,,1.7354,395.6340575,None,None,1,395.6340575,None,,P049,FENCOG,1,Pre,2022_Jun_06_1103,N-Back (New Version 2021),2021.1.4,120.0385084
,,,,Conditions/Version_1/oneback(1)_v1.xlsx,New rule: Press 'space' when you see 1-back (i.e. the same letter as the one that appeared 1 letter ago.),M,None,,,,,,,,,0,1,1,1,0,2,2,2,,,,,,,,,,,,,,,,,,,,,,,,,,,,,,,,,,,,,,,,,,,,,,,,,,,,,,,,,,,,,,,,,,,,,1.9648,399.6080381,None,None,1,399.6080381,None,,P049,FENCOG,1,Pre,2022_Jun_06_1103,N-Back (New Version 2021),2021.1.4,120.0385084
,,,,Conditions/Version_1/oneback(1)_v1.xlsx,New rule: Press 'space' when you see 1-back (i.e. the same letter as the one that appeared 1 letter ago.),M,space,,,,,,,,,0,1,1,1,0,3,3,3,,,,,,,,,,,,,,,,,,,,,,,,,,,,,,,,,,,,,,,,,,,,,,,,,,,,,,,,,,,,,,,,,,,,,1.0472,402.657171,None,space,1,402.657171,None,0.4664122,P049,FENCOG,1,Pre,2022_Jun_06_1103,N-Back (New Version 2021),2021.1.4,120.0385084
,,,,Conditions/Version_1/oneback(1)_v1.xlsx,New rule: Press 'space' when you see 1-back (i.e. the same letter as the one that appeared 1 letter ago.),n,None,,,,,,,,,0,1,1,1,0,4,4,4,,,,,,,,,,,,,,,,,,,,,,,,,,,,,,,,,,,,,,,,,,,,,,,,,,,,,,,,,,,,,,,,,,,,,1.1464,405.8124544,None,None,1,405.8124544,None,,P049,FENCOG,1,Pre,2022_Jun_06_1103,N-Back (New Version 2021),2021.1.4,120.0385084
,,,,Conditions/Version_1/oneback(1)_v1.xlsx,New rule: Press 'space' when you see 1-back (i.e. the same letter as the one that appeared 1 letter ago.),g,None,,,,,,,,,0,1,1,1,0,5,5,5,,,,,,,,,,,,,,,,,,,,,,,,,,,,,,,,,,,,,,,,,,,,,,,,,,,,,,,,,,,,,,,,,,,,,1.1402,408.9594518,None,None,1,408.9594518,None,,P049,FENCOG,1,Pre,2022_Jun_06_1103,N-Back (New Version 2021),2021.1.4,120.0385084
,,,,Conditions/Version_1/oneback(1)_v1.xlsx,New rule: Press 'space' when you see 1-back (i.e. the same letter as the one that appeared 1 letter ago.),P,None,,,,,,,,,0,1,1,1,0,6,6,6,,,,,,,,,,,,,,,,,,,,,,,,,,,,,,,,,,,,,,,,,,,,,,,,,,,,,,,,,,,,,,,,,,,,,1.6858,412.6599054,None,None,1,412.6599054,None,,P049,FENCOG,1,Pre,2022_Jun_06_1103,N-Back (New Version 2021),2021.1.4,120.0385084
,,,,Conditions/Version_1/oneback(1)_v1.xlsx,New rule: Press 'space' when you see 1-back (i.e. the same letter as the one that appeared 1 letter ago.),o,None,,,,,,,,,0,1,1,1,0,7,7,7,,,,,,,,,,,,,,,,,,,,,,,,,,,,,,,,,,,,,,,,,,,,,,,,,,,,,,,,,,,,,,,,,,,,,1.3696,416.0363852,None,None,1,416.0363852,None,,P049,FENCOG,1,Pre,2022_Jun_06_1103,N-Back (New Version 2021),2021.1.4,120.0385084
,,,,Conditions/Version_1/oneback(1)_v1.xlsx,New rule: Press 'space' when you see 1-back (i.e. the same letter as the one that appeared 1 letter ago.),f,None,,,,,,,,,0,1,1,1,0,8,8,8,,,,,,,,,,,,,,,,,,,,,,,,,,,,,,,,,,,,,,,,,,,,,,,,,,,,,,,,,,,,,,,,,,,,,1.8284,419.8793639,None,None,1,419.8793639,None,,P049,FENCOG,1,Pre,2022_Jun_06_1103,N-Back (New Version 2021),2021.1.4,120.0385084
,,,,Conditions/Version_1/oneback(1)_v1.xlsx,New rule: Press 'space' when you see 1-back (i.e. the same letter as the one that appeared 1 letter ago.),F,space,,,,,,,,,0,1,1,1,0,9,9,9,,,,,,,,,,,,,,,,,,,,,,,,,,,,,,,,,,,,,,,,,,,,,,,,,,,,,,,,,,,,,,,,,,,,,1.878,423.759833,None,space,1,423.759833,None,0.3957208,P049,FENCOG,1,Pre,2022_Jun_06_1103,N-Back (New Version 2021),2021.1.4,120.0385084
,,,,Conditions/Version_1/oneback(1)_v1.xlsx,New rule: Press 'space' when you see 1-back (i.e. the same letter as the one that appeared 1 letter ago.),,,,,,,,,,,0,1,1,1,,,,,,,,,,,,,,,,,,,,,,,,,,,,,,,,,,,,,,,,,,,,,,,,,,,,,,,,,,,,,,,,,,,,,,,,,,,,,,,,,P049,FENCOG,1,Pre,2022_Jun_06_1103,N-Back (New Version 2021),2021.1.4,120.0385084
,,,,Conditions/Version_1/twoback(1)_v1.xlsx,New rule: Press 'space' when you see 2-back (i.e. the same letter as the one that appeared 2 letters ago.),b,None,,,,,,,,,0,2,2,2,0,0,0,0,,,,,,,,,,,,,,,,,,,,,,,,,,,,,,,,,,,,,,,,,,,,,,,,,,,,,,,,,,,425.8014001,None,428.7849979,None,space,1.4664662,428.7849979,None,425.8014001,None,1.1774,431.4595548,None,None,1,431.4595548,None,,P049,FENCOG,1,Pre,2022_Jun_06_1103,N-Back (New Version 2021),2021.1.4,120.0385084
,,,,Conditions/Version_1/twoback(1)_v1.xlsx,New rule: Press 'space' when you see 2-back (i.e. the same letter as the one that appeared 2 letters ago.),h,None,,,,,,,,,0,2,2,2,0,1,1,1,,,,,,,,,,,,,,,,,,,,,,,,,,,,,,,,,,,,,,,,,,,,,,,,,,,,,,,,,,,,,,,,,,,,,1.2828,434.7483814,None,None,1,434.7483814,None,,P049,FENCOG,1,Pre,2022_Jun_06_1103,N-Back (New Version 2021),2021.1.4,120.0385084
,,,,Conditions/Version_1/twoback(1)_v1.xlsx,New rule: Press 'space' when you see 2-back (i.e. the same letter as the one that appeared 2 letters ago.),j,None,,,,,,,,,0,2,2,2,0,2,2,2,,,,,,,,,,,,,,,,,,,,,,,,,,,,,,,,,,,,,,,,,,,,,,,,,,,,,,,,,,,,,,,,,,,,,1.1154,437.8743531,None,None,1,437.8743531,None,,P049,FENCOG,1,Pre,2022_Jun_06_1103,N-Back (New Version 2021),2021.1.4,120.0385084
,,,,Conditions/Version_1/twoback(1)_v1.xlsx,New rule: Press 'space' when you see 2-back (i.e. the same letter as the one that appeared 2 letters ago.),H,space,,,,,,,,,0,2,2,2,0,3,3,3,,,,,,,,,,,,,,,,,,,,,,,,,,,,,,,,,,,,,,,,,,,,,,,,,,,,,,,,,,,,,,,,,,,,,1.7912,441.6734551,None,space,1,441.6734551,None,0.4820862,P049,FENCOG,1,Pre,2022_Jun_06_1103,N-Back (New Version 2021),2021.1.4,120.0385084
,,,,Conditions/Version_1/twoback(1)_v1.xlsx,New rule: Press 'space' when you see 2-back (i.e. the same letter as the one that appeared 2 letters ago.),p,None,,,,,,,,,0,2,2,2,0,4,4,4,,,,,,,,,,,,,,,,,,,,,,,,,,,,,,,,,,,,,,,,,,,,,,,,,,,,,,,,,,,,,,,,,,,,,1.5494,445.2281901,None,None,1,445.2281901,None,,P049,FENCOG,1,Pre,2022_Jun_06_1103,N-Back (New Version 2021),2021.1.4,120.0385084
,,,,Conditions/Version_1/twoback(1)_v1.xlsx,New rule: Press 'space' when you see 2-back (i.e. the same letter as the one that appeared 2 letters ago.),p,None,,,,,,,,,0,2,2,2,0,5,5,5,,,,,,,,,,,,,,,,,,,,,,,,,,,,,,,,,,,,,,,,,,,,,,,,,,,,,,,,,,,,,,,,,,,,,1.4068,448.6353034,None,None,1,448.6353034,None,,P049,FENCOG,1,Pre,2022_Jun_06_1103,N-Back (New Version 2021),2021.1.4,120.0385084
,,,,Conditions/Version_1/twoback(1)_v1.xlsx,New rule: Press 'space' when you see 2-back (i.e. the same letter as the one that appeared 2 letters ago.),w,None,,,,,,,,,0,2,2,2,0,6,6,6,,,,,,,,,,,,,,,,,,,,,,,,,,,,,,,,,,,,,,,,,,,,,,,,,,,,,,,,,,,,,,,,,,,,,1.32,451.9600666,None,None,1,451.9600666,None,,P049,FENCOG,1,Pre,2022_Jun_06_1103,N-Back (New Version 2021),2021.1.4,120.0385084
,,,,Conditions/Version_1/twoback(1)_v1.xlsx,New rule: Press 'space' when you see 2-back (i.e. the same letter as the one that appeared 2 letters ago.),R,None,,,,,,,,,0,2,2,2,0,7,7,7,,,,,,,,,,,,,,,,,,,,,,,,,,,,,,,,,,,,,,,,,,,,,,,,,,,,,,,,,,,,,,,,,,,,,1.723,455.6972158,None,None,1,455.6972158,None,,P049,FENCOG,1,Pre,2022_Jun_06_1103,N-Back (New Version 2021),2021.1.4,120.0385084
,,,,Conditions/Version_1/twoback(1)_v1.xlsx,New rule: Press 'space' when you see 2-back (i.e. the same letter as the one that appeared 2 letters ago.),a,None,,,,,,,,,0,2,2,2,0,8,8,8,,,,,,,,,,,,,,,,,,,,,,,,,,,,,,,,,,,,,,,,,,,,,,,,,,,,,,,,,,,,,,,,,,,,,1.0658,458.7664551,None,None,1,458.7664551,None,,P049,FENCOG,1,Pre,2022_Jun_06_1103,N-Back (New Version 2021),2021.1.4,120.0385084
,,,,Conditions/Version_1/twoback(1)_v1.xlsx,New rule: Press 'space' when you see 2-back (i.e. the same letter as the one that appeared 2 letters ago.),r,space,,,,,,,,,0,2,2,2,0,9,9,9,,,,,,,,,,,,,,,,,,,,,,,,,,,,,,,,,,,,,,,,,,,,,,,,,,,,,,,,,,,,,,,,,,,,,1.0844,461.8644737,None,space,1,461.8644737,None,0.5311644,P049,FENCOG,1,Pre,2022_Jun_06_1103,N-Back (New Version 2021),2021.1.4,120.0385084
,,,,Conditions/Version_1/twoback(1)_v1.xlsx,New rule: Press 'space' when you see 2-back (i.e. the same letter as the one that appeared 2 letters ago.),,,,,,,,,,,0,2,2,2,,,,,,,,,,,,,,,,,,,,,,,,,,,,,,,,,,,,,,,,,,,,,,,,,,,,,,,,,,,,,,,,,,,,,,,,,,,,,,,,,P049,FENCOG,1,Pre,2022_Jun_06_1103,N-Back (New Version 2021),2021.1.4,120.0385084
,,,,Conditions/Version_1/threeback(1)_v1.xlsx,New rule: Press 'space' when you see 3-back (i.e. the same letter as the one that appeared 3 letters ago.),r,None,,,,,,,,,0,3,3,3,0,0,0,0,,,,,,,,,,,,,,,,,,,,,,,,,,,,,,,,,,,,,,,,,,,,,,,,,,,,,,,,,,,463.886054,None,466.8731777,None,space,0.5784819,466.8731777,None,463.886054,None,1.1712,468.6540678,None,None,1,468.6540678,None,,P049,FENCOG,1,Pre,2022_Jun_06_1103,N-Back (New Version 2021),2021.1.4,120.0385084
,,,,Conditions/Version_1/threeback(1)_v1.xlsx,New rule: Press 'space' when you see 3-back (i.e. the same letter as the one that appeared 3 letters ago.),o,None,,,,,,,,,0,3,3,3,0,1,1,1,,,,,,,,,,,,,,,,,,,,,,,,,,,,,,,,,,,,,,,,,,,,,,,,,,,,,,,,,,,,,,,,,,,,,1.1278,471.7877665,None,None,1,471.7877665,None,,P049,FENCOG,1,Pre,2022_Jun_06_1103,N-Back (New Version 2021),2021.1.4,120.0385084
,,,,Conditions/Version_1/threeback(1)_v1.xlsx,New rule: Press 'space' when you see 3-back (i.e. the same letter as the one that appeared 3 letters ago.),P,None,,,,,,,,,0,3,3,3,0,2,2,2,,,,,,,,,,,,,,,,,,,,,,,,,,,,,,,,,,,,,,,,,,,,,,,,,,,,,,,,,,,,,,,,,,,,,1.2084,475.009323,None,None,1,475.009323,None,,P049,FENCOG,1,Pre,2022_Jun_06_1103,N-Back (New Version 2021),2021.1.4,120.0385084
,,,,Conditions/Version_1/threeback(1)_v1.xlsx,New rule: Press 'space' when you see 3-back (i.e. the same letter as the one that appeared 3 letters ago.),R,space,,,,,,,,,0,3,3,3,0,3,3,3,,,,,,,,,,,,,,,,,,,,,,,,,,,,,,,,,,,,,,,,,,,,,,,,,,,,,,,,,,,,,,,,,,,,,1.6982,478.7097152,None,None,0,478.7097152,None,,P049,FENCOG,1,Pre,2022_Jun_06_1103,N-Back (New Version 2021),2021.1.4,120.0385084
,,,,Conditions/Version_1/threeback(1)_v1.xlsx,New rule: Press 'space' when you see 3-back (i.e. the same letter as the one that appeared 3 letters ago.),p,None,,,,,,,,,0,3,3,3,0,4,4,4,,,,,,,,,,,,,,,,,,,,,,,,,,,,,,,,,,,,,,,,,,,,,,,,,,,,,,,,,,,,,,,,,,,,,1.2642,481.983911,None,None,1,481.983911,None,,P049,FENCOG,1,Pre,2022_Jun_06_1103,N-Back (New Version 2021),2021.1.4,120.0385084
,,,,Conditions/Version_1/threeback(1)_v1.xlsx,New rule: Press 'space' when you see 3-back (i.e. the same letter as the one that appeared 3 letters ago.),E,None,,,,,,,,,0,3,3,3,0,5,5,5,,,,,,,,,,,,,,,,,,,,,,,,,,,,,,,,,,,,,,,,,,,,,,,,,,,,,,,,,,,,,,,,,,,,,1.9152,485.8991568,None,None,1,485.8991568,None,,P049,FENCOG,1,Pre,2022_Jun_06_1103,N-Back (New Version 2021),2021.1.4,120.0385084
,,,,Conditions/Version_1/threeback(1)_v1.xlsx,New rule: Press 'space' when you see 3-back (i.e. the same letter as the one that appeared 3 letters ago.),e,None,,,,,,,,,0,3,3,3,0,6,6,6,,,,,,,,,,,,,,,,,,,,,,,,,,,,,,,,,,,,,,,,,,,,,,,,,,,,,,,,,,,,,,,,,,,,,1.9462,489.8489564,None,None,1,489.8489564,None,,P049,FENCOG,1,Pre,2022_Jun_06_1103,N-Back (New Version 2021),2021.1.4,120.0385084
,,,,Conditions/Version_1/threeback(1)_v1.xlsx,New rule: Press 'space' when you see 3-back (i.e. the same letter as the one that appeared 3 letters ago.),m,None,,,,,,,,,0,3,3,3,0,7,7,7,,,,,,,,,,,,,,,,,,,,,,,,,,,,,,,,,,,,,,,,,,,,,,,,,,,,,,,,,,,,,,,,,,,,,1.4502,493.3076566,None,None,1,493.3076566,None,,P049,FENCOG,1,Pre,2022_Jun_06_1103,N-Back (New Version 2021),2021.1.4,120.0385084
,,,,Conditions/Version_1/threeback(1)_v1.xlsx,New rule: Press 'space' when you see 3-back (i.e. the same letter as the one that appeared 3 letters ago.),n,None,,,,,,,,,0,3,3,3,0,8,8,8,,,,,,,,,,,,,,,,,,,,,,,,,,,,,,,,,,,,,,,,,,,,,,,,,,,,,,,,,,,,,,,,,,,,,1.0596,496.3856404,None,None,1,496.3856404,None,,P049,FENCOG,1,Pre,2022_Jun_06_1103,N-Back (New Version 2021),2021.1.4,120.0385084
,,,,Conditions/Version_1/threeback(1)_v1.xlsx,New rule: Press 'space' when you see 3-back (i.e. the same letter as the one that appeared 3 letters ago.),e,space,,,,,,,,,0,3,3,3,0,9,9,9,,,,,,,,,,,,,,,,,,,,,,,,,,,,,,,,,,,,,,,,,,,,,,,,,,,,,,,,,,,,,,,,,,,,,1.351,499.7512656,None,space,1,499.7512656,None,0.644496,P049,FENCOG,1,Pre,2022_Jun_06_1103,N-Back (New Version 2021),2021.1.4,120.0385084
,,,,Conditions/Version_1/threeback(1)_v1.xlsx,New rule: Press 'space' when you see 3-back (i.e. the same letter as the one that appeared 3 letters ago.),,,,,,,,,,,0,3,3,3,,,,,,,,,,,,,,,,,,,,,,,,,,,,,,,,,,,,,,,,,,,,,,,,,,,,,,,,,,,,,,,,,,,,,,,,,,,,,,,,,P049,FENCOG,1,Pre,2022_Jun_06_1103,N-Back (New Version 2021),2021.1.4,120.0385084
,,,,Conditions/Version_1/oneback(2)_v1.xlsx,New rule: Press 'space' when you see 1-back (i.e. the same letter as the one that appeared 1 letter ago.),q,None,,,,,,,,,0,4,4,4,0,0,0,0,,,,,,,,,,,,,,,,,,,,,,,,,,,,,,,,,,,,,,,,,,,,,,,,,,,,,,,,,,,501.7756513,None,504.7633072,None,space,1.6322292,504.7633072,None,501.7756513,None,1.909,508.3339805,None,None,1,508.3339805,None,,P049,FENCOG,1,Pre,2022_Jun_06_1103,N-Back (New Version 2021),2021.1.4,120.0385084
,,,,Conditions/Version_1/oneback(2)_v1.xlsx,New rule: Press 'space' when you see 1-back (i.e. the same letter as the one that appeared 1 letter ago.),Q,space,,,,,,,,,0,4,4,4,0,1,1,1,,,,,,,,,,,,,,,,,,,,,,,,,,,,,,,,,,,,,,,,,,,,,,,,,,,,,,,,,,,,,,,,,,,,,1.413,511.7546936,None,space,1,511.7546936,None,1.4567822,P049,FENCOG,1,Pre,2022_Jun_06_1103,N-Back (New Version 2021),2021.1.4,120.0385084
,,,,Conditions/Version_1/oneback(2)_v1.xlsx,New rule: Press 'space' when you see 1-back (i.e. the same letter as the one that appeared 1 letter ago.),P,None,,,,,,,,,0,4,4,4,0,2,2,2,,,,,,,,,,,,,,,,,,,,,,,,,,,,,,,,,,,,,,,,,,,,,,,,,,,,,,,,,,,,,,,,,,,,,1.661,515.4242767,None,None,1,515.4242767,None,,P049,FENCOG,1,Pre,2022_Jun_06_1103,N-Back (New Version 2021),2021.1.4,120.0385084
,,,,Conditions/Version_1/oneback(2)_v1.xlsx,New rule: Press 'space' when you see 1-back (i.e. the same letter as the one that appeared 1 letter ago.),o,None,,,,,,,,,0,4,4,4,0,3,3,3,,,,,,,,,,,,,,,,,,,,,,,,,,,,,,,,,,,,,,,,,,,,,,,,,,,,,,,,,,,,,,,,,,,,,1.4936,518.9387161,None,None,1,518.9387161,None,,P049,FENCOG,1,Pre,2022_Jun_06_1103,N-Back (New Version 2021),2021.1.4,120.0385084
,,,,Conditions/Version_1/oneback(2)_v1.xlsx,New rule: Press 'space' when you see 1-back (i.e. the same letter as the one that appeared 1 letter ago.),m,None,,,,,,,,,0,4,4,4,0,4,4,4,,,,,,,,,,,,,,,,,,,,,,,,,,,,,,,,,,,,,,,,,,,,,,,,,,,,,,,,,,,,,,,,,,,,,1.5246,522.4678066,None,None,1,522.4678066,None,,P049,FENCOG,1,Pre,2022_Jun_06_1103,N-Back (New Version 2021),2021.1.4,120.0385084
,,,,Conditions/Version_1/oneback(2)_v1.xlsx,New rule: Press 'space' when you see 1-back (i.e. the same letter as the one that appeared 1 letter ago.),Z,None,,,,,,,,,0,4,4,4,0,5,5,5,,,,,,,,,,,,,,,,,,,,,,,,,,,,,,,,,,,,,,,,,,,,,,,,,,,,,,,,,,,,,,,,,,,,,1.0162,525.487449,None,None,1,525.487449,None,,P049,FENCOG,1,Pre,2022_Jun_06_1103,N-Back (New Version 2021),2021.1.4,120.0385084
,,,,Conditions/Version_1/oneback(2)_v1.xlsx,New rule: Press 'space' when you see 1-back (i.e. the same letter as the one that appeared 1 letter ago.),c,None,,,,,,,,,0,4,4,4,0,6,6,6,,,,,,,,,,,,,,,,,,,,,,,,,,,,,,,,,,,,,,,,,,,,,,,,,,,,,,,,,,,,,,,,,,,,,1.5184,529.011748,None,None,1,529.011748,None,,P049,FENCOG,1,Pre,2022_Jun_06_1103,N-Back (New Version 2021),2021.1.4,120.0385084
,,,,Conditions/Version_1/oneback(2)_v1.xlsx,New rule: Press 'space' when you see 1-back (i.e. the same letter as the one that appeared 1 letter ago.),c,space,,,,,,,,,0,4,4,4,0,7,7,7,,,,,,,,,,,,,,,,,,,,,,,,,,,,,,,,,,,,,,,,,,,,,,,,,,,,,,,,,,,,,,,,,,,,,1.2456,532.2607027,None,space,1,532.2607027,None,0.5908682,P049,FENCOG,1,Pre,2022_Jun_06_1103,N-Back (New Version 2021),2021.1.4,120.0385084
,,,,Conditions/Version_1/oneback(2)_v1.xlsx,New rule: Press 'space' when you see 1-back (i.e. the same letter as the one that appeared 1 letter ago.),P,None,,,,,,,,,0,4,4,4,0,8,8,8,,,,,,,,,,,,,,,,,,,,,,,,,,,,,,,,,,,,,,,,,,,,,,,,,,,,,,,,,,,,,,,,,,,,,1.4378,535.7019682,None,None,1,535.7019682,None,,P049,FENCOG,1,Pre,2022_Jun_06_1103,N-Back (New Version 2021),2021.1.4,120.0385084
,,,,Conditions/Version_1/oneback(2)_v1.xlsx,New rule: Press 'space' when you see 1-back (i.e. the same letter as the one that appeared 1 letter ago.),p,space,,,,,,,,,0,4,4,4,0,9,9,9,,,,,,,,,,,,,,,,,,,,,,,,,,,,,,,,,,,,,,,,,,,,,,,,,,,,,,,,,,,,,,,,,,,,,1.9338,539.6417531,None,space,1,539.6417531,None,0.6017009,P049,FENCOG,1,Pre,2022_Jun_06_1103,N-Back (New Version 2021),2021.1.4,120.0385084
,,,,Conditions/Version_1/oneback(2)_v1.xlsx,New rule: Press 'space' when you see 1-back (i.e. the same letter as the one that appeared 1 letter ago.),,,,,,,,,,,0,4,4,4,,,,,,,,,,,,,,,,,,,,,,,,,,,,,,,,,,,,,,,,,,,,,,,,,,,,,,,,,,,,,,,,,,,,,,,,,,,,,,,,,P049,FENCOG,1,Pre,2022_Jun_06_1103,N-Back (New Version 2021),2021.1.4,120.0385084
,,,,Conditions/Version_1/zeroback(2)_v1.xlsx,New rule: Press 'space' when you see the letter 'x' or 'X'.,p,None,,,,,,,,,0,5,5,5,0,0,0,0,,,,,,,,,,,,,,,,,,,,,,,,,,,,,,,,,,,,,,,,,,,,,,,,,,,,,,,,,,,541.6623699,None,544.6498786,None,space,0.2495932,544.6498786,None,541.6623699,None,1.6796,546.6064467,None,None,1,546.6064467,None,,P049,FENCOG,1,Pre,2022_Jun_06_1103,N-Back (New Version 2021),2021.1.4,120.0385084
,,,,Conditions/Version_1/zeroback(2)_v1.xlsx,New rule: Press 'space' when you see the letter 'x' or 'X'.,L,None,,,,,,,,,0,5,5,5,0,1,1,1,,,,,,,,,,,,,,,,,,,,,,,,,,,,,,,,,,,,,,,,,,,,,,,,,,,,,,,,,,,,,,,,,,,,,1.8966,550.5052261,None,None,1,550.5052261,None,,P049,FENCOG,1,Pre,2022_Jun_06_1103,N-Back (New Version 2021),2021.1.4,120.0385084
,,,,Conditions/Version_1/zeroback(2)_v1.xlsx,New rule: Press 'space' when you see the letter 'x' or 'X'.,G,None,,,,,,,,,0,5,5,5,0,2,2,2,,,,,,,,,,,,,,,,,,,,,,,,,,,,,,,,,,,,,,,,,,,,,,,,,,,,,,,,,,,,,,,,,,,,,1.3758,553.8884974,None,None,1,553.8884974,None,,P049,FENCOG,1,Pre,2022_Jun_06_1103,N-Back (New Version 2021),2021.1.4,120.0385084
,,,,Conditions/Version_1/zeroback(2)_v1.xlsx,New rule: Press 'space' when you see the letter 'x' or 'X'.,y,None,,,,,,,,,0,5,5,5,0,3,3,3,,,,,,,,,,,,,,,,,,,,,,,,,,,,,,,,,,,,,,,,,,,,,,,,,,,,,,,,,,,,,,,,,,,,,1.8222,557.7206875,None,None,1,557.7206875,None,,P049,FENCOG,1,Pre,2022_Jun_06_1103,N-Back (New Version 2021),2021.1.4,120.0385084
,,,,Conditions/Version_1/zeroback(2)_v1.xlsx,New rule: Press 'space' when you see the letter 'x' or 'X'.,Y,None,,,,,,,,,0,5,5,5,0,4,4,4,,,,,,,,,,,,,,,,,,,,,,,,,,,,,,,,,,,,,,,,,,,,,,,,,,,,,,,,,,,,,,,,,,,,,1.1278,560.8604262,None,None,1,560.8604262,None,,P049,FENCOG,1,Pre,2022_Jun_06_1103,N-Back (New Version 2021),2021.1.4,120.0385084
,,,,Conditions/Version_1/zeroback(2)_v1.xlsx,New rule: Press 'space' when you see the letter 'x' or 'X'.,W,None,,,,,,,,,0,5,5,5,0,5,5,5,,,,,,,,,,,,,,,,,,,,,,,,,,,,,,,,,,,,,,,,,,,,,,,,,,,,,,,,,,,,,,,,,,,,,1.3696,564.2357453,None,None,1,564.2357453,None,,P049,FENCOG,1,Pre,2022_Jun_06_1103,N-Back (New Version 2021),2021.1.4,120.0385084
,,,,Conditions/Version_1/zeroback(2)_v1.xlsx,New rule: Press 'space' when you see the letter 'x' or 'X'.,x,space,,,,,,,,,0,5,5,5,0,6,6,6,,,,,,,,,,,,,,,,,,,,,,,,,,,,,,,,,,,,,,,,,,,,,,,,,,,,,,,,,,,,,,,,,,,,,1.1402,567.3834706,None,space,1,567.3834706,None,0.4678919,P049,FENCOG,1,Pre,2022_Jun_06_1103,N-Back (New Version 2021),2021.1.4,120.0385084
,,,,Conditions/Version_1/zeroback(2)_v1.xlsx,New rule: Press 'space' when you see the letter 'x' or 'X'.,X,space,,,,,,,,,0,5,5,5,0,7,7,7,,,,,,,,,,,,,,,,,,,,,,,,,,,,,,,,,,,,,,,,,,,,,,,,,,,,,,,,,,,,,,,,,,,,,1.723,571.1084494,None,space,1,571.1084494,None,0.6551025,P049,FENCOG,1,Pre,2022_Jun_06_1103,N-Back (New Version 2021),2021.1.4,120.0385084
,,,,Conditions/Version_1/zeroback(2)_v1.xlsx,New rule: Press 'space' when you see the letter 'x' or 'X'.,p,None,,,,,,,,,0,5,5,5,0,8,8,8,,,,,,,,,,,,,,,,,,,,,,,,,,,,,,,,,,,,,,,,,,,,,,,,,,,,,,,,,,,,,,,,,,,,,1.9648,575.0825762,None,None,1,575.0825762,None,,P049,FENCOG,1,Pre,2022_Jun_06_1103,N-Back (New Version 2021),2021.1.4,120.0385084
,,,,Conditions/Version_1/zeroback(2)_v1.xlsx,New rule: Press 'space' when you see the letter 'x' or 'X'.,h,None,,,,,,,,,0,5,5,5,0,9,9,9,,,,,,,,,,,,,,,,,,,,,,,,,,,,,,,,,,,,,,,,,,,,,,,,,,,,,,,,,,,,,,,,,,,,,1.5556,578.6468957,None,None,1,578.6468957,None,,P049,FENCOG,1,Pre,2022_Jun_06_1103,N-Back (New Version 2021),2021.1.4,120.0385084
,,,,Conditions/Version_1/zeroback(2)_v1.xlsx,New rule: Press 'space' when you see the letter 'x' or 'X'.,,,,,,,,,,,0,5,5,5,,,,,,,,,,,,,,,,,,,,,,,,,,,,,,,,,,,,,,,,,,,,,,,,,,,,,,,,,,,,,,,,,,,,,,,,,,,,,,,,,P049,FENCOG,1,Pre,2022_Jun_06_1103,N-Back (New Version 2021),2021.1.4,120.0385084
,,,,Conditions/Version_1/threeback(2)_v1.xlsx,New rule: Press 'space' when you see 3-back (i.e. the same letter as the one that appeared 3 letters ago.),q,None,,,,,,,,,0,6,6,6,0,0,0,0,,,,,,,,,,,,,,,,,,,,,,,,,,,,,,,,,,,,,,,,,,,,,,,,,,,,,,,,,,,580.6694226,None,583.6562811,None,space,0.9951805,583.6562811,None,580.6694226,None,1.2518,585.9368985,None,None,1,585.9368985,None,,P049,FENCOG,1,Pre,2022_Jun_06_1103,N-Back (New Version 2021),2021.1.4,120.0385084
,,,,Conditions/Version_1/threeback(2)_v1.xlsx,New rule: Press 'space' when you see 3-back (i.e. the same letter as the one that appeared 3 letters ago.),Y,None,,,,,,,,,0,6,6,6,0,1,1,1,,,,,,,,,,,,,,,,,,,,,,,,,,,,,,,,,,,,,,,,,,,,,,,,,,,,,,,,,,,,,,,,,,,,,1.8036,589.7518166,None,None,1,589.7518166,None,,P049,FENCOG,1,Pre,2022_Jun_06_1103,N-Back (New Version 2021),2021.1.4,120.0385084
,,,,Conditions/Version_1/threeback(2)_v1.xlsx,New rule: Press 'space' when you see 3-back (i.e. the same letter as the one that appeared 3 letters ago.),p,None,,,,,,,,,0,6,6,6,0,2,2,2,,,,,,,,,,,,,,,,,,,,,,,,,,,,,,,,,,,,,,,,,,,,,,,,,,,,,,,,,,,,,,,,,,,,,1.7168,593.4800085,None,None,1,593.4800085,None,,P049,FENCOG,1,Pre,2022_Jun_06_1103,N-Back (New Version 2021),2021.1.4,120.0385084
,,,,Conditions/Version_1/threeback(2)_v1.xlsx,New rule: Press 'space' when you see 3-back (i.e. the same letter as the one that appeared 3 letters ago.),p,None,,,,,,,,,0,6,6,6,0,3,3,3,,,,,,,,,,,,,,,,,,,,,,,,,,,,,,,,,,,,,,,,,,,,,,,,,,,,,,,,,,,,,,,,,,,,,1.5742,597.0580562,None,None,1,597.0580562,None,,P049,FENCOG,1,Pre,2022_Jun_06_1103,N-Back (New Version 2021),2021.1.4,120.0385084
,,,,Conditions/Version_1/threeback(2)_v1.xlsx,New rule: Press 'space' when you see 3-back (i.e. the same letter as the one that appeared 3 letters ago.),y,space,,,,,,,,,0,6,6,6,0,4,4,4,,,,,,,,,,,,,,,,,,,,,,,,,,,,,,,,,,,,,,,,,,,,,,,,,,,,,,,,,,,,,,,,,,,,,1.878,600.9406127,None,space,1,600.9406127,None,0.8228305,P049,FENCOG,1,Pre,2022_Jun_06_1103,N-Back (New Version 2021),2021.1.4,120.0385084
,,,,Conditions/Version_1/threeback(2)_v1.xlsx,New rule: Press 'space' when you see 3-back (i.e. the same letter as the one that appeared 3 letters ago.),u,None,,,,,,,,,0,6,6,6,0,5,5,5,,,,,,,,,,,,,,,,,,,,,,,,,,,,,,,,,,,,,,,,,,,,,,,,,,,,,,,,,,,,,,,,,,,,,1.475,604.4244199,None,None,1,604.4244199,None,,P049,FENCOG,1,Pre,2022_Jun_06_1103,N-Back (New Version 2021),2021.1.4,120.0385084
,,,,Conditions/Version_1/threeback(2)_v1.xlsx,New rule: Press 'space' when you see 3-back (i.e. the same letter as the one that appeared 3 letters ago.),P,space,,,,,,,,,0,6,6,6,0,6,6,6,,,,,,,,,,,,,,,,,,,,,,,,,,,,,,,,,,,,,,,,,,,,,,,,,,,,,,,,,,,,,,,,,,,,,1.2208,607.6548267,None,None,0,607.6548267,None,,P049,FENCOG,1,Pre,2022_Jun_06_1103,N-Back (New Version 2021),2021.1.4,120.0385084
,,,,Conditions/Version_1/threeback(2)_v1.xlsx,New rule: Press 'space' when you see 3-back (i.e. the same letter as the one that appeared 3 letters ago.),a,None,,,,,,,,,0,6,6,6,0,7,7,7,,,,,,,,,,,,,,,,,,,,,,,,,,,,,,,,,,,,,,,,,,,,,,,,,,,,,,,,,,,,,,,,,,,,,1.0162,610.6765467,None,None,1,610.6765467,None,,P049,FENCOG,1,Pre,2022_Jun_06_1103,N-Back (New Version 2021),2021.1.4,120.0385084
,,,,Conditions/Version_1/threeback(2)_v1.xlsx,New rule: Press 'space' when you see 3-back (i.e. the same letter as the one that appeared 3 letters ago.),U,space,,,,,,,,,0,6,6,6,0,8,8,8,,,,,,,,,,,,,,,,,,,,,,,,,,,,,,,,,,,,,,,,,,,,,,,,,,,,,,,,,,,,,,,,,,,,,1.4006,614.0886853,None,space,1,614.0886853,None,0.8029243,P049,FENCOG,1,Pre,2022_Jun_06_1103,N-Back (New Version 2021),2021.1.4,120.0385084
,,,,Conditions/Version_1/threeback(2)_v1.xlsx,New rule: Press 'space' when you see 3-back (i.e. the same letter as the one that appeared 3 letters ago.),q,None,,,,,,,,,0,6,6,6,0,9,9,9,,,,,,,,,,,,,,,,,,,,,,,,,,,,,,,,,,,,,,,,,,,,,,,,,,,,,,,,,,,,,,,,,,,,,1.7726,617.8693907,None,None,1,617.8693907,None,,P049,FENCOG,1,Pre,2022_Jun_06_1103,N-Back (New Version 2021),2021.1.4,120.0385084
,,,,Conditions/Version_1/threeback(2)_v1.xlsx,New rule: Press 'space' when you see 3-back (i.e. the same letter as the one that appeared 3 letters ago.),,,,,,,,,,,0,6,6,6,,,,,,,,,,,,,,,,,,,,,,,,,,,,,,,,,,,,,,,,,,,,,,,,,,,,,,,,,,,,,,,,,,,,,,,,,,,,,,,,,P049,FENCOG,1,Pre,2022_Jun_06_1103,N-Back (New Version 2021),2021.1.4,120.0385084
,,,,Conditions/Version_1/twoback(2)_v1.xlsx,New rule: Press 'space' when you see 2-back (i.e. the same letter as the one that appeared 2 letters ago.),q,None,,,,,,,,,0,7,7,7,0,0,0,0,,,,,,,,,,,,,,,,,,,,,,,,,,,,,,,,,,,,,,,,,,,,,,,,,,,,,,,,,,,619.8979573,None,622.8777599,None,space,1.1178061,622.8777599,None,619.8979573,None,1.4502,625.4831144,None,None,1,625.4831144,None,,P049,FENCOG,1,Pre,2022_Jun_06_1103,N-Back (New Version 2021),2021.1.4,120.0385084
,,,,Conditions/Version_1/twoback(2)_v1.xlsx,New rule: Press 'space' when you see 2-back (i.e. the same letter as the one that appeared 2 letters ago.),r,None,,,,,,,,,0,7,7,7,0,1,1,1,,,,,,,,,,,,,,,,,,,,,,,,,,,,,,,,,,,,,,,,,,,,,,,,,,,,,,,,,,,,,,,,,,,,,1.6672,629.1568846,None,None,1,629.1568846,None,,P049,FENCOG,1,Pre,2022_Jun_06_1103,N-Back (New Version 2021),2021.1.4,120.0385084
,,,,Conditions/Version_1/twoback(2)_v1.xlsx,New rule: Press 'space' when you see 2-back (i.e. the same letter as the one that appeared 2 letters ago.),q,space,,,,,,,,,0,7,7,7,0,2,2,2,,,,,,,,,,,,,,,,,,,,,,,,,,,,,,,,,,,,,,,,,,,,,,,,,,,,,,,,,,,,,,,,,,,,,1.196,632.35592,None,space,1,632.35592,None,0.4555558,P049,FENCOG,1,Pre,2022_Jun_06_1103,N-Back (New Version 2021),2021.1.4,120.0385084
,,,,Conditions/Version_1/twoback(2)_v1.xlsx,New rule: Press 'space' when you see 2-back (i.e. the same letter as the one that appeared 2 letters ago.),P,None,,,,,,,,,0,7,7,7,0,3,3,3,,,,,,,,,,,,,,,,,,,,,,,,,,,,,,,,,,,,,,,,,,,,,,,,,,,,,,,,,,,,,,,,,,,,,1.7416,636.0985504,None,None,1,636.0985504,None,,P049,FENCOG,1,Pre,2022_Jun_06_1103,N-Back (New Version 2021),2021.1.4,120.0385084
,,,,Conditions/Version_1/twoback(2)_v1.xlsx,New rule: Press 'space' when you see 2-back (i.e. the same letter as the one that appeared 2 letters ago.),p,None,,,,,,,,,0,7,7,7,0,4,4,4,,,,,,,,,,,,,,,,,,,,,,,,,,,,,,,,,,,,,,,,,,,,,,,,,,,,,,,,,,,,,,,,,,,,,1.1278,639.2356278,None,None,1,639.2356278,None,,P049,FENCOG,1,Pre,2022_Jun_06_1103,N-Back (New Version 2021),2021.1.4,120.0385084
,,,,Conditions/Version_1/twoback(2)_v1.xlsx,New rule: Press 'space' when you see 2-back (i.e. the same letter as the one that appeared 2 letters ago.),H,None,,,,,,,,,0,7,7,7,0,5,5,5,,,,,,,,,,,,,,,,,,,,,,,,,,,,,,,,,,,,,,,,,,,,,,,,,,,,,,,,,,,,,,,,,,,,,1.4936,642.7398635,None,None,1,642.7398635,None,,P049,FENCOG,1,Pre,2022_Jun_06_1103,N-Back (New Version 2021),2021.1.4,120.0385084
,,,,Conditions/Version_1/twoback(2)_v1.xlsx,New rule: Press 'space' when you see 2-back (i.e. the same letter as the one that appeared 2 letters ago.),g,None,,,,,,,,,0,7,7,7,0,6,6,6,,,,,,,,,,,,,,,,,,,,,,,,,,,,,,,,,,,,,,,,,,,,,,,,,,,,,,,,,,,,,,,,,,,,,1.5804,646.3336729,None,None,1,646.3336729,None,,P049,FENCOG,1,Pre,2022_Jun_06_1103,N-Back (New Version 2021),2021.1.4,120.0385084
,,,,Conditions/Version_1/twoback(2)_v1.xlsx,New rule: Press 'space' when you see 2-back (i.e. the same letter as the one that appeared 2 letters ago.),j,None,,,,,,,,,0,7,7,7,0,7,7,7,,,,,,,,,,,,,,,,,,,,,,,,,,,,,,,,,,,,,,,,,,,,,,,,,,,,,,,,,,,,,,,,,,,,,1.9462,650.2850743,None,None,1,650.2850743,None,,P049,FENCOG,1,Pre,2022_Jun_06_1103,N-Back (New Version 2021),2021.1.4,120.0385084
,,,,Conditions/Version_1/twoback(2)_v1.xlsx,New rule: Press 'space' when you see 2-back (i.e. the same letter as the one that appeared 2 letters ago.),g,space,,,,,,,,,0,7,7,7,0,8,8,8,,,,,,,,,,,,,,,,,,,,,,,,,,,,,,,,,,,,,,,,,,,,,,,,,,,,,,,,,,,,,,,,,,,,,1.7788,654.0745378,None,space,1,654.0745378,None,0.4089244,P049,FENCOG,1,Pre,2022_Jun_06_1103,N-Back (New Version 2021),2021.1.4,120.0385084
,,,,Conditions/Version_1/twoback(2)_v1.xlsx,New rule: Press 'space' when you see 2-back (i.e. the same letter as the one that appeared 2 letters ago.),G,None,,,,,,,,,0,7,7,7,0,9,9,9,,,,,,,,,,,,,,,,,,,,,,,,,,,,,,,,,,,,,,,,,,,,,,,,,,,,,,,,,,,,,,,,,,,,,1.754,657.8317584,None,None,1,657.8317584,None,,P049,FENCOG,1,Pre,2022_Jun_06_1103,N-Back (New Version 2021),2021.1.4,120.0385084
,,,,Conditions/Version_1/twoback(2)_v1.xlsx,New rule: Press 'space' when you see 2-back (i.e. the same letter as the one that appeared 2 letters ago.),,,,,,,,,,,0,7,7,7,,,,,,,,,,,,,,,,,,,,,,,,,,,,,,,,,,,,,,,,,,,,,,,,,,,,,,,,,,,,,,,,,,,,,,,,,,,,,,,,,P049,FENCOG,1,Pre,2022_Jun_06_1103,N-Back (New Version 2021),2021.1.4,120.0385084
,,,,Conditions/Version_1/threeback(3)_v1.xlsx,New rule: Press 'space' when you see 3-back (i.e. the same letter as the one that appeared 3 letters ago.),w,None,,,,,,,,,0,8,8,8,0,0,0,0,,,,,,,,,,,,,,,,,,,,,,,,,,,,,,,,,,,,,,,,,,,,,,,,,,,,,,,,,,,659.8550365,None,662.8410722,None,space,0.4103676,662.8410722,None,659.8550365,None,1.1588,664.4492129,None,None,1,664.4492129,None,,P049,FENCOG,1,Pre,2022_Jun_06_1103,N-Back (New Version 2021),2021.1.4,120.0385084
,,,,Conditions/Version_1/threeback(3)_v1.xlsx,New rule: Press 'space' when you see 3-back (i.e. the same letter as the one that appeared 3 letters ago.),p,None,,,,,,,,,0,8,8,8,0,1,1,1,,,,,,,,,,,,,,,,,,,,,,,,,,,,,,,,,,,,,,,,,,,,,,,,,,,,,,,,,,,,,,,,,,,,,1.3448,667.8068276,None,None,1,667.8068276,None,,P049,FENCOG,1,Pre,2022_Jun_06_1103,N-Back (New Version 2021),2021.1.4,120.0385084
,,,,Conditions/Version_1/threeback(3)_v1.xlsx,New rule: Press 'space' when you see 3-back (i.e. the same letter as the one that appeared 3 letters ago.),P,None,,,,,,,,,0,8,8,8,0,2,2,2,,,,,,,,,,,,,,,,,,,,,,,,,,,,,,,,,,,,,,,,,,,,,,,,,,,,,,,,,,,,,,,,,,,,,1.568,671.3860886,None,None,1,671.3860886,None,,P049,FENCOG,1,Pre,2022_Jun_06_1103,N-Back (New Version 2021),2021.1.4,120.0385084
,,,,Conditions/Version_1/threeback(3)_v1.xlsx,New rule: Press 'space' when you see 3-back (i.e. the same letter as the one that appeared 3 letters ago.),i,None,,,,,,,,,0,8,8,8,0,3,3,3,,,,,,,,,,,,,,,,,,,,,,,,,,,,,,,,,,,,,,,,,,,,,,,,,,,,,,,,,,,,,,,,,,,,,1.9834,675.3784958,None,None,1,675.3784958,None,,P049,FENCOG,1,Pre,2022_Jun_06_1103,N-Back (New Version 2021),2021.1.4,120.0385084
,,,,Conditions/Version_1/threeback(3)_v1.xlsx,New rule: Press 'space' when you see 3-back (i.e. the same letter as the one that appeared 3 letters ago.),f,None,,,,,,,,,0,8,8,8,0,4,4,4,,,,,,,,,,,,,,,,,,,,,,,,,,,,,,,,,,,,,,,,,,,,,,,,,,,,,,,,,,,,,,,,,,,,,1.3758,678.760039,None,None,1,678.760039,None,,P049,FENCOG,1,Pre,2022_Jun_06_1103,N-Back (New Version 2021),2021.1.4,120.0385084
,,,,Conditions/Version_1/threeback(3)_v1.xlsx,New rule: Press 'space' when you see 3-back (i.e. the same letter as the one that appeared 3 letters ago.),o,None,,,,,,,,,0,8,8,8,0,5,5,5,,,,,,,,,,,,,,,,,,,,,,,,,,,,,,,,,,,,,,,,,,,,,,,,,,,,,,,,,,,,,,,,,,,,,1.1092,681.8746287,None,None,1,681.8746287,None,,P049,FENCOG,1,Pre,2022_Jun_06_1103,N-Back (New Version 2021),2021.1.4,120.0385084
,,,,Conditions/Version_1/threeback(3)_v1.xlsx,New rule: Press 'space' when you see 3-back (i.e. the same letter as the one that appeared 3 letters ago.),w,None,,,,,,,,,0,8,8,8,0,6,6,6,,,,,,,,,,,,,,,,,,,,,,,,,,,,,,,,,,,,,,,,,,,,,,,,,,,,,,,,,,,,,,,,,,,,,1.6486,685.5290627,None,None,1,685.5290627,None,,P049,FENCOG,1,Pre,2022_Jun_06_1103,N-Back (New Version 2021),2021.1.4,120.0385084
,,,,Conditions/Version_1/threeback(3)_v1.xlsx,New rule: Press 'space' when you see 3-back (i.e. the same letter as the one that appeared 3 letters ago.),F,space,,,,,,,,,0,8,8,8,0,7,7,7,,,,,,,,,,,,,,,,,,,,,,,,,,,,,,,,,,,,,,,,,,,,,,,,,,,,,,,,,,,,,,,,,,,,,1.878,689.4141084,None,space,1,689.4141084,None,0.5336656,P049,FENCOG,1,Pre,2022_Jun_06_1103,N-Back (New Version 2021),2021.1.4,120.0385084
,,,,Conditions/Version_1/threeback(3)_v1.xlsx,New rule: Press 'space' when you see 3-back (i.e. the same letter as the one that appeared 3 letters ago.),p,None,,,,,,,,,0,8,8,8,0,8,8,8,,,,,,,,,,,,,,,,,,,,,,,,,,,,,,,,,,,,,,,,,,,,,,,,,,,,,,,,,,,,,,,,,,,,,1.6362,693.055789,None,None,1,693.055789,None,,P049,FENCOG,1,Pre,2022_Jun_06_1103,N-Back (New Version 2021),2021.1.4,120.0385084
,,,,Conditions/Version_1/threeback(3)_v1.xlsx,New rule: Press 'space' when you see 3-back (i.e. the same letter as the one that appeared 3 letters ago.),W,space,,,,,,,,,0,8,8,8,0,9,9,9,,,,,,,,,,,,,,,,,,,,,,,,,,,,,,,,,,,,,,,,,,,,,,,,,,,,,,,,,,,,,,,,,,,,,1.6238,696.6870696,None,None,0,696.6870696,None,,P049,FENCOG,1,Pre,2022_Jun_06_1103,N-Back (New Version 2021),2021.1.4,120.0385084
,,,,Conditions/Version_1/threeback(3)_v1.xlsx,New rule: Press 'space' when you see 3-back (i.e. the same letter as the one that appeared 3 letters ago.),,,,,,,,,,,0,8,8,8,,,,,,,,,,,,,,,,,,,,,,,,,,,,,,,,,,,,,,,,,,,,,,,,,,,,,,,,,,,,,,,,,,,,,,,,,,,,,,,,,P049,FENCOG,1,Pre,2022_Jun_06_1103,N-Back (New Version 2021),2021.1.4,120.0385084
,,,,Conditions/Version_1/zeroback(3)_v1.xlsx,New rule: Press 'space' when you see the letter 'x' or 'X'.,X,space,,,,,,,,,0,9,9,9,0,0,0,0,,,,,,,,,,,,,,,,,,,,,,,,,,,,,,,,,,,,,,,,,,,,,,,,,,,,,,,,,,,698.7065871,None,701.6962917,None,space,0.3232167,701.6962917,None,698.7065871,None,1.4936,703.5432755,None,space,1,703.5432755,None,0.7962043,P049,FENCOG,1,Pre,2022_Jun_06_1103,N-Back (New Version 2021),2021.1.4,120.0385084
,,,,Conditions/Version_1/zeroback(3)_v1.xlsx,New rule: Press 'space' when you see the letter 'x' or 'X'.,B,None,,,,,,,,,0,9,9,9,0,1,1,1,,,,,,,,,,,,,,,,,,,,,,,,,,,,,,,,,,,,,,,,,,,,,,,,,,,,,,,,,,,,,,,,,,,,,1.227,706.7794364,None,None,1,706.7794364,None,,P049,FENCOG,1,Pre,2022_Jun_06_1103,N-Back (New Version 2021),2021.1.4,120.0385084
,,,,Conditions/Version_1/zeroback(3)_v1.xlsx,New rule: Press 'space' when you see the letter 'x' or 'X'.,m,None,,,,,,,,,0,9,9,9,0,2,2,2,,,,,,,,,,,,,,,,,,,,,,,,,,,,,,,,,,,,,,,,,,,,,,,,,,,,,,,,,,,,,,,,,,,,,1.2518,710.042344,None,None,1,710.042344,None,,P049,FENCOG,1,Pre,2022_Jun_06_1103,N-Back (New Version 2021),2021.1.4,120.0385084
,,,,Conditions/Version_1/zeroback(3)_v1.xlsx,New rule: Press 'space' when you see the letter 'x' or 'X'.,m,None,,,,,,,,,0,9,9,9,0,3,3,3,,,,,,,,,,,,,,,,,,,,,,,,,,,,,,,,,,,,,,,,,,,,,,,,,,,,,,,,,,,,,,,,,,,,,1.7602,713.8168048,None,None,1,713.8168048,None,,P049,FENCOG,1,Pre,2022_Jun_06_1103,N-Back (New Version 2021),2021.1.4,120.0385084
,,,,Conditions/Version_1/zeroback(3)_v1.xlsx,New rule: Press 'space' when you see the letter 'x' or 'X'.,o,None,,,,,,,,,0,9,9,9,0,4,4,4,,,,,,,,,,,,,,,,,,,,,,,,,,,,,,,,,,,,,,,,,,,,,,,,,,,,,,,,,,,,,,,,,,,,,1.1774,717.0070346,None,None,1,717.0070346,None,,P049,FENCOG,1,Pre,2022_Jun_06_1103,N-Back (New Version 2021),2021.1.4,120.0385084
,,,,Conditions/Version_1/zeroback(3)_v1.xlsx,New rule: Press 'space' when you see the letter 'x' or 'X'.,p,None,,,,,,,,,0,9,9,9,0,5,5,5,,,,,,,,,,,,,,,,,,,,,,,,,,,,,,,,,,,,,,,,,,,,,,,,,,,,,,,,,,,,,,,,,,,,,1.5184,720.5382547,None,None,1,720.5382547,None,,P049,FENCOG,1,Pre,2022_Jun_06_1103,N-Back (New Version 2021),2021.1.4,120.0385084
,,,,Conditions/Version_1/zeroback(3)_v1.xlsx,New rule: Press 'space' when you see the letter 'x' or 'X'.,G,None,,,,,,,,,0,9,9,9,0,6,6,6,,,,,,,,,,,,,,,,,,,,,,,,,,,,,,,,,,,,,,,,,,,,,,,,,,,,,,,,,,,,,,,,,,,,,1.6796,724.221387,None,None,1,724.221387,None,,P049,FENCOG,1,Pre,2022_Jun_06_1103,N-Back (New Version 2021),2021.1.4,120.0385084
,,,,Conditions/Version_1/zeroback(3)_v1.xlsx,New rule: Press 'space' when you see the letter 'x' or 'X'.,X,space,,,,,,,,,0,9,9,9,0,7,7,7,,,,,,,,,,,,,,,,,,,,,,,,,,,,,,,,,,,,,,,,,,,,,,,,,,,,,,,,,,,,,,,,,,,,,1.4626,727.6947508,None,space,1,727.6947508,None,0.4287144,P049,FENCOG,1,Pre,2022_Jun_06_1103,N-Back (New Version 2021),2021.1.4,120.0385084
,,,,Conditions/Version_1/zeroback(3)_v1.xlsx,New rule: Press 'space' when you see the letter 'x' or 'X'.,p,None,,,,,,,,,0,9,9,9,0,8,8,8,,,,,,,,,,,,,,,,,,,,,,,,,,,,,,,,,,,,,,,,,,,,,,,,,,,,,,,,,,,,,,,,,,,,,1.0968,730.7935558,None,None,1,730.7935558,None,,P049,FENCOG,1,Pre,2022_Jun_06_1103,N-Back (New Version 2021),2021.1.4,120.0385084
,,,,Conditions/Version_1/zeroback(3)_v1.xlsx,New rule: Press 'space' when you see the letter 'x' or 'X'.,x,space,,,,,,,,,0,9,9,9,0,9,9,9,,,,,,,,,,,,,,,,,,,,,,,,,,,,,,,,,,,,,,,,,,,,,,,,,,,,,,,,,,,,,,,,,,,,,1.3944,734.1931488,None,space,1,734.1931488,None,0.4103169,P049,FENCOG,1,Pre,2022_Jun_06_1103,N-Back (New Version 2021),2021.1.4,120.0385084
,,,,Conditions/Version_1/zeroback(3)_v1.xlsx,New rule: Press 'space' when you see the letter 'x' or 'X'.,,,,,,,,,,,0,9,9,9,,,,,,,,,,,,,,,,,,,,,,,,,,,,,,,,,,,,,,,,,,,,,,,,,,,,,,,,,,,,,,,,,,,,,,,,,,,,,,,,,P049,FENCOG,1,Pre,2022_Jun_06_1103,N-Back (New Version 2021),2021.1.4,120.0385084
,,,,Conditions/Version_1/twoback(3)_v1.xlsx,New rule: Press 'space' when you see 2-back (i.e. the same letter as the one that appeared 2 letters ago.),e,None,,,,,,,,,0,10,10,10,0,0,0,0,,,,,,,,,,,,,,,,,,,,,,,,,,,,,,,,,,,,,,,,,,,,,,,,,,,,,,,,,,,736.2182505,None,739.20191,None,space,1.3295036,739.20191,None,736.2182505,None,1.9524,742.5188162,None,None,1,742.5188162,None,,P049,FENCOG,1,Pre,2022_Jun_06_1103,N-Back (New Version 2021),2021.1.4,120.0385084
,,,,Conditions/Version_1/twoback(3)_v1.xlsx,New rule: Press 'space' when you see 2-back (i.e. the same letter as the one that appeared 2 letters ago.),o,None,,,,,,,,,0,10,10,10,0,1,1,1,,,,,,,,,,,,,,,,,,,,,,,,,,,,,,,,,,,,,,,,,,,,,,,,,,,,,,,,,,,,,,,,,,,,,1.3324,745.8656009,None,None,1,745.8656009,None,,P049,FENCOG,1,Pre,2022_Jun_06_1103,N-Back (New Version 2021),2021.1.4,120.0385084
,,,,Conditions/Version_1/twoback(3)_v1.xlsx,New rule: Press 'space' when you see 2-back (i.e. the same letter as the one that appeared 2 letters ago.),P,None,,,,,,,,,0,10,10,10,0,2,2,2,,,,,,,,,,,,,,,,,,,,,,,,,,,,,,,,,,,,,,,,,,,,,,,,,,,,,,,,,,,,,,,,,,,,,1.32,749.19639,None,None,1,749.19639,None,,P049,FENCOG,1,Pre,2022_Jun_06_1103,N-Back (New Version 2021),2021.1.4,120.0385084
,,,,Conditions/Version_1/twoback(3)_v1.xlsx,New rule: Press 'space' when you see 2-back (i.e. the same letter as the one that appeared 2 letters ago.),z,None,,,,,,,,,0,10,10,10,0,3,3,3,,,,,,,,,,,,,,,,,,,,,,,,,,,,,,,,,,,,,,,,,,,,,,,,,,,,,,,,,,,,,,,,,,,,,1.6796,752.88158,None,None,1,752.88158,None,,P049,FENCOG,1,Pre,2022_Jun_06_1103,N-Back (New Version 2021),2021.1.4,120.0385084
,,,,Conditions/Version_1/twoback(3)_v1.xlsx,New rule: Press 'space' when you see 2-back (i.e. the same letter as the one that appeared 2 letters ago.),X,None,,,,,,,,,0,10,10,10,0,4,4,4,,,,,,,,,,,,,,,,,,,,,,,,,,,,,,,,,,,,,,,,,,,,,,,,,,,,,,,,,,,,,,,,,,,,,1.3572,756.2443968,None,None,1,756.2443968,None,,P049,FENCOG,1,Pre,2022_Jun_06_1103,N-Back (New Version 2021),2021.1.4,120.0385084
,,,,Conditions/Version_1/twoback(3)_v1.xlsx,New rule: Press 'space' when you see 2-back (i.e. the same letter as the one that appeared 2 letters ago.),z,space,,,,,,,,,0,10,10,10,0,5,5,5,,,,,,,,,,,,,,,,,,,,,,,,,,,,,,,,,,,,,,,,,,,,,,,,,,,,,,,,,,,,,,,,,,,,,1.0844,759.3415674,None,space,1,759.3415674,None,0.3901001,P049,FENCOG,1,Pre,2022_Jun_06_1103,N-Back (New Version 2021),2021.1.4,120.0385084
,,,,Conditions/Version_1/twoback(3)_v1.xlsx,New rule: Press 'space' when you see 2-back (i.e. the same letter as the one that appeared 2 letters ago.),x,space,,,,,,,,,0,10,10,10,0,6,6,6,,,,,,,,,,,,,,,,,,,,,,,,,,,,,,,,,,,,,,,,,,,,,,,,,,,,,,,,,,,,,,,,,,,,,1.4688,762.8200444,None,space,1,762.8200444,None,0.4474474,P049,FENCOG,1,Pre,2022_Jun_06_1103,N-Back (New Version 2021),2021.1.4,120.0385084
,,,,Conditions/Version_1/twoback(3)_v1.xlsx,New rule: Press 'space' when you see 2-back (i.e. the same letter as the one that appeared 2 letters ago.),c,None,,,,,,,,,0,10,10,10,0,7,7,7,,,,,,,,,,,,,,,,,,,,,,,,,,,,,,,,,,,,,,,,,,,,,,,,,,,,,,,,,,,,,,,,,,,,,1.2704,766.0998314,None,None,1,766.0998314,None,,P049,FENCOG,1,Pre,2022_Jun_06_1103,N-Back (New Version 2021),2021.1.4,120.0385084
,,,,Conditions/Version_1/twoback(3)_v1.xlsx,New rule: Press 'space' when you see 2-back (i.e. the same letter as the one that appeared 2 letters ago.),i,None,,,,,,,,,0,10,10,10,0,8,8,8,,,,,,,,,,,,,,,,,,,,,,,,,,,,,,,,,,,,,,,,,,,,,,,,,,,,,,,,,,,,,,,,,,,,,1.6362,769.7403923,None,None,1,769.7403923,None,,P049,FENCOG,1,Pre,2022_Jun_06_1103,N-Back (New Version 2021),2021.1.4,120.0385084
,,,,Conditions/Version_1/twoback(3)_v1.xlsx,New rule: Press 'space' when you see 2-back (i.e. the same letter as the one that appeared 2 letters ago.),C,space,,,,,,,,,0,10,10,10,0,9,9,9,,,,,,,,,,,,,,,,,,,,,,,,,,,,,,,,,,,,,,,,,,,,,,,,,,,,,,,,,,,,,,,,,,,,,1.258,773.0061385,None,space,1,773.0061385,None,0.5494331,P049,FENCOG,1,Pre,2022_Jun_06_1103,N-Back (New Version 2021),2021.1.4,120.0385084
,,,,Conditions/Version_1/twoback(3)_v1.xlsx,New rule: Press 'space' when you see 2-back (i.e. the same letter as the one that appeared 2 letters ago.),,,,,,,,,,,0,10,10,10,,,,,,,,,,,,,,,,,,,,,,,,,,,,,,,,,,,,,,,,,,,,,,,,,,,,,,,,,,,,,,,,,,,,,,,,,,,,,,,,,P049,FENCOG,1,Pre,2022_Jun_06_1103,N-Back (New Version 2021),2021.1.4,120.0385084
,,,,Conditions/Version_1/oneback(3)_v1.xlsx,New rule: Press 'space' when you see 1-back (i.e. the same letter as the one that appeared 1 letter ago.),o,None,,,,,,,,,0,11,11,11,0,0,0,0,,,,,,,,,,,,,,,,,,,,,,,,,,,,,,,,,,,,,,,,,,,,,,,,,,,,,,,,,,,775.0398252,None,778.015384,None,space,0.5080586,778.015384,None,775.0398252,None,1.878,780.4377613,None,None,1,780.4377613,None,,P049,FENCOG,1,Pre,2022_Jun_06_1103,N-Back (New Version 2021),2021.1.4,120.0385084
,,,,Conditions/Version_1/oneback(3)_v1.xlsx,New rule: Press 'space' when you see 1-back (i.e. the same letter as the one that appeared 1 letter ago.),O,space,,,,,,,,,0,11,11,11,0,1,1,1,,,,,,,,,,,,,,,,,,,,,,,,,,,,,,,,,,,,,,,,,,,,,,,,,,,,,,,,,,,,,,,,,,,,,1.7726,784.212461,None,space,1,784.212461,None,0.5511484,P049,FENCOG,1,Pre,2022_Jun_06_1103,N-Back (New Version 2021),2021.1.4,120.0385084
,,,,Conditions/Version_1/oneback(3)_v1.xlsx,New rule: Press 'space' when you see 1-back (i.e. the same letter as the one that appeared 1 letter ago.),h,None,,,,,,,,,0,11,11,11,0,2,2,2,,,,,,,,,,,,,,,,,,,,,,,,,,,,,,,,,,,,,,,,,,,,,,,,,,,,,,,,,,,,,,,,,,,,,1.63,787.8559979,None,None,1,787.8559979,None,,P049,FENCOG,1,Pre,2022_Jun_06_1103,N-Back (New Version 2021),2021.1.4,120.0385084
,,,,Conditions/Version_1/oneback(3)_v1.xlsx,New rule: Press 'space' when you see 1-back (i.e. the same letter as the one that appeared 1 letter ago.),g,None,,,,,,,,,0,11,11,11,0,3,3,3,,,,,,,,,,,,,,,,,,,,,,,,,,,,,,,,,,,,,,,,,,,,,,,,,,,,,,,,,,,,,,,,,,,,,1.8656,791.7266134,None,None,1,791.7266134,None,,P049,FENCOG,1,Pre,2022_Jun_06_1103,N-Back (New Version 2021),2021.1.4,120.0385084
,,,,Conditions/Version_1/oneback(3)_v1.xlsx,New rule: Press 'space' when you see 1-back (i.e. the same letter as the one that appeared 1 letter ago.),n,None,,,,,,,,,0,11,11,11,0,4,4,4,,,,,,,,,,,,,,,,,,,,,,,,,,,,,,,,,,,,,,,,,,,,,,,,,,,,,,,,,,,,,,,,,,,,,1.847,795.5838762,None,None,1,795.5838762,None,,P049,FENCOG,1,Pre,2022_Jun_06_1103,N-Back (New Version 2021),2021.1.4,120.0385084
,,,,Conditions/Version_1/oneback(3)_v1.xlsx,New rule: Press 'space' when you see 1-back (i.e. the same letter as the one that appeared 1 letter ago.),z,None,,,,,,,,,0,11,11,11,0,5,5,5,,,,,,,,,,,,,,,,,,,,,,,,,,,,,,,,,,,,,,,,,,,,,,,,,,,,,,,,,,,,,,,,,,,,,1.5928,799.190073,None,None,1,799.190073,None,,P049,FENCOG,1,Pre,2022_Jun_06_1103,N-Back (New Version 2021),2021.1.4,120.0385084
,,,,Conditions/Version_1/oneback(3)_v1.xlsx,New rule: Press 'space' when you see 1-back (i.e. the same letter as the one that appeared 1 letter ago.),X,None,,,,,,,,,0,11,11,11,0,6,6,6,,,,,,,,,,,,,,,,,,,,,,,,,,,,,,,,,,,,,,,,,,,,,,,,,,,,,,,,,,,,,,,,,,,,,1.4812,802.6724172,None,None,1,802.6724172,None,,P049,FENCOG,1,Pre,2022_Jun_06_1103,N-Back (New Version 2021),2021.1.4,120.0385084
,,,,Conditions/Version_1/oneback(3)_v1.xlsx,New rule: Press 'space' when you see 1-back (i.e. the same letter as the one that appeared 1 letter ago.),r,None,,,,,,,,,0,11,11,11,0,7,7,7,,,,,,,,,,,,,,,,,,,,,,,,,,,,,,,,,,,,,,,,,,,,,,,,,,,,,,,,,,,,,,,,,,,,,1.8718,806.5462172,None,None,1,806.5462172,None,,P049,FENCOG,1,Pre,2022_Jun_06_1103,N-Back (New Version 2021),2021.1.4,120.0385084
,,,,Conditions/Version_1/oneback(3)_v1.xlsx,New rule: Press 'space' when you see 1-back (i.e. the same letter as the one that appeared 1 letter ago.),r,space,,,,,,,,,0,11,11,11,0,8,8,8,,,,,,,,,,,,,,,,,,,,,,,,,,,,,,,,,,,,,,,,,,,,,,,,,,,,,,,,,,,,,,,,,,,,,1.4006,809.9454437,None,space,1,809.9454437,None,1.3059737,P049,FENCOG,1,Pre,2022_Jun_06_1103,N-Back (New Version 2021),2021.1.4,120.0385084
,,,,Conditions/Version_1/oneback(3)_v1.xlsx,New rule: Press 'space' when you see 1-back (i.e. the same letter as the one that appeared 1 letter ago.),P,None,,,,,,,,,0,11,11,11,0,9,9,9,,,,,,,,,,,,,,,,,,,,,,,,,,,,,,,,,,,,,,,,,,,,,,,,,,,,,,,,,,,,,,,,,,,,,1.444,813.4532853,None,None,1,813.4532853,None,,P049,FENCOG,1,Pre,2022_Jun_06_1103,N-Back (New Version 2021),2021.1.4,120.0385084
,,,,Conditions/Version_1/oneback(3)_v1.xlsx,New rule: Press 'space' when you see 1-back (i.e. the same letter as the one that appeared 1 letter ago.),,,,,,,,,,,0,11,11,11,,,,,,,,,,,,,,,,,,,,,,,,,,,,,,,,,,,,,,,,,,,,,,,,,,,,,,,,,,,,,,,,,,,,,,,,,,,,,,,,,P049,FENCOG,1,Pre,2022_Jun_06_1103,N-Back (New Version 2021),2021.1.4,120.0385084
,,,,Conditions/Version_1/twoback(4)_v1.xlsx,New rule: Press 'space' when you see 2-back (i.e. the same letter as the one that appeared 2 letters ago.),r,None,,,,,,,,,0,12,12,12,0,0,0,0,,,,,,,,,,,,,,,,,,,,,,,,,,,,,,,,,,,,,,,,,,,,,,,,,,,,,,,,,,,815.4323581,None,818.4223543,None,space,0.4531087,818.4223543,None,815.4323581,None,1.4254,820.3298408,None,None,1,820.3298408,None,,P049,FENCOG,1,Pre,2022_Jun_06_1103,N-Back (New Version 2021),2021.1.4,120.0385084
,,,,Conditions/Version_1/twoback(4)_v1.xlsx,New rule: Press 'space' when you see 2-back (i.e. the same letter as the one that appeared 2 letters ago.),T,None,,,,,,,,,0,12,12,12,0,1,1,1,,,,,,,,,,,,,,,,,,,,,,,,,,,,,,,,,,,,,,,,,,,,,,,,,,,,,,,,,,,,,,,,,,,,,1.6548,823.9922041,None,None,1,823.9922041,None,,P049,FENCOG,1,Pre,2022_Jun_06_1103,N-Back (New Version 2021),2021.1.4,120.0385084
,,,,Conditions/Version_1/twoback(4)_v1.xlsx,New rule: Press 'space' when you see 2-back (i.e. the same letter as the one that appeared 2 letters ago.),o,None,,,,,,,,,0,12,12,12,0,2,2,2,,,,,,,,,,,,,,,,,,,,,,,,,,,,,,,,,,,,,,,,,,,,,,,,,,,,,,,,,,,,,,,,,,,,,1.6982,827.6912513,None,None,1,827.6912513,None,,P049,FENCOG,1,Pre,2022_Jun_06_1103,N-Back (New Version 2021),2021.1.4,120.0385084
,,,,Conditions/Version_1/twoback(4)_v1.xlsx,New rule: Press 'space' when you see 2-back (i.e. the same letter as the one that appeared 2 letters ago.),p,None,,,,,,,,,0,12,12,12,0,3,3,3,,,,,,,,,,,,,,,,,,,,,,,,,,,,,,,,,,,,,,,,,,,,,,,,,,,,,,,,,,,,,,,,,,,,,1.1836,830.880797,None,None,1,830.880797,None,,P049,FENCOG,1,Pre,2022_Jun_06_1103,N-Back (New Version 2021),2021.1.4,120.0385084
,,,,Conditions/Version_1/twoback(4)_v1.xlsx,New rule: Press 'space' when you see 2-back (i.e. the same letter as the one that appeared 2 letters ago.),p,None,,,,,,,,,0,12,12,12,0,4,4,4,,,,,,,,,,,,,,,,,,,,,,,,,,,,,,,,,,,,,,,,,,,,,,,,,,,,,,,,,,,,,,,,,,,,,1.2084,834.0883788,None,None,1,834.0883788,None,,P049,FENCOG,1,Pre,2022_Jun_06_1103,N-Back (New Version 2021),2021.1.4,120.0385084
,,,,Conditions/Version_1/twoback(4)_v1.xlsx,New rule: Press 'space' when you see 2-back (i.e. the same letter as the one that appeared 2 letters ago.),y,None,,,,,,,,,0,12,12,12,0,5,5,5,,,,,,,,,,,,,,,,,,,,,,,,,,,,,,,,,,,,,,,,,,,,,,,,,,,,,,,,,,,,,,,,,,,,,1.5246,837.619579,None,None,1,837.619579,None,,P049,FENCOG,1,Pre,2022_Jun_06_1103,N-Back (New Version 2021),2021.1.4,120.0385084
,,,,Conditions/Version_1/twoback(4)_v1.xlsx,New rule: Press 'space' when you see 2-back (i.e. the same letter as the one that appeared 2 letters ago.),P,space,,,,,,,,,0,12,12,12,0,6,6,6,,,,,,,,,,,,,,,,,,,,,,,,,,,,,,,,,,,,,,,,,,,,,,,,,,,,,,,,,,,,,,,,,,,,,1.3262,840.952918,None,space,1,840.952918,None,0.5228682,P049,FENCOG,1,Pre,2022_Jun_06_1103,N-Back (New Version 2021),2021.1.4,120.0385084
,,,,Conditions/Version_1/twoback(4)_v1.xlsx,New rule: Press 'space' when you see 2-back (i.e. the same letter as the one that appeared 2 letters ago.),y,None,,,,,,,,,0,12,12,12,0,7,7,7,,,,,,,,,,,,,,,,,,,,,,,,,,,,,,,,,,,,,,,,,,,,,,,,,,,,,,,,,,,,,,,,,,,,,1.9586,844.9122637,None,space,0,844.9122637,None,0.4833749,P049,FENCOG,1,Pre,2022_Jun_06_1103,N-Back (New Version 2021),2021.1.4,120.0385084
,,,,Conditions/Version_1/twoback(4)_v1.xlsx,New rule: Press 'space' when you see 2-back (i.e. the same letter as the one that appeared 2 letters ago.),y,space,,,,,,,,,0,12,12,12,0,8,8,8,,,,,,,,,,,,,,,,,,,,,,,,,,,,,,,,,,,,,,,,,,,,,,,,,,,,,,,,,,,,,,,,,,,,,1.0782,848.000919,None,None,0,848.000919,None,,P049,FENCOG,1,Pre,2022_Jun_06_1103,N-Back (New Version 2021),2021.1.4,120.0385084
,,,,Conditions/Version_1/twoback(4)_v1.xlsx,New rule: Press 'space' when you see 2-back (i.e. the same letter as the one that appeared 2 letters ago.),,,,,,,,,,,0,12,12,12,,,,,,,,,,,,,,,,,,,,,,,,,,,,,,,,,,,,,,,,,,,,,,,,,,,,,,,,,,,,,,,,,,,,,,,,,,,,,,,,,P049,FENCOG,1,Pre,2022_Jun_06_1103,N-Back (New Version 2021),2021.1.4,120.0385084
,,,,Conditions/Version_1/zeroback(4)_v1.xlsx,New rule: Press 'space' when you see the letter 'x' or 'X'.,o,None,,,,,,,,,0,13,13,13,0,0,0,0,,,,,,,,,,,,,,,,,,,,,,,,,,,,,,,,,,,,,,,,,,,,,,,,,,,,,,,,,,,850.0207588,None,853.0090516,None,space,0.3703538,853.0090516,None,850.0207588,None,1.1836,854.5996411,None,None,1,854.5996411,None,,P049,FENCOG,1,Pre,2022_Jun_06_1103,N-Back (New Version 2021),2021.1.4,120.0385084
,,,,Conditions/Version_1/zeroback(4)_v1.xlsx,New rule: Press 'space' when you see the letter 'x' or 'X'.,X,space,,,,,,,,,0,13,13,13,0,1,1,1,,,,,,,,,,,,,,,,,,,,,,,,,,,,,,,,,,,,,,,,,,,,,,,,,,,,,,,,,,,,,,,,,,,,,1.971,858.5808774,None,space,1,858.5808774,None,1.0144439,P049,FENCOG,1,Pre,2022_Jun_06_1103,N-Back (New Version 2021),2021.1.4,120.0385084
,,,,Conditions/Version_1/zeroback(4)_v1.xlsx,New rule: Press 'space' when you see the letter 'x' or 'X'.,p,None,,,,,,,,,0,13,13,13,0,2,2,2,,,,,,,,,,,,,,,,,,,,,,,,,,,,,,,,,,,,,,,,,,,,,,,,,,,,,,,,,,,,,,,,,,,,,1.6114,862.1964788,None,None,1,862.1964788,None,,P049,FENCOG,1,Pre,2022_Jun_06_1103,N-Back (New Version 2021),2021.1.4,120.0385084
,,,,Conditions/Version_1/zeroback(4)_v1.xlsx,New rule: Press 'space' when you see the letter 'x' or 'X'.,m,None,,,,,,,,,0,13,13,13,0,3,3,3,,,,,,,,,,,,,,,,,,,,,,,,,,,,,,,,,,,,,,,,,,,,,,,,,,,,,,,,,,,,,,,,,,,,,1.2518,865.4536644,None,None,1,865.4536644,None,,P049,FENCOG,1,Pre,2022_Jun_06_1103,N-Back (New Version 2021),2021.1.4,120.0385084
,,,,Conditions/Version_1/zeroback(4)_v1.xlsx,New rule: Press 'space' when you see the letter 'x' or 'X'.,n,None,,,,,,,,,0,13,13,13,0,4,4,4,,,,,,,,,,,,,,,,,,,,,,,,,,,,,,,,,,,,,,,,,,,,,,,,,,,,,,,,,,,,,,,,,,,,,1.3696,868.8276191,None,None,1,868.8276191,None,,P049,FENCOG,1,Pre,2022_Jun_06_1103,N-Back (New Version 2021),2021.1.4,120.0385084
,,,,Conditions/Version_1/zeroback(4)_v1.xlsx,New rule: Press 'space' when you see the letter 'x' or 'X'.,m,None,,,,,,,,,0,13,13,13,0,5,5,5,,,,,,,,,,,,,,,,,,,,,,,,,,,,,,,,,,,,,,,,,,,,,,,,,,,,,,,,,,,,,,,,,,,,,1.7106,872.5439779,None,None,1,872.5439779,None,,P049,FENCOG,1,Pre,2022_Jun_06_1103,N-Back (New Version 2021),2021.1.4,120.0385084
,,,,Conditions/Version_1/zeroback(4)_v1.xlsx,New rule: Press 'space' when you see the letter 'x' or 'X'.,C,None,,,,,,,,,0,13,13,13,0,6,6,6,,,,,,,,,,,,,,,,,,,,,,,,,,,,,,,,,,,,,,,,,,,,,,,,,,,,,,,,,,,,,,,,,,,,,1.9586,876.5089834,None,None,1,876.5089834,None,,P049,FENCOG,1,Pre,2022_Jun_06_1103,N-Back (New Version 2021),2021.1.4,120.0385084
,,,,Conditions/Version_1/zeroback(4)_v1.xlsx,New rule: Press 'space' when you see the letter 'x' or 'X'.,m,None,,,,,,,,,0,13,13,13,0,7,7,7,,,,,,,,,,,,,,,,,,,,,,,,,,,,,,,,,,,,,,,,,,,,,,,,,,,,,,,,,,,,,,,,,,,,,1.1464,879.6597946,None,None,1,879.6597946,None,,P049,FENCOG,1,Pre,2022_Jun_06_1103,N-Back (New Version 2021),2021.1.4,120.0385084
,,,,Conditions/Version_1/zeroback(4)_v1.xlsx,New rule: Press 'space' when you see the letter 'x' or 'X'.,p,None,,,,,,,,,0,13,13,13,0,8,8,8,,,,,,,,,,,,,,,,,,,,,,,,,,,,,,,,,,,,,,,,,,,,,,,,,,,,,,,,,,,,,,,,,,,,,1.4006,883.0747214,None,None,1,883.0747214,None,,P049,FENCOG,1,Pre,2022_Jun_06_1103,N-Back (New Version 2021),2021.1.4,120.0385084
,,,,Conditions/Version_1/zeroback(4)_v1.xlsx,New rule: Press 'space' when you see the letter 'x' or 'X'.,X,space,,,,,,,,,0,13,13,13,0,9,9,9,,,,,,,,,,,,,,,,,,,,,,,,,,,,,,,,,,,,,,,,,,,,,,,,,,,,,,,,,,,,,,,,,,,,,1.1092,886.1905634,None,space,1,886.1905634,None,0.4528299,P049,FENCOG,1,Pre,2022_Jun_06_1103,N-Back (New Version 2021),2021.1.4,120.0385084
,,,,Conditions/Version_1/zeroback(4)_v1.xlsx,New rule: Press 'space' when you see the letter 'x' or 'X'.,,,,,,,,,,,0,13,13,13,,,,,,,,,,,,,,,,,,,,,,,,,,,,,,,,,,,,,,,,,,,,,,,,,,,,,,,,,,,,,,,,,,,,,,,,,,,,,,,,,P049,FENCOG,1,Pre,2022_Jun_06_1103,N-Back (New Version 2021),2021.1.4,120.0385084
,,,,Conditions/Version_1/oneback(4)_v1.xlsx,New rule: Press 'space' when you see 1-back (i.e. the same letter as the one that appeared 1 letter ago.),w,None,,,,,,,,,0,14,14,14,0,0,0,0,,,,,,,,,,,,,,,,,,,,,,,,,,,,,,,,,,,,,,,,,,,,,,,,,,,,,,,,,,,888.2329533,None,891.214841,None,space,1.1726139,891.214841,None,888.2329533,None,1.847,894.2620853,None,None,1,894.2620853,None,,P049,FENCOG,1,Pre,2022_Jun_06_1103,N-Back (New Version 2021),2021.1.4,120.0385084
,,,,Conditions/Version_1/oneback(4)_v1.xlsx,New rule: Press 'space' when you see 1-back (i.e. the same letter as the one that appeared 1 letter ago.),q,None,,,,,,,,,0,14,14,14,0,1,1,1,,,,,,,,,,,,,,,,,,,,,,,,,,,,,,,,,,,,,,,,,,,,,,,,,,,,,,,,,,,,,,,,,,,,,1.7354,898.0024587,None,None,1,898.0024587,None,,P049,FENCOG,1,Pre,2022_Jun_06_1103,N-Back (New Version 2021),2021.1.4,120.0385084
,,,,Conditions/Version_1/oneback(4)_v1.xlsx,New rule: Press 'space' when you see 1-back (i.e. the same letter as the one that appeared 1 letter ago.),i,None,,,,,,,,,0,14,14,14,0,2,2,2,,,,,,,,,,,,,,,,,,,,,,,,,,,,,,,,,,,,,,,,,,,,,,,,,,,,,,,,,,,,,,,,,,,,,1.5742,901.5801288,None,None,1,901.5801288,None,,P049,FENCOG,1,Pre,2022_Jun_06_1103,N-Back (New Version 2021),2021.1.4,120.0385084
,,,,Conditions/Version_1/oneback(4)_v1.xlsx,New rule: Press 'space' when you see 1-back (i.e. the same letter as the one that appeared 1 letter ago.),t,None,,,,,,,,,0,14,14,14,0,3,3,3,,,,,,,,,,,,,,,,,,,,,,,,,,,,,,,,,,,,,,,,,,,,,,,,,,,,,,,,,,,,,,,,,,,,,1.7788,905.3671792,None,None,1,905.3671792,None,,P049,FENCOG,1,Pre,2022_Jun_06_1103,N-Back (New Version 2021),2021.1.4,120.0385084
,,,,Conditions/Version_1/oneback(4)_v1.xlsx,New rule: Press 'space' when you see 1-back (i.e. the same letter as the one that appeared 1 letter ago.),v,None,,,,,,,,,0,14,14,14,0,4,4,4,,,,,,,,,,,,,,,,,,,,,,,,,,,,,,,,,,,,,,,,,,,,,,,,,,,,,,,,,,,,,,,,,,,,,1.723,909.0927513,None,None,1,909.0927513,None,,P049,FENCOG,1,Pre,2022_Jun_06_1103,N-Back (New Version 2021),2021.1.4,120.0385084
,,,,Conditions/Version_1/oneback(4)_v1.xlsx,New rule: Press 'space' when you see 1-back (i.e. the same letter as the one that appeared 1 letter ago.),V,space,,,,,,,,,0,14,14,14,0,5,5,5,,,,,,,,,,,,,,,,,,,,,,,,,,,,,,,,,,,,,,,,,,,,,,,,,,,,,,,,,,,,,,,,,,,,,1.196,912.3013853,None,space,1,912.3013853,None,1.0141835,P049,FENCOG,1,Pre,2022_Jun_06_1103,N-Back (New Version 2021),2021.1.4,120.0385084
,,,,Conditions/Version_1/oneback(4)_v1.xlsx,New rule: Press 'space' when you see 1-back (i.e. the same letter as the one that appeared 1 letter ago.),v,space,,,,,,,,,0,14,14,14,0,6,6,6,,,,,,,,,,,,,,,,,,,,,,,,,,,,,,,,,,,,,,,,,,,,,,,,,,,,,,,,,,,,,,,,,,,,,1.9214,916.2324358,None,space,1,916.2324358,None,0.7470291,P049,FENCOG,1,Pre,2022_Jun_06_1103,N-Back (New Version 2021),2021.1.4,120.0385084
,,,,Conditions/Version_1/oneback(4)_v1.xlsx,New rule: Press 'space' when you see 1-back (i.e. the same letter as the one that appeared 1 letter ago.),p,None,,,,,,,,,0,14,14,14,0,7,7,7,,,,,,,,,,,,,,,,,,,,,,,,,,,,,,,,,,,,,,,,,,,,,,,,,,,,,,,,,,,,,,,,,,,,,1.0596,919.3047038,None,None,1,919.3047038,None,,P049,FENCOG,1,Pre,2022_Jun_06_1103,N-Back (New Version 2021),2021.1.4,120.0385084
,,,,Conditions/Version_1/oneback(4)_v1.xlsx,New rule: Press 'space' when you see 1-back (i.e. the same letter as the one that appeared 1 letter ago.),w,None,,,,,,,,,0,14,14,14,0,8,8,8,,,,,,,,,,,,,,,,,,,,,,,,,,,,,,,,,,,,,,,,,,,,,,,,,,,,,,,,,,,,,,,,,,,,,1.506,922.8131309,None,None,1,922.8131309,None,,P049,FENCOG,1,Pre,2022_Jun_06_1103,N-Back (New Version 2021),2021.1.4,120.0385084
,,,,Conditions/Version_1/oneback(4)_v1.xlsx,New rule: Press 'space' when you see 1-back (i.e. the same letter as the one that appeared 1 letter ago.),W,space,,,,,,,,,0,14,14,14,0,9,9,9,,,,,,,,,,,,,,,,,,,,,,,,,,,,,,,,,,,,,,,,,,,,,,,,,,,,,,,,,,,,,,,,,,,,,1.7168,926.5386176,None,space,1,926.5386176,None,0.616996,P049,FENCOG,1,Pre,2022_Jun_06_1103,N-Back (New Version 2021),2021.1.4,120.0385084
,,,,Conditions/Version_1/oneback(4)_v1.xlsx,New rule: Press 'space' when you see 1-back (i.e. the same letter as the one that appeared 1 letter ago.),,,,,,,,,,,0,14,14,14,,,,,,,,,,,,,,,,,,,,,,,,,,,,,,,,,,,,,,,,,,,,,,,,,,,,,,,,,,,,,,,,,,,,,,,,,,,,,,,,,P049,FENCOG,1,Pre,2022_Jun_06_1103,N-Back (New Version 2021),2021.1.4,120.0385084
,,,,Conditions/Version_1/threeback(4)_v1.xlsx,New rule: Press 'space' when you see 3-back (i.e. the same letter as the one that appeared 3 letters ago.),A,None,,,,,,,,,0,15,15,15,0,0,0,0,,,,,,,,,,,,,,,,,,,,,,,,,,,,,,,,,,,,,,,,,,,,,,,,,,,,,,,,,,,928.5693447,None,931.5543109,None,space,0.9372087,931.5543109,None,928.5693447,None,1.5928,934.1094442,None,None,1,934.1094442,None,,P049,FENCOG,1,Pre,2022_Jun_06_1103,N-Back (New Version 2021),2021.1.4,120.0385084
,,,,Conditions/Version_1/threeback(4)_v1.xlsx,New rule: Press 'space' when you see 3-back (i.e. the same letter as the one that appeared 3 letters ago.),n,None,,,,,,,,,0,15,15,15,0,1,1,1,,,,,,,,,,,,,,,,,,,,,,,,,,,,,,,,,,,,,,,,,,,,,,,,,,,,,,,,,,,,,,,,,,,,,1.816,937.9341936,None,None,1,937.9341936,None,,P049,FENCOG,1,Pre,2022_Jun_06_1103,N-Back (New Version 2021),2021.1.4,120.0385084
,,,,Conditions/Version_1/threeback(4)_v1.xlsx,New rule: Press 'space' when you see 3-back (i.e. the same letter as the one that appeared 3 letters ago.),g,None,,,,,,,,,0,15,15,15,0,2,2,2,,,,,,,,,,,,,,,,,,,,,,,,,,,,,,,,,,,,,,,,,,,,,,,,,,,,,,,,,,,,,,,,,,,,,1.3448,941.2898624,None,None,1,941.2898624,None,,P049,FENCOG,1,Pre,2022_Jun_06_1103,N-Back (New Version 2021),2021.1.4,120.0385084
,,,,Conditions/Version_1/threeback(4)_v1.xlsx,New rule: Press 'space' when you see 3-back (i.e. the same letter as the one that appeared 3 letters ago.),A,space,,,,,,,,,0,15,15,15,0,3,3,3,,,,,,,,,,,,,,,,,,,,,,,,,,,,,,,,,,,,,,,,,,,,,,,,,,,,,,,,,,,,,,,,,,,,,1.6672,944.9665587,None,space,1,944.9665587,None,0.7167855,P049,FENCOG,1,Pre,2022_Jun_06_1103,N-Back (New Version 2021),2021.1.4,120.0385084
,,,,Conditions/Version_1/threeback(4)_v1.xlsx,New rule: Press 'space' when you see 3-back (i.e. the same letter as the one that appeared 3 letters ago.),p,None,,,,,,,,,0,15,15,15,0,4,4,4,,,,,,,,,,,,,,,,,,,,,,,,,,,,,,,,,,,,,,,,,,,,,,,,,,,,,,,,,,,,,,,,,,,,,1.1154,948.0908052,None,None,1,948.0908052,None,,P049,FENCOG,1,Pre,2022_Jun_06_1103,N-Back (New Version 2021),2021.1.4,120.0385084
,,,,Conditions/Version_1/threeback(4)_v1.xlsx,New rule: Press 'space' when you see 3-back (i.e. the same letter as the one that appeared 3 letters ago.),O,None,,,,,,,,,0,15,15,15,0,5,5,5,,,,,,,,,,,,,,,,,,,,,,,,,,,,,,,,,,,,,,,,,,,,,,,,,,,,,,,,,,,,,,,,,,,,,1.4254,951.5248835,None,None,1,951.5248835,None,,P049,FENCOG,1,Pre,2022_Jun_06_1103,N-Back (New Version 2021),2021.1.4,120.0385084
,,,,Conditions/Version_1/threeback(4)_v1.xlsx,New rule: Press 'space' when you see 3-back (i.e. the same letter as the one that appeared 3 letters ago.),a,space,,,,,,,,,0,15,15,15,0,6,6,6,,,,,,,,,,,,,,,,,,,,,,,,,,,,,,,,,,,,,,,,,,,,,,,,,,,,,,,,,,,,,,,,,,,,,1.5308,955.0605702,None,space,1,955.0605702,None,0.9186674,P049,FENCOG,1,Pre,2022_Jun_06_1103,N-Back (New Version 2021),2021.1.4,120.0385084
,,,,Conditions/Version_1/threeback(4)_v1.xlsx,New rule: Press 'space' when you see 3-back (i.e. the same letter as the one that appeared 3 letters ago.),p,space,,,,,,,,,0,15,15,15,0,7,7,7,,,,,,,,,,,,,,,,,,,,,,,,,,,,,,,,,,,,,,,,,,,,,,,,,,,,,,,,,,,,,,,,,,,,,1.351,958.4180143,None,space,1,958.4180143,None,0.4654249,P049,FENCOG,1,Pre,2022_Jun_06_1103,N-Back (New Version 2021),2021.1.4,120.0385084
,,,,Conditions/Version_1/threeback(4)_v1.xlsx,New rule: Press 'space' when you see 3-back (i.e. the same letter as the one that appeared 3 letters ago.),x,None,,,,,,,,,0,15,15,15,0,8,8,8,,,,,,,,,,,,,,,,,,,,,,,,,,,,,,,,,,,,,,,,,,,,,,,,,,,,,,,,,,,,,,,,,,,,,1.01,961.4337363,None,None,1,961.4337363,None,,P049,FENCOG,1,Pre,2022_Jun_06_1103,N-Back (New Version 2021),2021.1.4,120.0385084
,,,,Conditions/Version_1/threeback(4)_v1.xlsx,New rule: Press 'space' when you see 3-back (i.e. the same letter as the one that appeared 3 letters ago.),X,None,,,,,,,,,0,15,15,15,0,9,9,9,,,,,,,,,,,,,,,,,,,,,,,,,,,,,,,,,,,,,,,,,,,,,,,,,,,,,,,,,,,,,,,,,,,,,1.2828,964.7160824,None,None,1,964.7160824,None,,P049,FENCOG,1,Pre,2022_Jun_06_1103,N-Back (New Version 2021),2021.1.4,120.0385084
,,,,Conditions/Version_1/threeback(4)_v1.xlsx,New rule: Press 'space' when you see 3-back (i.e. the same letter as the one that appeared 3 letters ago.),,,,,,,,,,,0,15,15,15,,,,,,,,,,,,,,,,,,,,,,,,,,,,,,,,,,,,,,,,,,,,,,,,,,,,,,,,,,,,,,,,,,,,,,,,,,,,,,,,,P049,FENCOG,1,Pre,2022_Jun_06_1103,N-Back (New Version 2021),2021.1.4,120.0385084
