CondFileP,InstructionsP,LettersDisplayedP,CorrectnessP,CondFile,Instructions,LettersDisplayed,Correctness,practicetrials.thisRepN,practicetrials.thisTrialN,practicetrials.thisN,practicetrials.thisIndex,InnerLoopPractice.thisRepN,InnerLoopPractice.thisTrialN,InnerLoopPractice.thisN,InnerLoopPractice.thisIndex,trials.thisRepN,trials.thisTrialN,trials.thisN,trials.thisIndex,InnerLoop.thisRepN,InnerLoop.thisTrialN,InnerLoop.thisN,InnerLoop.thisIndex,TaskVersionText.started,TaskVersionText.stopped,InstrKey1.keys,InstrKey1.rt,InstrKey1.started,InstrKey1.stopped,text.started,text.stopped,key_resp_4.keys,key_resp_4.rt,key_resp_4.started,key_resp_4.stopped,text_2.started,text_2.stopped,key_resp_3.keys,key_resp_3.rt,key_resp_3.started,key_resp_3.stopped,text_3.started,text_3.stopped,key_resp_2.keys,key_resp_2.rt,key_resp_2.started,key_resp_2.stopped,PractIn1.started,PractIn1.stopped,PractIn2.started,PractIn2.stopped,PractInstructionPass.keys,PractInstructionPass.rt,PractInstructionPass.started,PractInstructionPass.stopped,PractBlock1.started,PractBlock1.stopped,ISIjitterPractice,ISI_Pract_Fixation.started,ISI_Pract_Fixation.stopped,N_backP.started,N_backP.stopped,KeyPractice.keys,KeyPractice.corr,KeyPractice.rt,KeyPractice.started,KeyPractice.stopped,text_4.started,text_4.stopped,TransitionText.started,TransitionText.stopped,key_resp_6.keys,key_resp_6.rt,key_resp_6.started,key_resp_6.stopped,text_5.started,text_5.stopped,key_resp_5.keys,key_resp_5.rt,key_resp_5.started,key_resp_5.stopped,MainInt1.started,MainInt1.stopped,MainInt2.started,MainInt2.stopped,InstructionPass.keys,InstructionPass.rt,InstructionPass.started,InstructionPass.stopped,Blocks1.started,Blocks1.stopped,ISIjitter,N_backD.started,N_backD.stopped,key_resp.keys,key_resp.corr,key_resp.started,key_resp.stopped,key_resp.rt,participant,Study Name,Task Version (required to run),PRE/POST,date,expName,psychopyVersion,frameRate
,,,,,,,,,,,,,,,,,,,,,,,,62.7596179,None,space,7.9076647,63.2506149,None,,,,,,,,,,,,,,,,,,,,,,,,,,,,,,,,,,,,,,,,,,,,,,,,,,,,,,,,,,,,,,,,,,,,,,,P049,FENCOG,2,Post,2022_Jun_13_1411,N-Back (New Version 2021),2021.1.4,120.3330337
,,,,,,,,,,,,,,,,,,,,,,,,,,,,,,71.1920963,None,space,3.3080059,71.6902669,None,,,,,,,,,,,,,,,,,,,,,,,,,,,,,,,,,,,,,,,,,,,,,,,,,,,,,,,,,,,,,,,,,P049,FENCOG,2,Post,2022_Jun_13_1411,N-Back (New Version 2021),2021.1.4,120.3330337
,,,,,,,,,,,,,,,,,,,,,,,,,,,,,,,,,,,,75.0438113,None,space,2.6271941,75.5393119,None,,,,,,,,,,,,,,,,,,,,,,,,,,,,,,,,,,,,,,,,,,,,,,,,,,,,,,,,,,,P049,FENCOG,2,Post,2022_Jun_13_1411,N-Back (New Version 2021),2021.1.4,120.3330337
,,,,,,,,,,,,,,,,,,,,,,,,,,,,,,,,,,,,,,,,,,78.2001023,None,space,1.2858686,78.6964687,None,,,,,,,,,,,,,,,,,,,,,,,,,,,,,,,,,,,,,,,,,,,,,,,,,,,,,P049,FENCOG,2,Post,2022_Jun_13_1411,N-Back (New Version 2021),2021.1.4,120.3330337
Conditions/Version_2Pr/zeroback(1)_v2.xlsx,Rule: Press 'space' when you see the letter 'x' or 'X'.,x,space,,,,,0,0,0,0,0,0,0,0,,,,,,,,,,,,,,,,,,,,,,,,,,,,,,,,,81.3597333,None,84.3458929,None,space,0.4606081,84.3458929,None,81.3597333,None,1.59,84.8426634,None,86.4408426,None,space,1,0.621945,86.4408426,None,87.0839762,None,,,,,,,,,,,,,,,,,,,,,,,,,,,,,,,P049,FENCOG,2,Post,2022_Jun_13_1411,N-Back (New Version 2021),2021.1.4,120.3330337
Conditions/Version_2Pr/zeroback(1)_v2.xlsx,Rule: Press 'space' when you see the letter 'x' or 'X'.,R,None,,,,,0,0,0,0,0,1,1,1,,,,,,,,,,,,,,,,,,,,,,,,,,,,,,,,,,,,,,,,,,,1.765,88.5845373,None,90.3519659,None,None,1,,90.3519659,None,92.3584655,None,,,,,,,,,,,,,,,,,,,,,,,,,,,,,,,P049,FENCOG,2,Post,2022_Jun_13_1411,N-Back (New Version 2021),2021.1.4,120.3330337
Conditions/Version_2Pr/zeroback(1)_v2.xlsx,Rule: Press 'space' when you see the letter 'x' or 'X'.,p,None,,,,,0,0,0,0,0,2,2,2,,,,,,,,,,,,,,,,,,,,,,,,,,,,,,,,,,,,,,,,,,,1.715,93.8579723,None,95.5753145,None,None,1,,95.5753145,None,97.5819455,None,,,,,,,,,,,,,,,,,,,,,,,,,,,,,,,P049,FENCOG,2,Post,2022_Jun_13_1411,N-Back (New Version 2021),2021.1.4,120.3330337
Conditions/Version_2Pr/zeroback(1)_v2.xlsx,Rule: Press 'space' when you see the letter 'x' or 'X'.,O,None,,,,,0,0,0,0,0,3,3,3,,,,,,,,,,,,,,,,,,,,,,,,,,,,,,,,,,,,,,,,,,,1.615,99.0815249,None,100.6982904,None,None,1,,100.6982904,None,102.7054438,None,,,,,,,,,,,,,,,,,,,,,,,,,,,,,,,P049,FENCOG,2,Post,2022_Jun_13_1411,N-Back (New Version 2021),2021.1.4,120.3330337
Conditions/Version_2Pr/zeroback(1)_v2.xlsx,Rule: Press 'space' when you see the letter 'x' or 'X'.,i,None,,,,,0,0,0,0,0,4,4,4,,,,,,,,,,,,,,,,,,,,,,,,,,,,,,,,,,,,,,,,,,,1.34,104.2049813,None,105.5490656,None,None,1,,105.5490656,None,107.5540222,None,,,,,,,,,,,,,,,,,,,,,,,,,,,,,,,P049,FENCOG,2,Post,2022_Jun_13_1411,N-Back (New Version 2021),2021.1.4,120.3330337
Conditions/Version_2Pr/zeroback(1)_v2.xlsx,Rule: Press 'space' when you see the letter 'x' or 'X'.,U,None,,,,,0,0,0,0,0,5,5,5,,,,,,,,,,,,,,,,,,,,,,,,,,,,,,,,,,,,,,,,,,,1.265,109.0535325,None,110.3224,None,None,1,,110.3224,None,112.3275701,None,,,,,,,,,,,,,,,,,,,,,,,,,,,,,,,P049,FENCOG,2,Post,2022_Jun_13_1411,N-Back (New Version 2021),2021.1.4,120.3330337
Conditions/Version_2Pr/zeroback(1)_v2.xlsx,Rule: Press 'space' when you see the letter 'x' or 'X'.,N,None,,,,,0,0,0,0,0,6,6,6,,,,,,,,,,,,,,,,,,,,,,,,,,,,,,,,,,,,,,,,,,,1.89,113.8271223,None,115.7204617,None,None,1,,115.7204617,None,117.7259873,None,,,,,,,,,,,,,,,,,,,,,,,,,,,,,,,P049,FENCOG,2,Post,2022_Jun_13_1411,N-Back (New Version 2021),2021.1.4,120.3330337
Conditions/Version_2Pr/zeroback(1)_v2.xlsx,Rule: Press 'space' when you see the letter 'x' or 'X'.,m,None,,,,,0,0,0,0,0,7,7,7,,,,,,,,,,,,,,,,,,,,,,,,,,,,,,,,,,,,,,,,,,,1.465,119.2255336,None,120.692434,None,None,1,,120.692434,None,122.698391,None,,,,,,,,,,,,,,,,,,,,,,,,,,,,,,,P049,FENCOG,2,Post,2022_Jun_13_1411,N-Back (New Version 2021),2021.1.4,120.3330337
Conditions/Version_2Pr/zeroback(1)_v2.xlsx,Rule: Press 'space' when you see the letter 'x' or 'X'.,x,space,,,,,0,0,0,0,0,8,8,8,,,,,,,,,,,,,,,,,,,,,,,,,,,,,,,,,,,,,,,,,,,1.065,124.1987598,None,125.2656086,None,space,1,0.4689033,125.2656086,None,125.7504196,None,,,,,,,,,,,,,,,,,,,,,,,,,,,,,,,P049,FENCOG,2,Post,2022_Jun_13_1411,N-Back (New Version 2021),2021.1.4,120.3330337
Conditions/Version_2Pr/zeroback(1)_v2.xlsx,Rule: Press 'space' when you see the letter 'x' or 'X'.,X,space,,,,,0,0,0,0,0,9,9,9,,,,,,,,,,,,,,,,,,,,,,,,,,,,,,,,,,,,,,,,,,,1.84,127.2564598,None,129.1016941,None,space,1,0.4651775,129.1016941,None,129.5830647,None,,,,,,,,,,,,,,,,,,,,,,,,,,,,,,,P049,FENCOG,2,Post,2022_Jun_13_1411,N-Back (New Version 2021),2021.1.4,120.3330337
Conditions/Version_2Pr/zeroback(1)_v2.xlsx,Rule: Press 'space' when you see the letter 'x' or 'X'.,,,,,,,0,0,0,0,,,,,,,,,,,,,,,,,,,,,,,,,,,,,,,,,,,,,,,,,,,,,,,,,,,,,,,,,,,,,,,,,,,,,,,,,,,,,,,,,,,,,,,,,P049,FENCOG,2,Post,2022_Jun_13_1411,N-Back (New Version 2021),2021.1.4,120.3330337
Conditions/Version_2Pr/oneback(1)_v2.xlsx,New rule: Press 'space' when you see 1-back (i.e. the same letter as the one that appeared 1 letter ago.),r,None,,,,,0,1,1,1,0,0,0,0,,,,,,,,,,,,,,,,,,,,,,,,,,,,,,,,,131.1124481,None,134.1000293,None,space,3.4743197,134.1000293,None,131.1124481,None,1.64,137.6027356,None,139.2440825,None,None,1,,139.2440825,None,141.2437037,None,,,,,,,,,,,,,,,,,,,,,,,,,,,,,,,P049,FENCOG,2,Post,2022_Jun_13_1411,N-Back (New Version 2021),2021.1.4,120.3330337
Conditions/Version_2Pr/oneback(1)_v2.xlsx,New rule: Press 'space' when you see 1-back (i.e. the same letter as the one that appeared 1 letter ago.),t,None,,,,,0,1,1,1,0,1,1,1,,,,,,,,,,,,,,,,,,,,,,,,,,,,,,,,,,,,,,,,,,,1.815,142.7432436,None,144.5596601,None,None,1,,144.5596601,None,146.5588097,None,,,,,,,,,,,,,,,,,,,,,,,,,,,,,,,P049,FENCOG,2,Post,2022_Jun_13_1411,N-Back (New Version 2021),2021.1.4,120.3330337
Conditions/Version_2Pr/oneback(1)_v2.xlsx,New rule: Press 'space' when you see 1-back (i.e. the same letter as the one that appeared 1 letter ago.),Y,None,,,,,0,1,1,1,0,2,2,2,,,,,,,,,,,,,,,,,,,,,,,,,,,,,,,,,,,,,,,,,,,1.615,148.0582504,None,149.6747664,None,None,1,,149.6747664,None,151.6740304,None,,,,,,,,,,,,,,,,,,,,,,,,,,,,,,,P049,FENCOG,2,Post,2022_Jun_13_1411,N-Back (New Version 2021),2021.1.4,120.3330337
Conditions/Version_2Pr/oneback(1)_v2.xlsx,New rule: Press 'space' when you see 1-back (i.e. the same letter as the one that appeared 1 letter ago.),y,space,,,,,0,1,1,1,0,3,3,3,,,,,,,,,,,,,,,,,,,,,,,,,,,,,,,,,,,,,,,,,,,1.215,153.1736617,None,154.3902169,None,space,1,0.416092,154.3902169,None,154.815139,None,,,,,,,,,,,,,,,,,,,,,,,,,,,,,,,P049,FENCOG,2,Post,2022_Jun_13_1411,N-Back (New Version 2021),2021.1.4,120.3330337
Conditions/Version_2Pr/oneback(1)_v2.xlsx,New rule: Press 'space' when you see 1-back (i.e. the same letter as the one that appeared 1 letter ago.),p,None,,,,,0,1,1,1,0,4,4,4,,,,,,,,,,,,,,,,,,,,,,,,,,,,,,,,,,,,,,,,,,,1.74,156.3142381,None,158.0566242,None,None,1,,158.0566242,None,160.0635947,None,,,,,,,,,,,,,,,,,,,,,,,,,,,,,,,P049,FENCOG,2,Post,2022_Jun_13_1411,N-Back (New Version 2021),2021.1.4,120.3330337
Conditions/Version_2Pr/oneback(1)_v2.xlsx,New rule: Press 'space' when you see 1-back (i.e. the same letter as the one that appeared 1 letter ago.),P,space,,,,,0,1,1,1,0,5,5,5,,,,,,,,,,,,,,,,,,,,,,,,,,,,,,,,,,,,,,,,,,,1.99,161.5626627,None,163.5561703,None,space,1,0.9224125,163.5561703,None,164.4925,None,,,,,,,,,,,,,,,,,,,,,,,,,,,,,,,P049,FENCOG,2,Post,2022_Jun_13_1411,N-Back (New Version 2021),2021.1.4,120.3330337
Conditions/Version_2Pr/oneback(1)_v2.xlsx,New rule: Press 'space' when you see 1-back (i.e. the same letter as the one that appeared 1 letter ago.),e,None,,,,,0,1,1,1,0,6,6,6,,,,,,,,,,,,,,,,,,,,,,,,,,,,,,,,,,,,,,,,,,,1.44,165.995123,None,167.437773,None,None,1,,167.437773,None,169.4440917,None,,,,,,,,,,,,,,,,,,,,,,,,,,,,,,,P049,FENCOG,2,Post,2022_Jun_13_1411,N-Back (New Version 2021),2021.1.4,120.3330337
Conditions/Version_2Pr/oneback(1)_v2.xlsx,New rule: Press 'space' when you see 1-back (i.e. the same letter as the one that appeared 1 letter ago.),r,None,,,,,0,1,1,1,0,7,7,7,,,,,,,,,,,,,,,,,,,,,,,,,,,,,,,,,,,,,,,,,,,1.94,170.9436137,None,172.8845377,None,None,1,,172.8845377,None,174.8841602,None,,,,,,,,,,,,,,,,,,,,,,,,,,,,,,,P049,FENCOG,2,Post,2022_Jun_13_1411,N-Back (New Version 2021),2021.1.4,120.3330337
Conditions/Version_2Pr/oneback(1)_v2.xlsx,New rule: Press 'space' when you see 1-back (i.e. the same letter as the one that appeared 1 letter ago.),R,space,,,,,0,1,1,1,0,8,8,8,,,,,,,,,,,,,,,,,,,,,,,,,,,,,,,,,,,,,,,,,,,1.09,176.3837016,None,177.4758993,None,None,0,,177.4758993,None,179.4878465,None,,,,,,,,,,,,,,,,,,,,,,,,,,,,,,,P049,FENCOG,2,Post,2022_Jun_13_1411,N-Back (New Version 2021),2021.1.4,120.3330337
Conditions/Version_2Pr/oneback(1)_v2.xlsx,New rule: Press 'space' when you see 1-back (i.e. the same letter as the one that appeared 1 letter ago.),p,None,,,,,0,1,1,1,0,9,9,9,,,,,,,,,,,,,,,,,,,,,,,,,,,,,,,,,,,,,,,,,,,1.69,180.9823769,None,182.6746133,None,None,1,,182.6746133,None,184.6810893,None,,,,,,,,,,,,,,,,,,,,,,,,,,,,,,,P049,FENCOG,2,Post,2022_Jun_13_1411,N-Back (New Version 2021),2021.1.4,120.3330337
Conditions/Version_2Pr/oneback(1)_v2.xlsx,New rule: Press 'space' when you see 1-back (i.e. the same letter as the one that appeared 1 letter ago.),,,,,,,0,1,1,1,,,,,,,,,,,,,,,,,,,,,,,,,,,,,,,,,,,,,,,,,,,,,,,,,,,,,,,,,,,,,,,,,,,,,,,,,,,,,,,,,,,,,,,,,P049,FENCOG,2,Post,2022_Jun_13_1411,N-Back (New Version 2021),2021.1.4,120.3330337
Conditions/Version_2Pr/twoback(1)_v2.xlsx,New rule: Press 'space' when you see 2-back (i.e. the same letter as the one that appeared 2 letters ago.),r,None,,,,,0,2,2,2,0,0,0,0,,,,,,,,,,,,,,,,,,,,,,,,,,,,,,,,,186.2012372,None,189.1911073,None,space,6.639456,189.1911073,None,186.2012372,None,1.765,195.8609915,None,197.6281966,None,None,1,,197.6281966,None,199.6352252,None,,,,,,,,,,,,,,,,,,,,,,,,,,,,,,,P049,FENCOG,2,Post,2022_Jun_13_1411,N-Back (New Version 2021),2021.1.4,120.3330337
Conditions/Version_2Pr/twoback(1)_v2.xlsx,New rule: Press 'space' when you see 2-back (i.e. the same letter as the one that appeared 2 letters ago.),P,None,,,,,0,2,2,2,0,1,1,1,,,,,,,,,,,,,,,,,,,,,,,,,,,,,,,,,,,,,,,,,,,1.865,201.1346995,None,203.0015087,None,None,1,,203.0015087,None,205.0085984,None,,,,,,,,,,,,,,,,,,,,,,,,,,,,,,,P049,FENCOG,2,Post,2022_Jun_13_1411,N-Back (New Version 2021),2021.1.4,120.3330337
Conditions/Version_2Pr/twoback(1)_v2.xlsx,New rule: Press 'space' when you see 2-back (i.e. the same letter as the one that appeared 2 letters ago.),o,None,,,,,0,2,2,2,0,2,2,2,,,,,,,,,,,,,,,,,,,,,,,,,,,,,,,,,,,,,,,,,,,1.19,206.5082749,None,207.7011013,None,None,1,,207.7011013,None,209.7072918,None,,,,,,,,,,,,,,,,,,,,,,,,,,,,,,,P049,FENCOG,2,Post,2022_Jun_13_1411,N-Back (New Version 2021),2021.1.4,120.3330337
Conditions/Version_2Pr/twoback(1)_v2.xlsx,New rule: Press 'space' when you see 2-back (i.e. the same letter as the one that appeared 2 letters ago.),p,space,,,,,0,2,2,2,0,3,3,3,,,,,,,,,,,,,,,,,,,,,,,,,,,,,,,,,,,,,,,,,,,1.29,211.2068716,None,212.4978524,None,space,1,0.4125182,212.4978524,None,212.9244543,None,,,,,,,,,,,,,,,,,,,,,,,,,,,,,,,P049,FENCOG,2,Post,2022_Jun_13_1411,N-Back (New Version 2021),2021.1.4,120.3330337
Conditions/Version_2Pr/twoback(1)_v2.xlsx,New rule: Press 'space' when you see 2-back (i.e. the same letter as the one that appeared 2 letters ago.),Y,None,,,,,0,2,2,2,0,4,4,4,,,,,,,,,,,,,,,,,,,,,,,,,,,,,,,,,,,,,,,,,,,1.565,214.4308344,None,216.0005696,None,None,1,,216.0005696,None,218.0048264,None,,,,,,,,,,,,,,,,,,,,,,,,,,,,,,,P049,FENCOG,2,Post,2022_Jun_13_1411,N-Back (New Version 2021),2021.1.4,120.3330337
Conditions/Version_2Pr/twoback(1)_v2.xlsx,New rule: Press 'space' when you see 2-back (i.e. the same letter as the one that appeared 2 letters ago.),q,None,,,,,0,2,2,2,0,5,5,5,,,,,,,,,,,,,,,,,,,,,,,,,,,,,,,,,,,,,,,,,,,1.54,219.5043382,None,221.0480862,None,None,1,,221.0480862,None,223.0533073,None,,,,,,,,,,,,,,,,,,,,,,,,,,,,,,,P049,FENCOG,2,Post,2022_Jun_13_1411,N-Back (New Version 2021),2021.1.4,120.3330337
Conditions/Version_2Pr/twoback(1)_v2.xlsx,New rule: Press 'space' when you see 2-back (i.e. the same letter as the one that appeared 2 letters ago.),m,None,,,,,0,2,2,2,0,6,6,6,,,,,,,,,,,,,,,,,,,,,,,,,,,,,,,,,,,,,,,,,,,1.14,224.5528624,None,225.69762,None,None,1,,225.69762,None,227.7017945,None,,,,,,,,,,,,,,,,,,,,,,,,,,,,,,,P049,FENCOG,2,Post,2022_Jun_13_1411,N-Back (New Version 2021),2021.1.4,120.3330337
Conditions/Version_2Pr/twoback(1)_v2.xlsx,New rule: Press 'space' when you see 2-back (i.e. the same letter as the one that appeared 2 letters ago.),Q,space,,,,,0,2,2,2,0,7,7,7,,,,,,,,,,,,,,,,,,,,,,,,,,,,,,,,,,,,,,,,,,,1.415,229.2014868,None,230.6211438,None,space,1,0.5931601,230.6211438,None,231.2266416,None,,,,,,,,,,,,,,,,,,,,,,,,,,,,,,,P049,FENCOG,2,Post,2022_Jun_13_1411,N-Back (New Version 2021),2021.1.4,120.3330337
Conditions/Version_2Pr/twoback(1)_v2.xlsx,New rule: Press 'space' when you see 2-back (i.e. the same letter as the one that appeared 2 letters ago.),L,None,,,,,0,2,2,2,0,8,8,8,,,,,,,,,,,,,,,,,,,,,,,,,,,,,,,,,,,,,,,,,,,1.34,232.7337687,None,234.0772768,None,None,1,,234.0772768,None,236.0827509,None,,,,,,,,,,,,,,,,,,,,,,,,,,,,,,,P049,FENCOG,2,Post,2022_Jun_13_1411,N-Back (New Version 2021),2021.1.4,120.3330337
Conditions/Version_2Pr/twoback(1)_v2.xlsx,New rule: Press 'space' when you see 2-back (i.e. the same letter as the one that appeared 2 letters ago.),q,space,,,,,0,2,2,2,0,9,9,9,,,,,,,,,,,,,,,,,,,,,,,,,,,,,,,,,,,,,,,,,,,1.39,237.582332,None,238.9742721,None,space,1,0.5523042,238.9742721,None,239.5415733,None,,,,,,,,,,,,,,,,,,,,,,,,,,,,,,,P049,FENCOG,2,Post,2022_Jun_13_1411,N-Back (New Version 2021),2021.1.4,120.3330337
Conditions/Version_2Pr/twoback(1)_v2.xlsx,New rule: Press 'space' when you see 2-back (i.e. the same letter as the one that appeared 2 letters ago.),,,,,,,0,2,2,2,,,,,,,,,,,,,,,,,,,,,,,,,,,,,,,,,,,,,,,,,,,,,,,,,,,,,,,,,,,,,,,,,,,,,,,,,,,,,,,,,,,,,,,,,P049,FENCOG,2,Post,2022_Jun_13_1411,N-Back (New Version 2021),2021.1.4,120.3330337
Conditions/Version_2Pr/threeback(1)_v2.xlsx,New rule: Press 'space' when you see 3-back (i.e. the same letter as the one that appeared 3 letters ago.),u,None,,,,,0,3,3,3,0,0,0,0,,,,,,,,,,,,,,,,,,,,,,,,,,,,,,,,,241.0715036,None,244.0577152,None,space,3.4688577,244.0577152,None,241.0715036,None,1.315,247.5530359,None,248.8755555,None,None,1,,248.8755555,None,250.8783809,None,,,,,,,,,,,,,,,,,,,,,,,,,,,,,,,P049,FENCOG,2,Post,2022_Jun_13_1411,N-Back (New Version 2021),2021.1.4,120.3330337
Conditions/Version_2Pr/threeback(1)_v2.xlsx,New rule: Press 'space' when you see 3-back (i.e. the same letter as the one that appeared 3 letters ago.),U,None,,,,,0,3,3,3,0,1,1,1,,,,,,,,,,,,,,,,,,,,,,,,,,,,,,,,,,,,,,,,,,,1.54,252.3780252,None,253.9201921,None,None,1,,253.9201921,None,255.926924,None,,,,,,,,,,,,,,,,,,,,,,,,,,,,,,,P049,FENCOG,2,Post,2022_Jun_13_1411,N-Back (New Version 2021),2021.1.4,120.3330337
Conditions/Version_2Pr/threeback(1)_v2.xlsx,New rule: Press 'space' when you see 3-back (i.e. the same letter as the one that appeared 3 letters ago.),p,None,,,,,0,3,3,3,0,2,2,2,,,,,,,,,,,,,,,,,,,,,,,,,,,,,,,,,,,,,,,,,,,1.965,257.4265498,None,259.3932141,None,None,1,,259.3932141,None,261.4004248,None,,,,,,,,,,,,,,,,,,,,,,,,,,,,,,,P049,FENCOG,2,Post,2022_Jun_13_1411,N-Back (New Version 2021),2021.1.4,120.3330337
Conditions/Version_2Pr/threeback(1)_v2.xlsx,New rule: Press 'space' when you see 3-back (i.e. the same letter as the one that appeared 3 letters ago.),U,space,,,,,0,3,3,3,0,3,3,3,,,,,,,,,,,,,,,,,,,,,,,,,,,,,,,,,,,,,,,,,,,1.94,262.8999981,None,264.8406116,None,space,1,0.7339023,264.8406116,None,265.5853233,None,,,,,,,,,,,,,,,,,,,,,,,,,,,,,,,P049,FENCOG,2,Post,2022_Jun_13_1411,N-Back (New Version 2021),2021.1.4,120.3330337
Conditions/Version_2Pr/threeback(1)_v2.xlsx,New rule: Press 'space' when you see 3-back (i.e. the same letter as the one that appeared 3 letters ago.),e,None,,,,,0,3,3,3,0,4,4,4,,,,,,,,,,,,,,,,,,,,,,,,,,,,,,,,,,,,,,,,,,,1.34,267.0901598,None,268.4322788,None,None,1,,268.4322788,None,270.4394126,None,,,,,,,,,,,,,,,,,,,,,,,,,,,,,,,P049,FENCOG,2,Post,2022_Jun_13_1411,N-Back (New Version 2021),2021.1.4,120.3330337
Conditions/Version_2Pr/threeback(1)_v2.xlsx,New rule: Press 'space' when you see 3-back (i.e. the same letter as the one that appeared 3 letters ago.),R,None,,,,,0,3,3,3,0,5,5,5,,,,,,,,,,,,,,,,,,,,,,,,,,,,,,,,,,,,,,,,,,,1.165,271.9389138,None,273.1061342,None,None,1,,273.1061342,None,275.1127745,None,,,,,,,,,,,,,,,,,,,,,,,,,,,,,,,P049,FENCOG,2,Post,2022_Jun_13_1411,N-Back (New Version 2021),2021.1.4,120.3330337
Conditions/Version_2Pr/threeback(1)_v2.xlsx,New rule: Press 'space' when you see 3-back (i.e. the same letter as the one that appeared 3 letters ago.),p,None,,,,,0,3,3,3,0,6,6,6,,,,,,,,,,,,,,,,,,,,,,,,,,,,,,,,,,,,,,,,,,,1.79,276.6125416,None,278.4112612,None,None,1,,278.4112612,None,280.412128,None,,,,,,,,,,,,,,,,,,,,,,,,,,,,,,,P049,FENCOG,2,Post,2022_Jun_13_1411,N-Back (New Version 2021),2021.1.4,120.3330337
Conditions/Version_2Pr/threeback(1)_v2.xlsx,New rule: Press 'space' when you see 3-back (i.e. the same letter as the one that appeared 3 letters ago.),E,space,,,,,0,3,3,3,0,7,7,7,,,,,,,,,,,,,,,,,,,,,,,,,,,,,,,,,,,,,,,,,,,1.99,281.9110223,None,283.9052502,None,space,1,0.5413778,283.9052502,None,284.460772,None,,,,,,,,,,,,,,,,,,,,,,,,,,,,,,,P049,FENCOG,2,Post,2022_Jun_13_1411,N-Back (New Version 2021),2021.1.4,120.3330337
Conditions/Version_2Pr/threeback(1)_v2.xlsx,New rule: Press 'space' when you see 3-back (i.e. the same letter as the one that appeared 3 letters ago.),k,None,,,,,0,3,3,3,0,8,8,8,,,,,,,,,,,,,,,,,,,,,,,,,,,,,,,,,,,,,,,,,,,1.59,285.9596796,None,287.5536665,None,None,1,,287.5536665,None,289.558719,None,,,,,,,,,,,,,,,,,,,,,,,,,,,,,,,P049,FENCOG,2,Post,2022_Jun_13_1411,N-Back (New Version 2021),2021.1.4,120.3330337
Conditions/Version_2Pr/threeback(1)_v2.xlsx,New rule: Press 'space' when you see 3-back (i.e. the same letter as the one that appeared 3 letters ago.),m,None,,,,,0,3,3,3,0,9,9,9,,,,,,,,,,,,,,,,,,,,,,,,,,,,,,,,,,,,,,,,,,,1.415,291.0581197,None,292.4765382,None,None,1,,292.4765382,None,294.4823178,None,,,,,,,,,,,,,,,,,,,,,,,,,,,,,,,P049,FENCOG,2,Post,2022_Jun_13_1411,N-Back (New Version 2021),2021.1.4,120.3330337
Conditions/Version_2Pr/threeback(1)_v2.xlsx,New rule: Press 'space' when you see 3-back (i.e. the same letter as the one that appeared 3 letters ago.),,,,,,,0,3,3,3,,,,,,,,,,,,,,,,,,,,,,,,,,,,,,,,,,,,,,,,,,,,,,,,,,,,,,,,,,,,,,,,,,,,,,,,,,,,,,,,,,,,,,,,,P049,FENCOG,2,Post,2022_Jun_13_1411,N-Back (New Version 2021),2021.1.4,120.3330337
,,,,,,,,,,,,,,,,,,,,,,,,,,,,,,,,,,,,,,,,,,,,,,,,,,,,,,,,,,,,,,,,,,,,,,295.9907449,None,space,1.2050795,296.4818092,None,,,,,,,,,,,,,,,,,,,,,,,,,P049,FENCOG,2,Post,2022_Jun_13_1411,N-Back (New Version 2021),2021.1.4,120.3330337
,,,,,,,,,,,,,,,,,,,,,,,,,,,,,,,,,,,,,,,,,,,,,,,,,,,,,,,,,,,,,,,,,,,,,,,,,,,,297.7118882,None,space,4.7356913,298.2066752,None,,,,,,,,,,,,,,,,,,,P049,FENCOG,2,Post,2022_Jun_13_1411,N-Back (New Version 2021),2021.1.4,120.3330337
,,,,Conditions/Version_1/zeroback(1)_v1.xlsx,Rule: Press 'space' when you see the letter 'x' or 'X'.,b,None,,,,,,,,,0,0,0,0,0,0,0,0,,,,,,,,,,,,,,,,,,,,,,,,,,,,,,,,,,,,,,,,,,,,,,,,,,,,,,,,,,,303.0630933,None,306.0472868,None,space,1.9830713,306.0472868,None,303.0630933,None,1.0348,309.1054246,None,None,1,309.1054246,None,,P049,FENCOG,2,Post,2022_Jun_13_1411,N-Back (New Version 2021),2021.1.4,120.3330337
,,,,Conditions/Version_1/zeroback(1)_v1.xlsx,Rule: Press 'space' when you see the letter 'x' or 'X'.,T,None,,,,,,,,,0,0,0,0,0,1,1,1,,,,,,,,,,,,,,,,,,,,,,,,,,,,,,,,,,,,,,,,,,,,,,,,,,,,,,,,,,,,,,,,,,,,,1.1154,312.2271467,None,None,1,312.2271467,None,,P049,FENCOG,2,Post,2022_Jun_13_1411,N-Back (New Version 2021),2021.1.4,120.3330337
,,,,Conditions/Version_1/zeroback(1)_v1.xlsx,Rule: Press 'space' when you see the letter 'x' or 'X'.,L,None,,,,,,,,,0,0,0,0,0,2,2,2,,,,,,,,,,,,,,,,,,,,,,,,,,,,,,,,,,,,,,,,,,,,,,,,,,,,,,,,,,,,,,,,,,,,,1.3138,315.5441284,None,None,1,315.5441284,None,,P049,FENCOG,2,Post,2022_Jun_13_1411,N-Back (New Version 2021),2021.1.4,120.3330337
,,,,Conditions/Version_1/zeroback(1)_v1.xlsx,Rule: Press 'space' when you see the letter 'x' or 'X'.,x,space,,,,,,,,,0,0,0,0,0,3,3,3,,,,,,,,,,,,,,,,,,,,,,,,,,,,,,,,,,,,,,,,,,,,,,,,,,,,,,,,,,,,,,,,,,,,,1.1526,318.7094347,None,space,1,318.7094347,None,1.568934,P049,FENCOG,2,Post,2022_Jun_13_1411,N-Back (New Version 2021),2021.1.4,120.3330337
,,,,Conditions/Version_1/zeroback(1)_v1.xlsx,Rule: Press 'space' when you see the letter 'x' or 'X'.,o,None,,,,,,,,,0,0,0,0,0,4,4,4,,,,,,,,,,,,,,,,,,,,,,,,,,,,,,,,,,,,,,,,,,,,,,,,,,,,,,,,,,,,,,,,,,,,,1.0472,321.7657501,None,None,1,321.7657501,None,,P049,FENCOG,2,Post,2022_Jun_13_1411,N-Back (New Version 2021),2021.1.4,120.3330337
,,,,Conditions/Version_1/zeroback(1)_v1.xlsx,Rule: Press 'space' when you see the letter 'x' or 'X'.,P,None,,,,,,,,,0,0,0,0,0,5,5,5,,,,,,,,,,,,,,,,,,,,,,,,,,,,,,,,,,,,,,,,,,,,,,,,,,,,,,,,,,,,,,,,,,,,,1.227,324.9979134,None,None,1,324.9979134,None,,P049,FENCOG,2,Post,2022_Jun_13_1411,N-Back (New Version 2021),2021.1.4,120.3330337
,,,,Conditions/Version_1/zeroback(1)_v1.xlsx,Rule: Press 'space' when you see the letter 'x' or 'X'.,X,space,,,,,,,,,0,0,0,0,0,6,6,6,,,,,,,,,,,,,,,,,,,,,,,,,,,,,,,,,,,,,,,,,,,,,,,,,,,,,,,,,,,,,,,,,,,,,1.7168,328.7137381,None,space,1,328.7137381,None,0.3806463,P049,FENCOG,2,Post,2022_Jun_13_1411,N-Back (New Version 2021),2021.1.4,120.3330337
,,,,Conditions/Version_1/zeroback(1)_v1.xlsx,Rule: Press 'space' when you see the letter 'x' or 'X'.,n,None,,,,,,,,,0,0,0,0,0,7,7,7,,,,,,,,,,,,,,,,,,,,,,,,,,,,,,,,,,,,,,,,,,,,,,,,,,,,,,,,,,,,,,,,,,,,,1.3262,332.0492751,None,None,1,332.0492751,None,,P049,FENCOG,2,Post,2022_Jun_13_1411,N-Back (New Version 2021),2021.1.4,120.3330337
,,,,Conditions/Version_1/zeroback(1)_v1.xlsx,Rule: Press 'space' when you see the letter 'x' or 'X'.,M,None,,,,,,,,,0,0,0,0,0,8,8,8,,,,,,,,,,,,,,,,,,,,,,,,,,,,,,,,,,,,,,,,,,,,,,,,,,,,,,,,,,,,,,,,,,,,,1.134,335.1889661,None,None,1,335.1889661,None,,P049,FENCOG,2,Post,2022_Jun_13_1411,N-Back (New Version 2021),2021.1.4,120.3330337
,,,,Conditions/Version_1/zeroback(1)_v1.xlsx,Rule: Press 'space' when you see the letter 'x' or 'X'.,a,None,,,,,,,,,0,0,0,0,0,9,9,9,,,,,,,,,,,,,,,,,,,,,,,,,,,,,,,,,,,,,,,,,,,,,,,,,,,,,,,,,,,,,,,,,,,,,1.01,338.2162629,None,None,1,338.2162629,None,,P049,FENCOG,2,Post,2022_Jun_13_1411,N-Back (New Version 2021),2021.1.4,120.3330337
,,,,Conditions/Version_1/zeroback(1)_v1.xlsx,Rule: Press 'space' when you see the letter 'x' or 'X'.,,,,,,,,,,,0,0,0,0,,,,,,,,,,,,,,,,,,,,,,,,,,,,,,,,,,,,,,,,,,,,,,,,,,,,,,,,,,,,,,,,,,,,,,,,,,,,,,,,,P049,FENCOG,2,Post,2022_Jun_13_1411,N-Back (New Version 2021),2021.1.4,120.3330337
,,,,Conditions/Version_1/oneback(1)_v1.xlsx,New rule: Press 'space' when you see 1-back (i.e. the same letter as the one that appeared 1 letter ago.),b,None,,,,,,,,,0,1,1,1,0,0,0,0,,,,,,,,,,,,,,,,,,,,,,,,,,,,,,,,,,,,,,,,,,,,,,,,,,,,,,,,,,,340.2505746,None,343.235791,None,space,0.4189407,343.235791,None,340.2505746,None,1.3882,345.0850361,None,None,1,345.0850361,None,,P049,FENCOG,2,Post,2022_Jun_13_1411,N-Back (New Version 2021),2021.1.4,120.3330337
,,,,Conditions/Version_1/oneback(1)_v1.xlsx,New rule: Press 'space' when you see 1-back (i.e. the same letter as the one that appeared 1 letter ago.),p,None,,,,,,,,,0,1,1,1,0,1,1,1,,,,,,,,,,,,,,,,,,,,,,,,,,,,,,,,,,,,,,,,,,,,,,,,,,,,,,,,,,,,,,,,,,,,,1.3014,348.3995115,None,None,1,348.3995115,None,,P049,FENCOG,2,Post,2022_Jun_13_1411,N-Back (New Version 2021),2021.1.4,120.3330337
,,,,Conditions/Version_1/oneback(1)_v1.xlsx,New rule: Press 'space' when you see 1-back (i.e. the same letter as the one that appeared 1 letter ago.),M,None,,,,,,,,,0,1,1,1,0,2,2,2,,,,,,,,,,,,,,,,,,,,,,,,,,,,,,,,,,,,,,,,,,,,,,,,,,,,,,,,,,,,,,,,,,,,,1.9958,352.3984119,None,None,1,352.3984119,None,,P049,FENCOG,2,Post,2022_Jun_13_1411,N-Back (New Version 2021),2021.1.4,120.3330337
,,,,Conditions/Version_1/oneback(1)_v1.xlsx,New rule: Press 'space' when you see 1-back (i.e. the same letter as the one that appeared 1 letter ago.),M,space,,,,,,,,,0,1,1,1,0,3,3,3,,,,,,,,,,,,,,,,,,,,,,,,,,,,,,,,,,,,,,,,,,,,,,,,,,,,,,,,,,,,,,,,,,,,,1.3262,355.7309252,None,space,1,355.7309252,None,0.4995303,P049,FENCOG,2,Post,2022_Jun_13_1411,N-Back (New Version 2021),2021.1.4,120.3330337
,,,,Conditions/Version_1/oneback(1)_v1.xlsx,New rule: Press 'space' when you see 1-back (i.e. the same letter as the one that appeared 1 letter ago.),n,None,,,,,,,,,0,1,1,1,0,4,4,4,,,,,,,,,,,,,,,,,,,,,,,,,,,,,,,,,,,,,,,,,,,,,,,,,,,,,,,,,,,,,,,,,,,,,1.2952,359.029755,None,None,1,359.029755,None,,P049,FENCOG,2,Post,2022_Jun_13_1411,N-Back (New Version 2021),2021.1.4,120.3330337
,,,,Conditions/Version_1/oneback(1)_v1.xlsx,New rule: Press 'space' when you see 1-back (i.e. the same letter as the one that appeared 1 letter ago.),g,None,,,,,,,,,0,1,1,1,0,5,5,5,,,,,,,,,,,,,,,,,,,,,,,,,,,,,,,,,,,,,,,,,,,,,,,,,,,,,,,,,,,,,,,,,,,,,1.5246,362.5592175,None,None,1,362.5592175,None,,P049,FENCOG,2,Post,2022_Jun_13_1411,N-Back (New Version 2021),2021.1.4,120.3330337
,,,,Conditions/Version_1/oneback(1)_v1.xlsx,New rule: Press 'space' when you see 1-back (i.e. the same letter as the one that appeared 1 letter ago.),P,None,,,,,,,,,0,1,1,1,0,6,6,6,,,,,,,,,,,,,,,,,,,,,,,,,,,,,,,,,,,,,,,,,,,,,,,,,,,,,,,,,,,,,,,,,,,,,1.2022,365.7717499,None,None,1,365.7717499,None,,P049,FENCOG,2,Post,2022_Jun_13_1411,N-Back (New Version 2021),2021.1.4,120.3330337
,,,,Conditions/Version_1/oneback(1)_v1.xlsx,New rule: Press 'space' when you see 1-back (i.e. the same letter as the one that appeared 1 letter ago.),o,None,,,,,,,,,0,1,1,1,0,7,7,7,,,,,,,,,,,,,,,,,,,,,,,,,,,,,,,,,,,,,,,,,,,,,,,,,,,,,,,,,,,,,,,,,,,,,1.2642,369.0442705,None,None,1,369.0442705,None,,P049,FENCOG,2,Post,2022_Jun_13_1411,N-Back (New Version 2021),2021.1.4,120.3330337
,,,,Conditions/Version_1/oneback(1)_v1.xlsx,New rule: Press 'space' when you see 1-back (i.e. the same letter as the one that appeared 1 letter ago.),f,None,,,,,,,,,0,1,1,1,0,8,8,8,,,,,,,,,,,,,,,,,,,,,,,,,,,,,,,,,,,,,,,,,,,,,,,,,,,,,,,,,,,,,,,,,,,,,1.3696,372.4182498,None,None,1,372.4182498,None,,P049,FENCOG,2,Post,2022_Jun_13_1411,N-Back (New Version 2021),2021.1.4,120.3330337
,,,,Conditions/Version_1/oneback(1)_v1.xlsx,New rule: Press 'space' when you see 1-back (i.e. the same letter as the one that appeared 1 letter ago.),F,space,,,,,,,,,0,1,1,1,0,9,9,9,,,,,,,,,,,,,,,,,,,,,,,,,,,,,,,,,,,,,,,,,,,,,,,,,,,,,,,,,,,,,,,,,,,,,1.5184,375.9518848,None,space,1,375.9518848,None,0.4226621,P049,FENCOG,2,Post,2022_Jun_13_1411,N-Back (New Version 2021),2021.1.4,120.3330337
,,,,Conditions/Version_1/oneback(1)_v1.xlsx,New rule: Press 'space' when you see 1-back (i.e. the same letter as the one that appeared 1 letter ago.),,,,,,,,,,,0,1,1,1,,,,,,,,,,,,,,,,,,,,,,,,,,,,,,,,,,,,,,,,,,,,,,,,,,,,,,,,,,,,,,,,,,,,,,,,,,,,,,,,,P049,FENCOG,2,Post,2022_Jun_13_1411,N-Back (New Version 2021),2021.1.4,120.3330337
,,,,Conditions/Version_1/twoback(1)_v1.xlsx,New rule: Press 'space' when you see 2-back (i.e. the same letter as the one that appeared 2 letters ago.),b,None,,,,,,,,,0,2,2,2,0,0,0,0,,,,,,,,,,,,,,,,,,,,,,,,,,,,,,,,,,,,,,,,,,,,,,,,,,,,,,,,,,,377.9802571,None,380.9665352,None,space,0.3998454,380.9665352,None,377.9802571,None,1.9152,383.3142152,None,None,1,383.3142152,None,,P049,FENCOG,2,Post,2022_Jun_13_1411,N-Back (New Version 2021),2021.1.4,120.3330337
,,,,Conditions/Version_1/twoback(1)_v1.xlsx,New rule: Press 'space' when you see 2-back (i.e. the same letter as the one that appeared 2 letters ago.),h,None,,,,,,,,,0,2,2,2,0,1,1,1,,,,,,,,,,,,,,,,,,,,,,,,,,,,,,,,,,,,,,,,,,,,,,,,,,,,,,,,,,,,,,,,,,,,,1.692,387.013091,None,None,1,387.013091,None,,P049,FENCOG,2,Post,2022_Jun_13_1411,N-Back (New Version 2021),2021.1.4,120.3330337
,,,,Conditions/Version_1/twoback(1)_v1.xlsx,New rule: Press 'space' when you see 2-back (i.e. the same letter as the one that appeared 2 letters ago.),j,None,,,,,,,,,0,2,2,2,0,2,2,2,,,,,,,,,,,,,,,,,,,,,,,,,,,,,,,,,,,,,,,,,,,,,,,,,,,,,,,,,,,,,,,,,,,,,1.7478,390.7633355,None,None,1,390.7633355,None,,P049,FENCOG,2,Post,2022_Jun_13_1411,N-Back (New Version 2021),2021.1.4,120.3330337
,,,,Conditions/Version_1/twoback(1)_v1.xlsx,New rule: Press 'space' when you see 2-back (i.e. the same letter as the one that appeared 2 letters ago.),H,space,,,,,,,,,0,2,2,2,0,3,3,3,,,,,,,,,,,,,,,,,,,,,,,,,,,,,,,,,,,,,,,,,,,,,,,,,,,,,,,,,,,,,,,,,,,,,1.4812,394.2546919,None,space,1,394.2546919,None,0.6477846,P049,FENCOG,2,Post,2022_Jun_13_1411,N-Back (New Version 2021),2021.1.4,120.3330337
,,,,Conditions/Version_1/twoback(1)_v1.xlsx,New rule: Press 'space' when you see 2-back (i.e. the same letter as the one that appeared 2 letters ago.),p,None,,,,,,,,,0,2,2,2,0,4,4,4,,,,,,,,,,,,,,,,,,,,,,,,,,,,,,,,,,,,,,,,,,,,,,,,,,,,,,,,,,,,,,,,,,,,,1.6486,397.9114093,None,None,1,397.9114093,None,,P049,FENCOG,2,Post,2022_Jun_13_1411,N-Back (New Version 2021),2021.1.4,120.3330337
,,,,Conditions/Version_1/twoback(1)_v1.xlsx,New rule: Press 'space' when you see 2-back (i.e. the same letter as the one that appeared 2 letters ago.),p,None,,,,,,,,,0,2,2,2,0,5,5,5,,,,,,,,,,,,,,,,,,,,,,,,,,,,,,,,,,,,,,,,,,,,,,,,,,,,,,,,,,,,,,,,,,,,,1.5246,401.4424811,None,None,1,401.4424811,None,,P049,FENCOG,2,Post,2022_Jun_13_1411,N-Back (New Version 2021),2021.1.4,120.3330337
,,,,Conditions/Version_1/twoback(1)_v1.xlsx,New rule: Press 'space' when you see 2-back (i.e. the same letter as the one that appeared 2 letters ago.),w,None,,,,,,,,,0,2,2,2,0,6,6,6,,,,,,,,,,,,,,,,,,,,,,,,,,,,,,,,,,,,,,,,,,,,,,,,,,,,,,,,,,,,,,,,,,,,,1.5432,404.9931431,None,None,1,404.9931431,None,,P049,FENCOG,2,Post,2022_Jun_13_1411,N-Back (New Version 2021),2021.1.4,120.3330337
,,,,Conditions/Version_1/twoback(1)_v1.xlsx,New rule: Press 'space' when you see 2-back (i.e. the same letter as the one that appeared 2 letters ago.),R,None,,,,,,,,,0,2,2,2,0,7,7,7,,,,,,,,,,,,,,,,,,,,,,,,,,,,,,,,,,,,,,,,,,,,,,,,,,,,,,,,,,,,,,,,,,,,,1.2518,408.2568946,None,None,1,408.2568946,None,,P049,FENCOG,2,Post,2022_Jun_13_1411,N-Back (New Version 2021),2021.1.4,120.3330337
,,,,Conditions/Version_1/twoback(1)_v1.xlsx,New rule: Press 'space' when you see 2-back (i.e. the same letter as the one that appeared 2 letters ago.),a,None,,,,,,,,,0,2,2,2,0,8,8,8,,,,,,,,,,,,,,,,,,,,,,,,,,,,,,,,,,,,,,,,,,,,,,,,,,,,,,,,,,,,,,,,,,,,,1.6734,411.9308087,None,None,1,411.9308087,None,,P049,FENCOG,2,Post,2022_Jun_13_1411,N-Back (New Version 2021),2021.1.4,120.3330337
,,,,Conditions/Version_1/twoback(1)_v1.xlsx,New rule: Press 'space' when you see 2-back (i.e. the same letter as the one that appeared 2 letters ago.),r,space,,,,,,,,,0,2,2,2,0,9,9,9,,,,,,,,,,,,,,,,,,,,,,,,,,,,,,,,,,,,,,,,,,,,,,,,,,,,,,,,,,,,,,,,,,,,,1.4068,415.3393498,None,space,1,415.3393498,None,0.555236,P049,FENCOG,2,Post,2022_Jun_13_1411,N-Back (New Version 2021),2021.1.4,120.3330337
,,,,Conditions/Version_1/twoback(1)_v1.xlsx,New rule: Press 'space' when you see 2-back (i.e. the same letter as the one that appeared 2 letters ago.),,,,,,,,,,,0,2,2,2,,,,,,,,,,,,,,,,,,,,,,,,,,,,,,,,,,,,,,,,,,,,,,,,,,,,,,,,,,,,,,,,,,,,,,,,,,,,,,,,,P049,FENCOG,2,Post,2022_Jun_13_1411,N-Back (New Version 2021),2021.1.4,120.3330337
,,,,Conditions/Version_1/threeback(1)_v1.xlsx,New rule: Press 'space' when you see 3-back (i.e. the same letter as the one that appeared 3 letters ago.),r,None,,,,,,,,,0,3,3,3,0,0,0,0,,,,,,,,,,,,,,,,,,,,,,,,,,,,,,,,,,,,,,,,,,,,,,,,,,,,,,,,,,,417.3665752,None,420.3550472,None,space,0.7315292,420.3550472,None,417.3665752,None,1.8098,422.9361293,None,None,1,422.9361293,None,,P049,FENCOG,2,Post,2022_Jun_13_1411,N-Back (New Version 2021),2021.1.4,120.3330337
,,,,Conditions/Version_1/threeback(1)_v1.xlsx,New rule: Press 'space' when you see 3-back (i.e. the same letter as the one that appeared 3 letters ago.),o,None,,,,,,,,,0,3,3,3,0,1,1,1,,,,,,,,,,,,,,,,,,,,,,,,,,,,,,,,,,,,,,,,,,,,,,,,,,,,,,,,,,,,,,,,,,,,,1.4254,426.3609475,None,None,1,426.3609475,None,,P049,FENCOG,2,Post,2022_Jun_13_1411,N-Back (New Version 2021),2021.1.4,120.3330337
,,,,Conditions/Version_1/threeback(1)_v1.xlsx,New rule: Press 'space' when you see 3-back (i.e. the same letter as the one that appeared 3 letters ago.),P,None,,,,,,,,,0,3,3,3,0,2,2,2,,,,,,,,,,,,,,,,,,,,,,,,,,,,,,,,,,,,,,,,,,,,,,,,,,,,,,,,,,,,,,,,,,,,,1.196,429.5682253,None,None,1,429.5682253,None,,P049,FENCOG,2,Post,2022_Jun_13_1411,N-Back (New Version 2021),2021.1.4,120.3330337
,,,,Conditions/Version_1/threeback(1)_v1.xlsx,New rule: Press 'space' when you see 3-back (i.e. the same letter as the one that appeared 3 letters ago.),R,space,,,,,,,,,0,3,3,3,0,3,3,3,,,,,,,,,,,,,,,,,,,,,,,,,,,,,,,,,,,,,,,,,,,,,,,,,,,,,,,,,,,,,,,,,,,,,1.6796,433.260006,None,space,1,433.260006,None,0.6665759,P049,FENCOG,2,Post,2022_Jun_13_1411,N-Back (New Version 2021),2021.1.4,120.3330337
,,,,Conditions/Version_1/threeback(1)_v1.xlsx,New rule: Press 'space' when you see 3-back (i.e. the same letter as the one that appeared 3 letters ago.),p,None,,,,,,,,,0,3,3,3,0,4,4,4,,,,,,,,,,,,,,,,,,,,,,,,,,,,,,,,,,,,,,,,,,,,,,,,,,,,,,,,,,,,,,,,,,,,,1.4688,436.7400889,None,None,1,436.7400889,None,,P049,FENCOG,2,Post,2022_Jun_13_1411,N-Back (New Version 2021),2021.1.4,120.3330337
,,,,Conditions/Version_1/threeback(1)_v1.xlsx,New rule: Press 'space' when you see 3-back (i.e. the same letter as the one that appeared 3 letters ago.),E,None,,,,,,,,,0,3,3,3,0,5,5,5,,,,,,,,,,,,,,,,,,,,,,,,,,,,,,,,,,,,,,,,,,,,,,,,,,,,,,,,,,,,,,,,,,,,,1.8656,440.6054674,None,None,1,440.6054674,None,,P049,FENCOG,2,Post,2022_Jun_13_1411,N-Back (New Version 2021),2021.1.4,120.3330337
,,,,Conditions/Version_1/threeback(1)_v1.xlsx,New rule: Press 'space' when you see 3-back (i.e. the same letter as the one that appeared 3 letters ago.),e,None,,,,,,,,,0,3,3,3,0,6,6,6,,,,,,,,,,,,,,,,,,,,,,,,,,,,,,,,,,,,,,,,,,,,,,,,,,,,,,,,,,,,,,,,,,,,,1.5618,444.1715372,None,None,1,444.1715372,None,,P049,FENCOG,2,Post,2022_Jun_13_1411,N-Back (New Version 2021),2021.1.4,120.3330337
,,,,Conditions/Version_1/threeback(1)_v1.xlsx,New rule: Press 'space' when you see 3-back (i.e. the same letter as the one that appeared 3 letters ago.),m,None,,,,,,,,,0,3,3,3,0,7,7,7,,,,,,,,,,,,,,,,,,,,,,,,,,,,,,,,,,,,,,,,,,,,,,,,,,,,,,,,,,,,,,,,,,,,,1.723,447.8952328,None,None,1,447.8952328,None,,P049,FENCOG,2,Post,2022_Jun_13_1411,N-Back (New Version 2021),2021.1.4,120.3330337
,,,,Conditions/Version_1/threeback(1)_v1.xlsx,New rule: Press 'space' when you see 3-back (i.e. the same letter as the one that appeared 3 letters ago.),n,None,,,,,,,,,0,3,3,3,0,8,8,8,,,,,,,,,,,,,,,,,,,,,,,,,,,,,,,,,,,,,,,,,,,,,,,,,,,,,,,,,,,,,,,,,,,,,1.382,451.2795218,None,None,1,451.2795218,None,,P049,FENCOG,2,Post,2022_Jun_13_1411,N-Back (New Version 2021),2021.1.4,120.3330337
,,,,Conditions/Version_1/threeback(1)_v1.xlsx,New rule: Press 'space' when you see 3-back (i.e. the same letter as the one that appeared 3 letters ago.),e,space,,,,,,,,,0,3,3,3,0,9,9,9,,,,,,,,,,,,,,,,,,,,,,,,,,,,,,,,,,,,,,,,,,,,,,,,,,,,,,,,,,,,,,,,,,,,,1.9028,455.1953862,None,space,1,455.1953862,None,1.2592338,P049,FENCOG,2,Post,2022_Jun_13_1411,N-Back (New Version 2021),2021.1.4,120.3330337
,,,,Conditions/Version_1/threeback(1)_v1.xlsx,New rule: Press 'space' when you see 3-back (i.e. the same letter as the one that appeared 3 letters ago.),,,,,,,,,,,0,3,3,3,,,,,,,,,,,,,,,,,,,,,,,,,,,,,,,,,,,,,,,,,,,,,,,,,,,,,,,,,,,,,,,,,,,,,,,,,,,,,,,,,P049,FENCOG,2,Post,2022_Jun_13_1411,N-Back (New Version 2021),2021.1.4,120.3330337
,,,,Conditions/Version_1/oneback(2)_v1.xlsx,New rule: Press 'space' when you see 1-back (i.e. the same letter as the one that appeared 1 letter ago.),q,None,,,,,,,,,0,4,4,4,0,0,0,0,,,,,,,,,,,,,,,,,,,,,,,,,,,,,,,,,,,,,,,,,,,,,,,,,,,,,,,,,,,457.2231009,None,460.2104929,None,space,0.7402357,460.2104929,None,457.2231009,None,1.6858,462.6671271,None,None,1,462.6671271,None,,P049,FENCOG,2,Post,2022_Jun_13_1411,N-Back (New Version 2021),2021.1.4,120.3330337
,,,,Conditions/Version_1/oneback(2)_v1.xlsx,New rule: Press 'space' when you see 1-back (i.e. the same letter as the one that appeared 1 letter ago.),Q,space,,,,,,,,,0,4,4,4,0,1,1,1,,,,,,,,,,,,,,,,,,,,,,,,,,,,,,,,,,,,,,,,,,,,,,,,,,,,,,,,,,,,,,,,,,,,,1.041,465.7162078,None,space,1,465.7162078,None,0.5624349,P049,FENCOG,2,Post,2022_Jun_13_1411,N-Back (New Version 2021),2021.1.4,120.3330337
,,,,Conditions/Version_1/oneback(2)_v1.xlsx,New rule: Press 'space' when you see 1-back (i.e. the same letter as the one that appeared 1 letter ago.),P,None,,,,,,,,,0,4,4,4,0,2,2,2,,,,,,,,,,,,,,,,,,,,,,,,,,,,,,,,,,,,,,,,,,,,,,,,,,,,,,,,,,,,,,,,,,,,,1.1588,468.8819625,None,None,1,468.8819625,None,,P049,FENCOG,2,Post,2022_Jun_13_1411,N-Back (New Version 2021),2021.1.4,120.3330337
,,,,Conditions/Version_1/oneback(2)_v1.xlsx,New rule: Press 'space' when you see 1-back (i.e. the same letter as the one that appeared 1 letter ago.),o,None,,,,,,,,,0,4,4,4,0,3,3,3,,,,,,,,,,,,,,,,,,,,,,,,,,,,,,,,,,,,,,,,,,,,,,,,,,,,,,,,,,,,,,,,,,,,,1.1836,472.0758055,None,None,1,472.0758055,None,,P049,FENCOG,2,Post,2022_Jun_13_1411,N-Back (New Version 2021),2021.1.4,120.3330337
,,,,Conditions/Version_1/oneback(2)_v1.xlsx,New rule: Press 'space' when you see 1-back (i.e. the same letter as the one that appeared 1 letter ago.),m,None,,,,,,,,,0,4,4,4,0,4,4,4,,,,,,,,,,,,,,,,,,,,,,,,,,,,,,,,,,,,,,,,,,,,,,,,,,,,,,,,,,,,,,,,,,,,,1.2146,475.2955204,None,None,1,475.2955204,None,,P049,FENCOG,2,Post,2022_Jun_13_1411,N-Back (New Version 2021),2021.1.4,120.3330337
,,,,Conditions/Version_1/oneback(2)_v1.xlsx,New rule: Press 'space' when you see 1-back (i.e. the same letter as the one that appeared 1 letter ago.),Z,None,,,,,,,,,0,4,4,4,0,5,5,5,,,,,,,,,,,,,,,,,,,,,,,,,,,,,,,,,,,,,,,,,,,,,,,,,,,,,,,,,,,,,,,,,,,,,1.6176,478.9221784,None,None,1,478.9221784,None,,P049,FENCOG,2,Post,2022_Jun_13_1411,N-Back (New Version 2021),2021.1.4,120.3330337
,,,,Conditions/Version_1/oneback(2)_v1.xlsx,New rule: Press 'space' when you see 1-back (i.e. the same letter as the one that appeared 1 letter ago.),c,None,,,,,,,,,0,4,4,4,0,6,6,6,,,,,,,,,,,,,,,,,,,,,,,,,,,,,,,,,,,,,,,,,,,,,,,,,,,,,,,,,,,,,,,,,,,,,1.1092,482.0532068,None,None,1,482.0532068,None,,P049,FENCOG,2,Post,2022_Jun_13_1411,N-Back (New Version 2021),2021.1.4,120.3330337
,,,,Conditions/Version_1/oneback(2)_v1.xlsx,New rule: Press 'space' when you see 1-back (i.e. the same letter as the one that appeared 1 letter ago.),c,space,,,,,,,,,0,4,4,4,0,7,7,7,,,,,,,,,,,,,,,,,,,,,,,,,,,,,,,,,,,,,,,,,,,,,,,,,,,,,,,,,,,,,,,,,,,,,1.6982,485.751479,None,space,1,485.751479,None,1.2071002,P049,FENCOG,2,Post,2022_Jun_13_1411,N-Back (New Version 2021),2021.1.4,120.3330337
,,,,Conditions/Version_1/oneback(2)_v1.xlsx,New rule: Press 'space' when you see 1-back (i.e. the same letter as the one that appeared 1 letter ago.),P,None,,,,,,,,,0,4,4,4,0,8,8,8,,,,,,,,,,,,,,,,,,,,,,,,,,,,,,,,,,,,,,,,,,,,,,,,,,,,,,,,,,,,,,,,,,,,,1.6238,489.384307,None,None,1,489.384307,None,,P049,FENCOG,2,Post,2022_Jun_13_1411,N-Back (New Version 2021),2021.1.4,120.3330337
,,,,Conditions/Version_1/oneback(2)_v1.xlsx,New rule: Press 'space' when you see 1-back (i.e. the same letter as the one that appeared 1 letter ago.),p,space,,,,,,,,,0,4,4,4,0,9,9,9,,,,,,,,,,,,,,,,,,,,,,,,,,,,,,,,,,,,,,,,,,,,,,,,,,,,,,,,,,,,,,,,,,,,,1.4998,492.8985112,None,None,0,492.8985112,None,,P049,FENCOG,2,Post,2022_Jun_13_1411,N-Back (New Version 2021),2021.1.4,120.3330337
,,,,Conditions/Version_1/oneback(2)_v1.xlsx,New rule: Press 'space' when you see 1-back (i.e. the same letter as the one that appeared 1 letter ago.),,,,,,,,,,,0,4,4,4,,,,,,,,,,,,,,,,,,,,,,,,,,,,,,,,,,,,,,,,,,,,,,,,,,,,,,,,,,,,,,,,,,,,,,,,,,,,,,,,,P049,FENCOG,2,Post,2022_Jun_13_1411,N-Back (New Version 2021),2021.1.4,120.3330337
,,,,Conditions/Version_1/zeroback(2)_v1.xlsx,New rule: Press 'space' when you see the letter 'x' or 'X'.,p,None,,,,,,,,,0,5,5,5,0,0,0,0,,,,,,,,,,,,,,,,,,,,,,,,,,,,,,,,,,,,,,,,,,,,,,,,,,,,,,,,,,,494.9142985,None,497.8983881,None,space,0.5320235,497.8983881,None,494.9142985,None,1.2828,499.738094,None,None,1,499.738094,None,,P049,FENCOG,2,Post,2022_Jun_13_1411,N-Back (New Version 2021),2021.1.4,120.3330337
,,,,Conditions/Version_1/zeroback(2)_v1.xlsx,New rule: Press 'space' when you see the letter 'x' or 'X'.,L,None,,,,,,,,,0,5,5,5,0,1,1,1,,,,,,,,,,,,,,,,,,,,,,,,,,,,,,,,,,,,,,,,,,,,,,,,,,,,,,,,,,,,,,,,,,,,,1.7912,503.5286947,None,None,1,503.5286947,None,,P049,FENCOG,2,Post,2022_Jun_13_1411,N-Back (New Version 2021),2021.1.4,120.3330337
,,,,Conditions/Version_1/zeroback(2)_v1.xlsx,New rule: Press 'space' when you see the letter 'x' or 'X'.,G,None,,,,,,,,,0,5,5,5,0,2,2,2,,,,,,,,,,,,,,,,,,,,,,,,,,,,,,,,,,,,,,,,,,,,,,,,,,,,,,,,,,,,,,,,,,,,,1.8966,507.4294215,None,None,1,507.4294215,None,,P049,FENCOG,2,Post,2022_Jun_13_1411,N-Back (New Version 2021),2021.1.4,120.3330337
,,,,Conditions/Version_1/zeroback(2)_v1.xlsx,New rule: Press 'space' when you see the letter 'x' or 'X'.,y,None,,,,,,,,,0,5,5,5,0,3,3,3,,,,,,,,,,,,,,,,,,,,,,,,,,,,,,,,,,,,,,,,,,,,,,,,,,,,,,,,,,,,,,,,,,,,,1.5308,510.968168,None,None,1,510.968168,None,,P049,FENCOG,2,Post,2022_Jun_13_1411,N-Back (New Version 2021),2021.1.4,120.3330337
,,,,Conditions/Version_1/zeroback(2)_v1.xlsx,New rule: Press 'space' when you see the letter 'x' or 'X'.,Y,None,,,,,,,,,0,5,5,5,0,4,4,4,,,,,,,,,,,,,,,,,,,,,,,,,,,,,,,,,,,,,,,,,,,,,,,,,,,,,,,,,,,,,,,,,,,,,1.4006,514.3754648,None,None,1,514.3754648,None,,P049,FENCOG,2,Post,2022_Jun_13_1411,N-Back (New Version 2021),2021.1.4,120.3330337
,,,,Conditions/Version_1/zeroback(2)_v1.xlsx,New rule: Press 'space' when you see the letter 'x' or 'X'.,W,None,,,,,,,,,0,5,5,5,0,5,5,5,,,,,,,,,,,,,,,,,,,,,,,,,,,,,,,,,,,,,,,,,,,,,,,,,,,,,,,,,,,,,,,,,,,,,1.2146,517.5912163,None,None,1,517.5912163,None,,P049,FENCOG,2,Post,2022_Jun_13_1411,N-Back (New Version 2021),2021.1.4,120.3330337
,,,,Conditions/Version_1/zeroback(2)_v1.xlsx,New rule: Press 'space' when you see the letter 'x' or 'X'.,x,space,,,,,,,,,0,5,5,5,0,6,6,6,,,,,,,,,,,,,,,,,,,,,,,,,,,,,,,,,,,,,,,,,,,,,,,,,,,,,,,,,,,,,,,,,,,,,1.6672,521.2568067,None,space,1,521.2568067,None,0.4613709,P049,FENCOG,2,Post,2022_Jun_13_1411,N-Back (New Version 2021),2021.1.4,120.3330337
,,,,Conditions/Version_1/zeroback(2)_v1.xlsx,New rule: Press 'space' when you see the letter 'x' or 'X'.,X,space,,,,,,,,,0,5,5,5,0,7,7,7,,,,,,,,,,,,,,,,,,,,,,,,,,,,,,,,,,,,,,,,,,,,,,,,,,,,,,,,,,,,,,,,,,,,,1.4378,524.6974209,None,space,1,524.6974209,None,0.3967458,P049,FENCOG,2,Post,2022_Jun_13_1411,N-Back (New Version 2021),2021.1.4,120.3330337
,,,,Conditions/Version_1/zeroback(2)_v1.xlsx,New rule: Press 'space' when you see the letter 'x' or 'X'.,p,None,,,,,,,,,0,5,5,5,0,8,8,8,,,,,,,,,,,,,,,,,,,,,,,,,,,,,,,,,,,,,,,,,,,,,,,,,,,,,,,,,,,,,,,,,,,,,1.7168,528.4130886,None,None,1,528.4130886,None,,P049,FENCOG,2,Post,2022_Jun_13_1411,N-Back (New Version 2021),2021.1.4,120.3330337
,,,,Conditions/Version_1/zeroback(2)_v1.xlsx,New rule: Press 'space' when you see the letter 'x' or 'X'.,h,None,,,,,,,,,0,5,5,5,0,9,9,9,,,,,,,,,,,,,,,,,,,,,,,,,,,,,,,,,,,,,,,,,,,,,,,,,,,,,,,,,,,,,,,,,,,,,1.2208,531.6371187,None,None,1,531.6371187,None,,P049,FENCOG,2,Post,2022_Jun_13_1411,N-Back (New Version 2021),2021.1.4,120.3330337
,,,,Conditions/Version_1/zeroback(2)_v1.xlsx,New rule: Press 'space' when you see the letter 'x' or 'X'.,,,,,,,,,,,0,5,5,5,,,,,,,,,,,,,,,,,,,,,,,,,,,,,,,,,,,,,,,,,,,,,,,,,,,,,,,,,,,,,,,,,,,,,,,,,,,,,,,,,P049,FENCOG,2,Post,2022_Jun_13_1411,N-Back (New Version 2021),2021.1.4,120.3330337
,,,,Conditions/Version_1/threeback(2)_v1.xlsx,New rule: Press 'space' when you see 3-back (i.e. the same letter as the one that appeared 3 letters ago.),q,None,,,,,,,,,0,6,6,6,0,0,0,0,,,,,,,,,,,,,,,,,,,,,,,,,,,,,,,,,,,,,,,,,,,,,,,,,,,,,,,,,,,533.65668,None,536.644484,None,space,0.4097031,536.644484,None,533.65668,None,1.9586,539.0431898,None,None,1,539.0431898,None,,P049,FENCOG,2,Post,2022_Jun_13_1411,N-Back (New Version 2021),2021.1.4,120.3330337
,,,,Conditions/Version_1/threeback(2)_v1.xlsx,New rule: Press 'space' when you see 3-back (i.e. the same letter as the one that appeared 3 letters ago.),Y,None,,,,,,,,,0,6,6,6,0,1,1,1,,,,,,,,,,,,,,,,,,,,,,,,,,,,,,,,,,,,,,,,,,,,,,,,,,,,,,,,,,,,,,,,,,,,,1.8036,542.8504864,None,None,1,542.8504864,None,,P049,FENCOG,2,Post,2022_Jun_13_1411,N-Back (New Version 2021),2021.1.4,120.3330337
,,,,Conditions/Version_1/threeback(2)_v1.xlsx,New rule: Press 'space' when you see 3-back (i.e. the same letter as the one that appeared 3 letters ago.),p,None,,,,,,,,,0,6,6,6,0,2,2,2,,,,,,,,,,,,,,,,,,,,,,,,,,,,,,,,,,,,,,,,,,,,,,,,,,,,,,,,,,,,,,,,,,,,,1.8842,546.7409694,None,None,1,546.7409694,None,,P049,FENCOG,2,Post,2022_Jun_13_1411,N-Back (New Version 2021),2021.1.4,120.3330337
,,,,Conditions/Version_1/threeback(2)_v1.xlsx,New rule: Press 'space' when you see 3-back (i.e. the same letter as the one that appeared 3 letters ago.),p,None,,,,,,,,,0,6,6,6,0,3,3,3,,,,,,,,,,,,,,,,,,,,,,,,,,,,,,,,,,,,,,,,,,,,,,,,,,,,,,,,,,,,,,,,,,,,,1.8532,550.598188,None,None,1,550.598188,None,,P049,FENCOG,2,Post,2022_Jun_13_1411,N-Back (New Version 2021),2021.1.4,120.3330337
,,,,Conditions/Version_1/threeback(2)_v1.xlsx,New rule: Press 'space' when you see 3-back (i.e. the same letter as the one that appeared 3 letters ago.),y,space,,,,,,,,,0,6,6,6,0,4,4,4,,,,,,,,,,,,,,,,,,,,,,,,,,,,,,,,,,,,,,,,,,,,,,,,,,,,,,,,,,,,,,,,,,,,,1.0286,553.6305987,None,space,1,553.6305987,None,0.5997568,P049,FENCOG,2,Post,2022_Jun_13_1411,N-Back (New Version 2021),2021.1.4,120.3330337
,,,,Conditions/Version_1/threeback(2)_v1.xlsx,New rule: Press 'space' when you see 3-back (i.e. the same letter as the one that appeared 3 letters ago.),u,None,,,,,,,,,0,6,6,6,0,5,5,5,,,,,,,,,,,,,,,,,,,,,,,,,,,,,,,,,,,,,,,,,,,,,,,,,,,,,,,,,,,,,,,,,,,,,1.3262,556.9629606,None,None,1,556.9629606,None,,P049,FENCOG,2,Post,2022_Jun_13_1411,N-Back (New Version 2021),2021.1.4,120.3330337
,,,,Conditions/Version_1/threeback(2)_v1.xlsx,New rule: Press 'space' when you see 3-back (i.e. the same letter as the one that appeared 3 letters ago.),P,space,,,,,,,,,0,6,6,6,0,6,6,6,,,,,,,,,,,,,,,,,,,,,,,,,,,,,,,,,,,,,,,,,,,,,,,,,,,,,,,,,,,,,,,,,,,,,1.63,560.5952147,None,space,1,560.5952147,None,0.5470619,P049,FENCOG,2,Post,2022_Jun_13_1411,N-Back (New Version 2021),2021.1.4,120.3330337
,,,,Conditions/Version_1/threeback(2)_v1.xlsx,New rule: Press 'space' when you see 3-back (i.e. the same letter as the one that appeared 3 letters ago.),a,None,,,,,,,,,0,6,6,6,0,7,7,7,,,,,,,,,,,,,,,,,,,,,,,,,,,,,,,,,,,,,,,,,,,,,,,,,,,,,,,,,,,,,,,,,,,,,1.4502,564.0443574,None,None,1,564.0443574,None,,P049,FENCOG,2,Post,2022_Jun_13_1411,N-Back (New Version 2021),2021.1.4,120.3330337
,,,,Conditions/Version_1/threeback(2)_v1.xlsx,New rule: Press 'space' when you see 3-back (i.e. the same letter as the one that appeared 3 letters ago.),U,space,,,,,,,,,0,6,6,6,0,8,8,8,,,,,,,,,,,,,,,,,,,,,,,,,,,,,,,,,,,,,,,,,,,,,,,,,,,,,,,,,,,,,,,,,,,,,1.2332,567.276893,None,None,0,567.276893,None,,P049,FENCOG,2,Post,2022_Jun_13_1411,N-Back (New Version 2021),2021.1.4,120.3330337
,,,,Conditions/Version_1/threeback(2)_v1.xlsx,New rule: Press 'space' when you see 3-back (i.e. the same letter as the one that appeared 3 letters ago.),q,None,,,,,,,,,0,6,6,6,0,9,9,9,,,,,,,,,,,,,,,,,,,,,,,,,,,,,,,,,,,,,,,,,,,,,,,,,,,,,,,,,,,,,,,,,,,,,1.785,571.0672099,None,None,1,571.0672099,None,,P049,FENCOG,2,Post,2022_Jun_13_1411,N-Back (New Version 2021),2021.1.4,120.3330337
,,,,Conditions/Version_1/threeback(2)_v1.xlsx,New rule: Press 'space' when you see 3-back (i.e. the same letter as the one that appeared 3 letters ago.),,,,,,,,,,,0,6,6,6,,,,,,,,,,,,,,,,,,,,,,,,,,,,,,,,,,,,,,,,,,,,,,,,,,,,,,,,,,,,,,,,,,,,,,,,,,,,,,,,,P049,FENCOG,2,Post,2022_Jun_13_1411,N-Back (New Version 2021),2021.1.4,120.3330337
,,,,Conditions/Version_1/twoback(2)_v1.xlsx,New rule: Press 'space' when you see 2-back (i.e. the same letter as the one that appeared 2 letters ago.),q,None,,,,,,,,,0,7,7,7,0,0,0,0,,,,,,,,,,,,,,,,,,,,,,,,,,,,,,,,,,,,,,,,,,,,,,,,,,,,,,,,,,,573.0874651,None,576.0746857,None,space,0.9317672,576.0746857,None,573.0874651,None,1.3262,578.3649591,None,None,1,578.3649591,None,,P049,FENCOG,2,Post,2022_Jun_13_1411,N-Back (New Version 2021),2021.1.4,120.3330337
,,,,Conditions/Version_1/twoback(2)_v1.xlsx,New rule: Press 'space' when you see 2-back (i.e. the same letter as the one that appeared 2 letters ago.),r,None,,,,,,,,,0,7,7,7,0,1,1,1,,,,,,,,,,,,,,,,,,,,,,,,,,,,,,,,,,,,,,,,,,,,,,,,,,,,,,,,,,,,,,,,,,,,,1.5246,581.8889678,None,None,1,581.8889678,None,,P049,FENCOG,2,Post,2022_Jun_13_1411,N-Back (New Version 2021),2021.1.4,120.3330337
,,,,Conditions/Version_1/twoback(2)_v1.xlsx,New rule: Press 'space' when you see 2-back (i.e. the same letter as the one that appeared 2 letters ago.),q,space,,,,,,,,,0,7,7,7,0,2,2,2,,,,,,,,,,,,,,,,,,,,,,,,,,,,,,,,,,,,,,,,,,,,,,,,,,,,,,,,,,,,,,,,,,,,,1.1216,585.0130251,None,space,1,585.0130251,None,0.4814075,P049,FENCOG,2,Post,2022_Jun_13_1411,N-Back (New Version 2021),2021.1.4,120.3330337
,,,,Conditions/Version_1/twoback(2)_v1.xlsx,New rule: Press 'space' when you see 2-back (i.e. the same letter as the one that appeared 2 letters ago.),P,None,,,,,,,,,0,7,7,7,0,3,3,3,,,,,,,,,,,,,,,,,,,,,,,,,,,,,,,,,,,,,,,,,,,,,,,,,,,,,,,,,,,,,,,,,,,,,1.3138,588.3288151,None,None,1,588.3288151,None,,P049,FENCOG,2,Post,2022_Jun_13_1411,N-Back (New Version 2021),2021.1.4,120.3330337
,,,,Conditions/Version_1/twoback(2)_v1.xlsx,New rule: Press 'space' when you see 2-back (i.e. the same letter as the one that appeared 2 letters ago.),p,None,,,,,,,,,0,7,7,7,0,4,4,4,,,,,,,,,,,,,,,,,,,,,,,,,,,,,,,,,,,,,,,,,,,,,,,,,,,,,,,,,,,,,,,,,,,,,1.4564,591.7860363,None,None,1,591.7860363,None,,P049,FENCOG,2,Post,2022_Jun_13_1411,N-Back (New Version 2021),2021.1.4,120.3330337
,,,,Conditions/Version_1/twoback(2)_v1.xlsx,New rule: Press 'space' when you see 2-back (i.e. the same letter as the one that appeared 2 letters ago.),H,None,,,,,,,,,0,7,7,7,0,5,5,5,,,,,,,,,,,,,,,,,,,,,,,,,,,,,,,,,,,,,,,,,,,,,,,,,,,,,,,,,,,,,,,,,,,,,1.8346,595.6265704,None,None,1,595.6265704,None,,P049,FENCOG,2,Post,2022_Jun_13_1411,N-Back (New Version 2021),2021.1.4,120.3330337
,,,,Conditions/Version_1/twoback(2)_v1.xlsx,New rule: Press 'space' when you see 2-back (i.e. the same letter as the one that appeared 2 letters ago.),g,None,,,,,,,,,0,7,7,7,0,6,6,6,,,,,,,,,,,,,,,,,,,,,,,,,,,,,,,,,,,,,,,,,,,,,,,,,,,,,,,,,,,,,,,,,,,,,1.134,598.7590065,None,None,1,598.7590065,None,,P049,FENCOG,2,Post,2022_Jun_13_1411,N-Back (New Version 2021),2021.1.4,120.3330337
,,,,Conditions/Version_1/twoback(2)_v1.xlsx,New rule: Press 'space' when you see 2-back (i.e. the same letter as the one that appeared 2 letters ago.),j,None,,,,,,,,,0,7,7,7,0,7,7,7,,,,,,,,,,,,,,,,,,,,,,,,,,,,,,,,,,,,,,,,,,,,,,,,,,,,,,,,,,,,,,,,,,,,,1.2332,601.995934,None,None,1,601.995934,None,,P049,FENCOG,2,Post,2022_Jun_13_1411,N-Back (New Version 2021),2021.1.4,120.3330337
,,,,Conditions/Version_1/twoback(2)_v1.xlsx,New rule: Press 'space' when you see 2-back (i.e. the same letter as the one that appeared 2 letters ago.),g,space,,,,,,,,,0,7,7,7,0,8,8,8,,,,,,,,,,,,,,,,,,,,,,,,,,,,,,,,,,,,,,,,,,,,,,,,,,,,,,,,,,,,,,,,,,,,,1.9152,605.9175434,None,space,1,605.9175434,None,0.4489459,P049,FENCOG,2,Post,2022_Jun_13_1411,N-Back (New Version 2021),2021.1.4,120.3330337
,,,,Conditions/Version_1/twoback(2)_v1.xlsx,New rule: Press 'space' when you see 2-back (i.e. the same letter as the one that appeared 2 letters ago.),G,None,,,,,,,,,0,7,7,7,0,9,9,9,,,,,,,,,,,,,,,,,,,,,,,,,,,,,,,,,,,,,,,,,,,,,,,,,,,,,,,,,,,,,,,,,,,,,1.3882,609.3145096,None,None,1,609.3145096,None,,P049,FENCOG,2,Post,2022_Jun_13_1411,N-Back (New Version 2021),2021.1.4,120.3330337
,,,,Conditions/Version_1/twoback(2)_v1.xlsx,New rule: Press 'space' when you see 2-back (i.e. the same letter as the one that appeared 2 letters ago.),,,,,,,,,,,0,7,7,7,,,,,,,,,,,,,,,,,,,,,,,,,,,,,,,,,,,,,,,,,,,,,,,,,,,,,,,,,,,,,,,,,,,,,,,,,,,,,,,,,P049,FENCOG,2,Post,2022_Jun_13_1411,N-Back (New Version 2021),2021.1.4,120.3330337
,,,,Conditions/Version_1/threeback(3)_v1.xlsx,New rule: Press 'space' when you see 3-back (i.e. the same letter as the one that appeared 3 letters ago.),w,None,,,,,,,,,0,8,8,8,0,0,0,0,,,,,,,,,,,,,,,,,,,,,,,,,,,,,,,,,,,,,,,,,,,,,,,,,,,,,,,,,,,611.3374977,None,614.3229523,None,space,0.1235433,614.3229523,None,611.3374977,None,1.1154,615.5959553,None,None,1,615.5959553,None,,P049,FENCOG,2,Post,2022_Jun_13_1411,N-Back (New Version 2021),2021.1.4,120.3330337
,,,,Conditions/Version_1/threeback(3)_v1.xlsx,New rule: Press 'space' when you see 3-back (i.e. the same letter as the one that appeared 3 letters ago.),p,None,,,,,,,,,0,8,8,8,0,1,1,1,,,,,,,,,,,,,,,,,,,,,,,,,,,,,,,,,,,,,,,,,,,,,,,,,,,,,,,,,,,,,,,,,,,,,1.0534,618.6552204,None,None,1,618.6552204,None,,P049,FENCOG,2,Post,2022_Jun_13_1411,N-Back (New Version 2021),2021.1.4,120.3330337
,,,,Conditions/Version_1/threeback(3)_v1.xlsx,New rule: Press 'space' when you see 3-back (i.e. the same letter as the one that appeared 3 letters ago.),P,None,,,,,,,,,0,8,8,8,0,2,2,2,,,,,,,,,,,,,,,,,,,,,,,,,,,,,,,,,,,,,,,,,,,,,,,,,,,,,,,,,,,,,,,,,,,,,1.4998,622.1606315,None,None,1,622.1606315,None,,P049,FENCOG,2,Post,2022_Jun_13_1411,N-Back (New Version 2021),2021.1.4,120.3330337
,,,,Conditions/Version_1/threeback(3)_v1.xlsx,New rule: Press 'space' when you see 3-back (i.e. the same letter as the one that appeared 3 letters ago.),i,None,,,,,,,,,0,8,8,8,0,3,3,3,,,,,,,,,,,,,,,,,,,,,,,,,,,,,,,,,,,,,,,,,,,,,,,,,,,,,,,,,,,,,,,,,,,,,1.94,626.1032639,None,None,1,626.1032639,None,,P049,FENCOG,2,Post,2022_Jun_13_1411,N-Back (New Version 2021),2021.1.4,120.3330337
,,,,Conditions/Version_1/threeback(3)_v1.xlsx,New rule: Press 'space' when you see 3-back (i.e. the same letter as the one that appeared 3 letters ago.),f,None,,,,,,,,,0,8,8,8,0,4,4,4,,,,,,,,,,,,,,,,,,,,,,,,,,,,,,,,,,,,,,,,,,,,,,,,,,,,,,,,,,,,,,,,,,,,,1.0658,629.1753151,None,None,1,629.1753151,None,,P049,FENCOG,2,Post,2022_Jun_13_1411,N-Back (New Version 2021),2021.1.4,120.3330337
,,,,Conditions/Version_1/threeback(3)_v1.xlsx,New rule: Press 'space' when you see 3-back (i.e. the same letter as the one that appeared 3 letters ago.),o,None,,,,,,,,,0,8,8,8,0,5,5,5,,,,,,,,,,,,,,,,,,,,,,,,,,,,,,,,,,,,,,,,,,,,,,,,,,,,,,,,,,,,,,,,,,,,,1.2518,632.4326621,None,None,1,632.4326621,None,,P049,FENCOG,2,Post,2022_Jun_13_1411,N-Back (New Version 2021),2021.1.4,120.3330337
,,,,Conditions/Version_1/threeback(3)_v1.xlsx,New rule: Press 'space' when you see 3-back (i.e. the same letter as the one that appeared 3 letters ago.),w,None,,,,,,,,,0,8,8,8,0,6,6,6,,,,,,,,,,,,,,,,,,,,,,,,,,,,,,,,,,,,,,,,,,,,,,,,,,,,,,,,,,,,,,,,,,,,,1.32,635.7579075,None,None,1,635.7579075,None,,P049,FENCOG,2,Post,2022_Jun_13_1411,N-Back (New Version 2021),2021.1.4,120.3330337
,,,,Conditions/Version_1/threeback(3)_v1.xlsx,New rule: Press 'space' when you see 3-back (i.e. the same letter as the one that appeared 3 letters ago.),F,space,,,,,,,,,0,8,8,8,0,7,7,7,,,,,,,,,,,,,,,,,,,,,,,,,,,,,,,,,,,,,,,,,,,,,,,,,,,,,,,,,,,,,,,,,,,,,1.723,639.4889834,None,space,1,639.4889834,None,0.5977689,P049,FENCOG,2,Post,2022_Jun_13_1411,N-Back (New Version 2021),2021.1.4,120.3330337
,,,,Conditions/Version_1/threeback(3)_v1.xlsx,New rule: Press 'space' when you see 3-back (i.e. the same letter as the one that appeared 3 letters ago.),p,None,,,,,,,,,0,8,8,8,0,8,8,8,,,,,,,,,,,,,,,,,,,,,,,,,,,,,,,,,,,,,,,,,,,,,,,,,,,,,,,,,,,,,,,,,,,,,1.7788,643.2710878,None,None,1,643.2710878,None,,P049,FENCOG,2,Post,2022_Jun_13_1411,N-Back (New Version 2021),2021.1.4,120.3330337
,,,,Conditions/Version_1/threeback(3)_v1.xlsx,New rule: Press 'space' when you see 3-back (i.e. the same letter as the one that appeared 3 letters ago.),W,space,,,,,,,,,0,8,8,8,0,9,9,9,,,,,,,,,,,,,,,,,,,,,,,,,,,,,,,,,,,,,,,,,,,,,,,,,,,,,,,,,,,,,,,,,,,,,1.5308,646.8034161,None,space,1,646.8034161,None,0.5951979,P049,FENCOG,2,Post,2022_Jun_13_1411,N-Back (New Version 2021),2021.1.4,120.3330337
,,,,Conditions/Version_1/threeback(3)_v1.xlsx,New rule: Press 'space' when you see 3-back (i.e. the same letter as the one that appeared 3 letters ago.),,,,,,,,,,,0,8,8,8,,,,,,,,,,,,,,,,,,,,,,,,,,,,,,,,,,,,,,,,,,,,,,,,,,,,,,,,,,,,,,,,,,,,,,,,,,,,,,,,,P049,FENCOG,2,Post,2022_Jun_13_1411,N-Back (New Version 2021),2021.1.4,120.3330337
,,,,Conditions/Version_1/zeroback(3)_v1.xlsx,New rule: Press 'space' when you see the letter 'x' or 'X'.,X,space,,,,,,,,,0,9,9,9,0,0,0,0,,,,,,,,,,,,,,,,,,,,,,,,,,,,,,,,,,,,,,,,,,,,,,,,,,,,,,,,,,,648.8382508,None,651.8291526,None,space,0.5694901,651.8291526,None,648.8382508,None,1.8036,654.2344864,None,space,1,654.2344864,None,0.5240503,P049,FENCOG,2,Post,2022_Jun_13_1411,N-Back (New Version 2021),2021.1.4,120.3330337
,,,,Conditions/Version_1/zeroback(3)_v1.xlsx,New rule: Press 'space' when you see the letter 'x' or 'X'.,B,None,,,,,,,,,0,9,9,9,0,1,1,1,,,,,,,,,,,,,,,,,,,,,,,,,,,,,,,,,,,,,,,,,,,,,,,,,,,,,,,,,,,,,,,,,,,,,1.2084,657.4445214,None,None,1,657.4445214,None,,P049,FENCOG,2,Post,2022_Jun_13_1411,N-Back (New Version 2021),2021.1.4,120.3330337
,,,,Conditions/Version_1/zeroback(3)_v1.xlsx,New rule: Press 'space' when you see the letter 'x' or 'X'.,m,None,,,,,,,,,0,9,9,9,0,2,2,2,,,,,,,,,,,,,,,,,,,,,,,,,,,,,,,,,,,,,,,,,,,,,,,,,,,,,,,,,,,,,,,,,,,,,1.196,660.6495525,None,None,1,660.6495525,None,,P049,FENCOG,2,Post,2022_Jun_13_1411,N-Back (New Version 2021),2021.1.4,120.3330337
,,,,Conditions/Version_1/zeroback(3)_v1.xlsx,New rule: Press 'space' when you see the letter 'x' or 'X'.,m,None,,,,,,,,,0,9,9,9,0,3,3,3,,,,,,,,,,,,,,,,,,,,,,,,,,,,,,,,,,,,,,,,,,,,,,,,,,,,,,,,,,,,,,,,,,,,,1.1216,663.7736271,None,None,1,663.7736271,None,,P049,FENCOG,2,Post,2022_Jun_13_1411,N-Back (New Version 2021),2021.1.4,120.3330337
,,,,Conditions/Version_1/zeroback(3)_v1.xlsx,New rule: Press 'space' when you see the letter 'x' or 'X'.,o,None,,,,,,,,,0,9,9,9,0,4,4,4,,,,,,,,,,,,,,,,,,,,,,,,,,,,,,,,,,,,,,,,,,,,,,,,,,,,,,,,,,,,,,,,,,,,,1.1836,666.9557522,None,None,1,666.9557522,None,,P049,FENCOG,2,Post,2022_Jun_13_1411,N-Back (New Version 2021),2021.1.4,120.3330337
,,,,Conditions/Version_1/zeroback(3)_v1.xlsx,New rule: Press 'space' when you see the letter 'x' or 'X'.,p,None,,,,,,,,,0,9,9,9,0,5,5,5,,,,,,,,,,,,,,,,,,,,,,,,,,,,,,,,,,,,,,,,,,,,,,,,,,,,,,,,,,,,,,,,,,,,,1.3138,670.2726309,None,None,1,670.2726309,None,,P049,FENCOG,2,Post,2022_Jun_13_1411,N-Back (New Version 2021),2021.1.4,120.3330337
,,,,Conditions/Version_1/zeroback(3)_v1.xlsx,New rule: Press 'space' when you see the letter 'x' or 'X'.,G,None,,,,,,,,,0,9,9,9,0,6,6,6,,,,,,,,,,,,,,,,,,,,,,,,,,,,,,,,,,,,,,,,,,,,,,,,,,,,,,,,,,,,,,,,,,,,,1.3882,673.6716689,None,None,1,673.6716689,None,,P049,FENCOG,2,Post,2022_Jun_13_1411,N-Back (New Version 2021),2021.1.4,120.3330337
,,,,Conditions/Version_1/zeroback(3)_v1.xlsx,New rule: Press 'space' when you see the letter 'x' or 'X'.,X,space,,,,,,,,,0,9,9,9,0,7,7,7,,,,,,,,,,,,,,,,,,,,,,,,,,,,,,,,,,,,,,,,,,,,,,,,,,,,,,,,,,,,,,,,,,,,,1.2394,676.9195258,None,space,1,676.9195258,None,0.4311613,P049,FENCOG,2,Post,2022_Jun_13_1411,N-Back (New Version 2021),2021.1.4,120.3330337
,,,,Conditions/Version_1/zeroback(3)_v1.xlsx,New rule: Press 'space' when you see the letter 'x' or 'X'.,p,None,,,,,,,,,0,9,9,9,0,8,8,8,,,,,,,,,,,,,,,,,,,,,,,,,,,,,,,,,,,,,,,,,,,,,,,,,,,,,,,,,,,,,,,,,,,,,1.599,680.5185155,None,None,1,680.5185155,None,,P049,FENCOG,2,Post,2022_Jun_13_1411,N-Back (New Version 2021),2021.1.4,120.3330337
,,,,Conditions/Version_1/zeroback(3)_v1.xlsx,New rule: Press 'space' when you see the letter 'x' or 'X'.,x,space,,,,,,,,,0,9,9,9,0,9,9,9,,,,,,,,,,,,,,,,,,,,,,,,,,,,,,,,,,,,,,,,,,,,,,,,,,,,,,,,,,,,,,,,,,,,,1.9648,684.4922852,None,space,1,684.4922852,None,0.3943384,P049,FENCOG,2,Post,2022_Jun_13_1411,N-Back (New Version 2021),2021.1.4,120.3330337
,,,,Conditions/Version_1/zeroback(3)_v1.xlsx,New rule: Press 'space' when you see the letter 'x' or 'X'.,,,,,,,,,,,0,9,9,9,,,,,,,,,,,,,,,,,,,,,,,,,,,,,,,,,,,,,,,,,,,,,,,,,,,,,,,,,,,,,,,,,,,,,,,,,,,,,,,,,P049,FENCOG,2,Post,2022_Jun_13_1411,N-Back (New Version 2021),2021.1.4,120.3330337
,,,,Conditions/Version_1/twoback(3)_v1.xlsx,New rule: Press 'space' when you see 2-back (i.e. the same letter as the one that appeared 2 letters ago.),e,None,,,,,,,,,0,10,10,10,0,0,0,0,,,,,,,,,,,,,,,,,,,,,,,,,,,,,,,,,,,,,,,,,,,,,,,,,,,,,,,,,,,686.5123051,None,689.5014458,None,space,1.6331031,689.5014458,None,686.5123051,None,1.8346,693.000112,None,None,1,693.000112,None,,P049,FENCOG,2,Post,2022_Jun_13_1411,N-Back (New Version 2021),2021.1.4,120.3330337
,,,,Conditions/Version_1/twoback(3)_v1.xlsx,New rule: Press 'space' when you see 2-back (i.e. the same letter as the one that appeared 2 letters ago.),o,None,,,,,,,,,0,10,10,10,0,1,1,1,,,,,,,,,,,,,,,,,,,,,,,,,,,,,,,,,,,,,,,,,,,,,,,,,,,,,,,,,,,,,,,,,,,,,1.4812,696.490649,None,None,1,696.490649,None,,P049,FENCOG,2,Post,2022_Jun_13_1411,N-Back (New Version 2021),2021.1.4,120.3330337
,,,,Conditions/Version_1/twoback(3)_v1.xlsx,New rule: Press 'space' when you see 2-back (i.e. the same letter as the one that appeared 2 letters ago.),P,None,,,,,,,,,0,10,10,10,0,2,2,2,,,,,,,,,,,,,,,,,,,,,,,,,,,,,,,,,,,,,,,,,,,,,,,,,,,,,,,,,,,,,,,,,,,,,1.8842,700.3888431,None,None,1,700.3888431,None,,P049,FENCOG,2,Post,2022_Jun_13_1411,N-Back (New Version 2021),2021.1.4,120.3330337
,,,,Conditions/Version_1/twoback(3)_v1.xlsx,New rule: Press 'space' when you see 2-back (i.e. the same letter as the one that appeared 2 letters ago.),z,None,,,,,,,,,0,10,10,10,0,3,3,3,,,,,,,,,,,,,,,,,,,,,,,,,,,,,,,,,,,,,,,,,,,,,,,,,,,,,,,,,,,,,,,,,,,,,1.4254,703.825814,None,None,1,703.825814,None,,P049,FENCOG,2,Post,2022_Jun_13_1411,N-Back (New Version 2021),2021.1.4,120.3330337
,,,,Conditions/Version_1/twoback(3)_v1.xlsx,New rule: Press 'space' when you see 2-back (i.e. the same letter as the one that appeared 2 letters ago.),X,None,,,,,,,,,0,10,10,10,0,4,4,4,,,,,,,,,,,,,,,,,,,,,,,,,,,,,,,,,,,,,,,,,,,,,,,,,,,,,,,,,,,,,,,,,,,,,1.3882,707.2214705,None,None,1,707.2214705,None,,P049,FENCOG,2,Post,2022_Jun_13_1411,N-Back (New Version 2021),2021.1.4,120.3330337
,,,,Conditions/Version_1/twoback(3)_v1.xlsx,New rule: Press 'space' when you see 2-back (i.e. the same letter as the one that appeared 2 letters ago.),z,space,,,,,,,,,0,10,10,10,0,5,5,5,,,,,,,,,,,,,,,,,,,,,,,,,,,,,,,,,,,,,,,,,,,,,,,,,,,,,,,,,,,,,,,,,,,,,1.7292,710.9606769,None,space,1,710.9606769,None,0.4537005,P049,FENCOG,2,Post,2022_Jun_13_1411,N-Back (New Version 2021),2021.1.4,120.3330337
,,,,Conditions/Version_1/twoback(3)_v1.xlsx,New rule: Press 'space' when you see 2-back (i.e. the same letter as the one that appeared 2 letters ago.),x,space,,,,,,,,,0,10,10,10,0,6,6,6,,,,,,,,,,,,,,,,,,,,,,,,,,,,,,,,,,,,,,,,,,,,,,,,,,,,,,,,,,,,,,,,,,,,,1.0162,713.9835705,None,space,1,713.9835705,None,0.5829736,P049,FENCOG,2,Post,2022_Jun_13_1411,N-Back (New Version 2021),2021.1.4,120.3330337
,,,,Conditions/Version_1/twoback(3)_v1.xlsx,New rule: Press 'space' when you see 2-back (i.e. the same letter as the one that appeared 2 letters ago.),c,None,,,,,,,,,0,10,10,10,0,7,7,7,,,,,,,,,,,,,,,,,,,,,,,,,,,,,,,,,,,,,,,,,,,,,,,,,,,,,,,,,,,,,,,,,,,,,1.4998,717.4839468,None,None,1,717.4839468,None,,P049,FENCOG,2,Post,2022_Jun_13_1411,N-Back (New Version 2021),2021.1.4,120.3330337
,,,,Conditions/Version_1/twoback(3)_v1.xlsx,New rule: Press 'space' when you see 2-back (i.e. the same letter as the one that appeared 2 letters ago.),i,None,,,,,,,,,0,10,10,10,0,8,8,8,,,,,,,,,,,,,,,,,,,,,,,,,,,,,,,,,,,,,,,,,,,,,,,,,,,,,,,,,,,,,,,,,,,,,1.4316,720.9243744,None,None,1,720.9243744,None,,P049,FENCOG,2,Post,2022_Jun_13_1411,N-Back (New Version 2021),2021.1.4,120.3330337
,,,,Conditions/Version_1/twoback(3)_v1.xlsx,New rule: Press 'space' when you see 2-back (i.e. the same letter as the one that appeared 2 letters ago.),C,space,,,,,,,,,0,10,10,10,0,9,9,9,,,,,,,,,,,,,,,,,,,,,,,,,,,,,,,,,,,,,,,,,,,,,,,,,,,,,,,,,,,,,,,,,,,,,1.1588,724.0911073,None,space,1,724.0911073,None,0.6115878,P049,FENCOG,2,Post,2022_Jun_13_1411,N-Back (New Version 2021),2021.1.4,120.3330337
,,,,Conditions/Version_1/twoback(3)_v1.xlsx,New rule: Press 'space' when you see 2-back (i.e. the same letter as the one that appeared 2 letters ago.),,,,,,,,,,,0,10,10,10,,,,,,,,,,,,,,,,,,,,,,,,,,,,,,,,,,,,,,,,,,,,,,,,,,,,,,,,,,,,,,,,,,,,,,,,,,,,,,,,,P049,FENCOG,2,Post,2022_Jun_13_1411,N-Back (New Version 2021),2021.1.4,120.3330337
,,,,Conditions/Version_1/oneback(3)_v1.xlsx,New rule: Press 'space' when you see 1-back (i.e. the same letter as the one that appeared 1 letter ago.),o,None,,,,,,,,,0,11,11,11,0,0,0,0,,,,,,,,,,,,,,,,,,,,,,,,,,,,,,,,,,,,,,,,,,,,,,,,,,,,,,,,,,,726.1171396,None,729.1065378,None,space,0.3158763,729.1065378,None,726.1171396,None,1.3014,730.7536604,None,None,1,730.7536604,None,,P049,FENCOG,2,Post,2022_Jun_13_1411,N-Back (New Version 2021),2021.1.4,120.3330337
,,,,Conditions/Version_1/oneback(3)_v1.xlsx,New rule: Press 'space' when you see 1-back (i.e. the same letter as the one that appeared 1 letter ago.),O,space,,,,,,,,,0,11,11,11,0,1,1,1,,,,,,,,,,,,,,,,,,,,,,,,,,,,,,,,,,,,,,,,,,,,,,,,,,,,,,,,,,,,,,,,,,,,,1.1774,733.9360218,None,space,1,733.9360218,None,0.3424726,P049,FENCOG,2,Post,2022_Jun_13_1411,N-Back (New Version 2021),2021.1.4,120.3330337
,,,,Conditions/Version_1/oneback(3)_v1.xlsx,New rule: Press 'space' when you see 1-back (i.e. the same letter as the one that appeared 1 letter ago.),h,None,,,,,,,,,0,11,11,11,0,2,2,2,,,,,,,,,,,,,,,,,,,,,,,,,,,,,,,,,,,,,,,,,,,,,,,,,,,,,,,,,,,,,,,,,,,,,1.0534,736.9945339,None,None,1,736.9945339,None,,P049,FENCOG,2,Post,2022_Jun_13_1411,N-Back (New Version 2021),2021.1.4,120.3330337
,,,,Conditions/Version_1/oneback(3)_v1.xlsx,New rule: Press 'space' when you see 1-back (i.e. the same letter as the one that appeared 1 letter ago.),g,None,,,,,,,,,0,11,11,11,0,3,3,3,,,,,,,,,,,,,,,,,,,,,,,,,,,,,,,,,,,,,,,,,,,,,,,,,,,,,,,,,,,,,,,,,,,,,1.413,740.4176305,None,None,1,740.4176305,None,,P049,FENCOG,2,Post,2022_Jun_13_1411,N-Back (New Version 2021),2021.1.4,120.3330337
,,,,Conditions/Version_1/oneback(3)_v1.xlsx,New rule: Press 'space' when you see 1-back (i.e. the same letter as the one that appeared 1 letter ago.),n,None,,,,,,,,,0,11,11,11,0,4,4,4,,,,,,,,,,,,,,,,,,,,,,,,,,,,,,,,,,,,,,,,,,,,,,,,,,,,,,,,,,,,,,,,,,,,,1.5184,743.9412535,None,None,1,743.9412535,None,,P049,FENCOG,2,Post,2022_Jun_13_1411,N-Back (New Version 2021),2021.1.4,120.3330337
,,,,Conditions/Version_1/oneback(3)_v1.xlsx,New rule: Press 'space' when you see 1-back (i.e. the same letter as the one that appeared 1 letter ago.),z,None,,,,,,,,,0,11,11,11,0,5,5,5,,,,,,,,,,,,,,,,,,,,,,,,,,,,,,,,,,,,,,,,,,,,,,,,,,,,,,,,,,,,,,,,,,,,,1.785,747.7319257,None,None,1,747.7319257,None,,P049,FENCOG,2,Post,2022_Jun_13_1411,N-Back (New Version 2021),2021.1.4,120.3330337
,,,,Conditions/Version_1/oneback(3)_v1.xlsx,New rule: Press 'space' when you see 1-back (i.e. the same letter as the one that appeared 1 letter ago.),X,None,,,,,,,,,0,11,11,11,0,6,6,6,,,,,,,,,,,,,,,,,,,,,,,,,,,,,,,,,,,,,,,,,,,,,,,,,,,,,,,,,,,,,,,,,,,,,1.7478,751.4806957,None,None,1,751.4806957,None,,P049,FENCOG,2,Post,2022_Jun_13_1411,N-Back (New Version 2021),2021.1.4,120.3330337
,,,,Conditions/Version_1/oneback(3)_v1.xlsx,New rule: Press 'space' when you see 1-back (i.e. the same letter as the one that appeared 1 letter ago.),r,None,,,,,,,,,0,11,11,11,0,7,7,7,,,,,,,,,,,,,,,,,,,,,,,,,,,,,,,,,,,,,,,,,,,,,,,,,,,,,,,,,,,,,,,,,,,,,1.8904,755.3712336,None,None,1,755.3712336,None,,P049,FENCOG,2,Post,2022_Jun_13_1411,N-Back (New Version 2021),2021.1.4,120.3330337
,,,,Conditions/Version_1/oneback(3)_v1.xlsx,New rule: Press 'space' when you see 1-back (i.e. the same letter as the one that appeared 1 letter ago.),r,space,,,,,,,,,0,11,11,11,0,8,8,8,,,,,,,,,,,,,,,,,,,,,,,,,,,,,,,,,,,,,,,,,,,,,,,,,,,,,,,,,,,,,,,,,,,,,1.6362,759.0117908,None,space,1,759.0117908,None,0.4668411,P049,FENCOG,2,Post,2022_Jun_13_1411,N-Back (New Version 2021),2021.1.4,120.3330337
,,,,Conditions/Version_1/oneback(3)_v1.xlsx,New rule: Press 'space' when you see 1-back (i.e. the same letter as the one that appeared 1 letter ago.),P,None,,,,,,,,,0,11,11,11,0,9,9,9,,,,,,,,,,,,,,,,,,,,,,,,,,,,,,,,,,,,,,,,,,,,,,,,,,,,,,,,,,,,,,,,,,,,,1.0658,762.1158619,None,None,1,762.1158619,None,,P049,FENCOG,2,Post,2022_Jun_13_1411,N-Back (New Version 2021),2021.1.4,120.3330337
,,,,Conditions/Version_1/oneback(3)_v1.xlsx,New rule: Press 'space' when you see 1-back (i.e. the same letter as the one that appeared 1 letter ago.),,,,,,,,,,,0,11,11,11,,,,,,,,,,,,,,,,,,,,,,,,,,,,,,,,,,,,,,,,,,,,,,,,,,,,,,,,,,,,,,,,,,,,,,,,,,,,,,,,,P049,FENCOG,2,Post,2022_Jun_13_1411,N-Back (New Version 2021),2021.1.4,120.3330337
,,,,Conditions/Version_1/twoback(4)_v1.xlsx,New rule: Press 'space' when you see 2-back (i.e. the same letter as the one that appeared 2 letters ago.),r,None,,,,,,,,,0,12,12,12,0,0,0,0,,,,,,,,,,,,,,,,,,,,,,,,,,,,,,,,,,,,,,,,,,,,,,,,,,,,,,,,,,,764.1038881,None,767.0859064,None,space,1.0330215,767.0859064,None,764.1038881,None,1.1092,769.2504746,None,None,1,769.2504746,None,,P049,FENCOG,2,Post,2022_Jun_13_1411,N-Back (New Version 2021),2021.1.4,120.3330337
,,,,Conditions/Version_1/twoback(4)_v1.xlsx,New rule: Press 'space' when you see 2-back (i.e. the same letter as the one that appeared 2 letters ago.),T,None,,,,,,,,,0,12,12,12,0,1,1,1,,,,,,,,,,,,,,,,,,,,,,,,,,,,,,,,,,,,,,,,,,,,,,,,,,,,,,,,,,,,,,,,,,,,,1.5246,772.7754602,None,None,1,772.7754602,None,,P049,FENCOG,2,Post,2022_Jun_13_1411,N-Back (New Version 2021),2021.1.4,120.3330337
,,,,Conditions/Version_1/twoback(4)_v1.xlsx,New rule: Press 'space' when you see 2-back (i.e. the same letter as the one that appeared 2 letters ago.),o,None,,,,,,,,,0,12,12,12,0,2,2,2,,,,,,,,,,,,,,,,,,,,,,,,,,,,,,,,,,,,,,,,,,,,,,,,,,,,,,,,,,,,,,,,,,,,,1.3386,776.1236763,None,None,1,776.1236763,None,,P049,FENCOG,2,Post,2022_Jun_13_1411,N-Back (New Version 2021),2021.1.4,120.3330337
,,,,Conditions/Version_1/twoback(4)_v1.xlsx,New rule: Press 'space' when you see 2-back (i.e. the same letter as the one that appeared 2 letters ago.),p,None,,,,,,,,,0,12,12,12,0,3,3,3,,,,,,,,,,,,,,,,,,,,,,,,,,,,,,,,,,,,,,,,,,,,,,,,,,,,,,,,,,,,,,,,,,,,,1.8656,779.9889569,None,None,1,779.9889569,None,,P049,FENCOG,2,Post,2022_Jun_13_1411,N-Back (New Version 2021),2021.1.4,120.3330337
,,,,Conditions/Version_1/twoback(4)_v1.xlsx,New rule: Press 'space' when you see 2-back (i.e. the same letter as the one that appeared 2 letters ago.),p,None,,,,,,,,,0,12,12,12,0,4,4,4,,,,,,,,,,,,,,,,,,,,,,,,,,,,,,,,,,,,,,,,,,,,,,,,,,,,,,,,,,,,,,,,,,,,,1.4874,783.4796631,None,space,0,783.4796631,None,1.046834,P049,FENCOG,2,Post,2022_Jun_13_1411,N-Back (New Version 2021),2021.1.4,120.3330337
,,,,Conditions/Version_1/twoback(4)_v1.xlsx,New rule: Press 'space' when you see 2-back (i.e. the same letter as the one that appeared 2 letters ago.),y,None,,,,,,,,,0,12,12,12,0,5,5,5,,,,,,,,,,,,,,,,,,,,,,,,,,,,,,,,,,,,,,,,,,,,,,,,,,,,,,,,,,,,,,,,,,,,,1.7292,787.2118287,None,None,1,787.2118287,None,,P049,FENCOG,2,Post,2022_Jun_13_1411,N-Back (New Version 2021),2021.1.4,120.3330337
,,,,Conditions/Version_1/twoback(4)_v1.xlsx,New rule: Press 'space' when you see 2-back (i.e. the same letter as the one that appeared 2 letters ago.),P,space,,,,,,,,,0,12,12,12,0,6,6,6,,,,,,,,,,,,,,,,,,,,,,,,,,,,,,,,,,,,,,,,,,,,,,,,,,,,,,,,,,,,,,,,,,,,,1.258,790.4691987,None,space,1,790.4691987,None,0.8333822,P049,FENCOG,2,Post,2022_Jun_13_1411,N-Back (New Version 2021),2021.1.4,120.3330337
,,,,Conditions/Version_1/twoback(4)_v1.xlsx,New rule: Press 'space' when you see 2-back (i.e. the same letter as the one that appeared 2 letters ago.),y,None,,,,,,,,,0,12,12,12,0,7,7,7,,,,,,,,,,,,,,,,,,,,,,,,,,,,,,,,,,,,,,,,,,,,,,,,,,,,,,,,,,,,,,,,,,,,,1.475,793.9431789,None,space,0,793.9431789,None,0.8072499,P049,FENCOG,2,Post,2022_Jun_13_1411,N-Back (New Version 2021),2021.1.4,120.3330337
,,,,Conditions/Version_1/twoback(4)_v1.xlsx,New rule: Press 'space' when you see 2-back (i.e. the same letter as the one that appeared 2 letters ago.),y,space,,,,,,,,,0,12,12,12,0,8,8,8,,,,,,,,,,,,,,,,,,,,,,,,,,,,,,,,,,,,,,,,,,,,,,,,,,,,,,,,,,,,,,,,,,,,,1.9338,797.8837334,None,None,0,797.8837334,None,,P049,FENCOG,2,Post,2022_Jun_13_1411,N-Back (New Version 2021),2021.1.4,120.3330337
,,,,Conditions/Version_1/twoback(4)_v1.xlsx,New rule: Press 'space' when you see 2-back (i.e. the same letter as the one that appeared 2 letters ago.),,,,,,,,,,,0,12,12,12,,,,,,,,,,,,,,,,,,,,,,,,,,,,,,,,,,,,,,,,,,,,,,,,,,,,,,,,,,,,,,,,,,,,,,,,,,,,,,,,,P049,FENCOG,2,Post,2022_Jun_13_1411,N-Back (New Version 2021),2021.1.4,120.3330337
,,,,Conditions/Version_1/zeroback(4)_v1.xlsx,New rule: Press 'space' when you see the letter 'x' or 'X'.,o,None,,,,,,,,,0,13,13,13,0,0,0,0,,,,,,,,,,,,,,,,,,,,,,,,,,,,,,,,,,,,,,,,,,,,,,,,,,,,,,,,,,,799.8998694,None,802.8836377,None,space,0.4268053,802.8836377,None,799.8998694,None,1.2952,804.6400209,None,None,1,804.6400209,None,,P049,FENCOG,2,Post,2022_Jun_13_1411,N-Back (New Version 2021),2021.1.4,120.3330337
,,,,Conditions/Version_1/zeroback(4)_v1.xlsx,New rule: Press 'space' when you see the letter 'x' or 'X'.,X,space,,,,,,,,,0,13,13,13,0,1,1,1,,,,,,,,,,,,,,,,,,,,,,,,,,,,,,,,,,,,,,,,,,,,,,,,,,,,,,,,,,,,,,,,,,,,,1.506,808.1474613,None,space,1,808.1474613,None,0.7711385,P049,FENCOG,2,Post,2022_Jun_13_1411,N-Back (New Version 2021),2021.1.4,120.3330337
,,,,Conditions/Version_1/zeroback(4)_v1.xlsx,New rule: Press 'space' when you see the letter 'x' or 'X'.,p,None,,,,,,,,,0,13,13,13,0,2,2,2,,,,,,,,,,,,,,,,,,,,,,,,,,,,,,,,,,,,,,,,,,,,,,,,,,,,,,,,,,,,,,,,,,,,,1.1774,811.3297781,None,None,1,811.3297781,None,,P049,FENCOG,2,Post,2022_Jun_13_1411,N-Back (New Version 2021),2021.1.4,120.3330337
,,,,Conditions/Version_1/zeroback(4)_v1.xlsx,New rule: Press 'space' when you see the letter 'x' or 'X'.,m,None,,,,,,,,,0,13,13,13,0,3,3,3,,,,,,,,,,,,,,,,,,,,,,,,,,,,,,,,,,,,,,,,,,,,,,,,,,,,,,,,,,,,,,,,,,,,,1.3758,814.7120187,None,None,1,814.7120187,None,,P049,FENCOG,2,Post,2022_Jun_13_1411,N-Back (New Version 2021),2021.1.4,120.3330337
,,,,Conditions/Version_1/zeroback(4)_v1.xlsx,New rule: Press 'space' when you see the letter 'x' or 'X'.,n,None,,,,,,,,,0,13,13,13,0,4,4,4,,,,,,,,,,,,,,,,,,,,,,,,,,,,,,,,,,,,,,,,,,,,,,,,,,,,,,,,,,,,,,,,,,,,,1.3014,818.0194222,None,None,1,818.0194222,None,,P049,FENCOG,2,Post,2022_Jun_13_1411,N-Back (New Version 2021),2021.1.4,120.3330337
,,,,Conditions/Version_1/zeroback(4)_v1.xlsx,New rule: Press 'space' when you see the letter 'x' or 'X'.,m,None,,,,,,,,,0,13,13,13,0,5,5,5,,,,,,,,,,,,,,,,,,,,,,,,,,,,,,,,,,,,,,,,,,,,,,,,,,,,,,,,,,,,,,,,,,,,,1.5246,821.543425,None,None,1,821.543425,None,,P049,FENCOG,2,Post,2022_Jun_13_1411,N-Back (New Version 2021),2021.1.4,120.3330337
,,,,Conditions/Version_1/zeroback(4)_v1.xlsx,New rule: Press 'space' when you see the letter 'x' or 'X'.,C,None,,,,,,,,,0,13,13,13,0,6,6,6,,,,,,,,,,,,,,,,,,,,,,,,,,,,,,,,,,,,,,,,,,,,,,,,,,,,,,,,,,,,,,,,,,,,,1.2766,824.8264757,None,None,1,824.8264757,None,,P049,FENCOG,2,Post,2022_Jun_13_1411,N-Back (New Version 2021),2021.1.4,120.3330337
,,,,Conditions/Version_1/zeroback(4)_v1.xlsx,New rule: Press 'space' when you see the letter 'x' or 'X'.,m,None,,,,,,,,,0,13,13,13,0,7,7,7,,,,,,,,,,,,,,,,,,,,,,,,,,,,,,,,,,,,,,,,,,,,,,,,,,,,,,,,,,,,,,,,,,,,,1.4564,828.2917138,None,None,1,828.2917138,None,,P049,FENCOG,2,Post,2022_Jun_13_1411,N-Back (New Version 2021),2021.1.4,120.3330337
,,,,Conditions/Version_1/zeroback(4)_v1.xlsx,New rule: Press 'space' when you see the letter 'x' or 'X'.,p,None,,,,,,,,,0,13,13,13,0,8,8,8,,,,,,,,,,,,,,,,,,,,,,,,,,,,,,,,,,,,,,,,,,,,,,,,,,,,,,,,,,,,,,,,,,,,,1.041,831.3321575,None,None,1,831.3321575,None,,P049,FENCOG,2,Post,2022_Jun_13_1411,N-Back (New Version 2021),2021.1.4,120.3330337
,,,,Conditions/Version_1/zeroback(4)_v1.xlsx,New rule: Press 'space' when you see the letter 'x' or 'X'.,X,space,,,,,,,,,0,13,13,13,0,9,9,9,,,,,,,,,,,,,,,,,,,,,,,,,,,,,,,,,,,,,,,,,,,,,,,,,,,,,,,,,,,,,,,,,,,,,1.7974,835.1311031,None,space,1,835.1311031,None,0.3953533,P049,FENCOG,2,Post,2022_Jun_13_1411,N-Back (New Version 2021),2021.1.4,120.3330337
,,,,Conditions/Version_1/zeroback(4)_v1.xlsx,New rule: Press 'space' when you see the letter 'x' or 'X'.,,,,,,,,,,,0,13,13,13,,,,,,,,,,,,,,,,,,,,,,,,,,,,,,,,,,,,,,,,,,,,,,,,,,,,,,,,,,,,,,,,,,,,,,,,,,,,,,,,,P049,FENCOG,2,Post,2022_Jun_13_1411,N-Back (New Version 2021),2021.1.4,120.3330337
,,,,Conditions/Version_1/oneback(4)_v1.xlsx,New rule: Press 'space' when you see 1-back (i.e. the same letter as the one that appeared 1 letter ago.),w,None,,,,,,,,,0,14,14,14,0,0,0,0,,,,,,,,,,,,,,,,,,,,,,,,,,,,,,,,,,,,,,,,,,,,,,,,,,,,,,,,,,,837.1543966,None,840.1394516,None,space,0.7070124,840.1394516,None,837.1543966,None,1.5804,842.453934,None,None,1,842.453934,None,,P049,FENCOG,2,Post,2022_Jun_13_1411,N-Back (New Version 2021),2021.1.4,120.3330337
,,,,Conditions/Version_1/oneback(4)_v1.xlsx,New rule: Press 'space' when you see 1-back (i.e. the same letter as the one that appeared 1 letter ago.),q,None,,,,,,,,,0,14,14,14,0,1,1,1,,,,,,,,,,,,,,,,,,,,,,,,,,,,,,,,,,,,,,,,,,,,,,,,,,,,,,,,,,,,,,,,,,,,,1.2518,845.7113419,None,None,1,845.7113419,None,,P049,FENCOG,2,Post,2022_Jun_13_1411,N-Back (New Version 2021),2021.1.4,120.3330337
,,,,Conditions/Version_1/oneback(4)_v1.xlsx,New rule: Press 'space' when you see 1-back (i.e. the same letter as the one that appeared 1 letter ago.),i,None,,,,,,,,,0,14,14,14,0,2,2,2,,,,,,,,,,,,,,,,,,,,,,,,,,,,,,,,,,,,,,,,,,,,,,,,,,,,,,,,,,,,,,,,,,,,,1.5866,849.3018514,None,None,1,849.3018514,None,,P049,FENCOG,2,Post,2022_Jun_13_1411,N-Back (New Version 2021),2021.1.4,120.3330337
,,,,Conditions/Version_1/oneback(4)_v1.xlsx,New rule: Press 'space' when you see 1-back (i.e. the same letter as the one that appeared 1 letter ago.),t,None,,,,,,,,,0,14,14,14,0,3,3,3,,,,,,,,,,,,,,,,,,,,,,,,,,,,,,,,,,,,,,,,,,,,,,,,,,,,,,,,,,,,,,,,,,,,,1.4936,852.8008394,None,None,1,852.8008394,None,,P049,FENCOG,2,Post,2022_Jun_13_1411,N-Back (New Version 2021),2021.1.4,120.3330337
,,,,Conditions/Version_1/oneback(4)_v1.xlsx,New rule: Press 'space' when you see 1-back (i.e. the same letter as the one that appeared 1 letter ago.),v,None,,,,,,,,,0,14,14,14,0,4,4,4,,,,,,,,,,,,,,,,,,,,,,,,,,,,,,,,,,,,,,,,,,,,,,,,,,,,,,,,,,,,,,,,,,,,,1.2456,856.0501639,None,None,1,856.0501639,None,,P049,FENCOG,2,Post,2022_Jun_13_1411,N-Back (New Version 2021),2021.1.4,120.3330337
,,,,Conditions/Version_1/oneback(4)_v1.xlsx,New rule: Press 'space' when you see 1-back (i.e. the same letter as the one that appeared 1 letter ago.),V,space,,,,,,,,,0,14,14,14,0,5,5,5,,,,,,,,,,,,,,,,,,,,,,,,,,,,,,,,,,,,,,,,,,,,,,,,,,,,,,,,,,,,,,,,,,,,,1.9276,859.9829024,None,space,1,859.9829024,None,0.4477035,P049,FENCOG,2,Post,2022_Jun_13_1411,N-Back (New Version 2021),2021.1.4,120.3330337
,,,,Conditions/Version_1/oneback(4)_v1.xlsx,New rule: Press 'space' when you see 1-back (i.e. the same letter as the one that appeared 1 letter ago.),v,space,,,,,,,,,0,14,14,14,0,6,6,6,,,,,,,,,,,,,,,,,,,,,,,,,,,,,,,,,,,,,,,,,,,,,,,,,,,,,,,,,,,,,,,,,,,,,1.9028,863.8975721,None,space,1,863.8975721,None,0.6847688,P049,FENCOG,2,Post,2022_Jun_13_1411,N-Back (New Version 2021),2021.1.4,120.3330337
,,,,Conditions/Version_1/oneback(4)_v1.xlsx,New rule: Press 'space' when you see 1-back (i.e. the same letter as the one that appeared 1 letter ago.),p,None,,,,,,,,,0,14,14,14,0,7,7,7,,,,,,,,,,,,,,,,,,,,,,,,,,,,,,,,,,,,,,,,,,,,,,,,,,,,,,,,,,,,,,,,,,,,,1.7602,867.6631545,None,None,1,867.6631545,None,,P049,FENCOG,2,Post,2022_Jun_13_1411,N-Back (New Version 2021),2021.1.4,120.3330337
,,,,Conditions/Version_1/oneback(4)_v1.xlsx,New rule: Press 'space' when you see 1-back (i.e. the same letter as the one that appeared 1 letter ago.),w,None,,,,,,,,,0,14,14,14,0,8,8,8,,,,,,,,,,,,,,,,,,,,,,,,,,,,,,,,,,,,,,,,,,,,,,,,,,,,,,,,,,,,,,,,,,,,,1.1464,870.8122289,None,None,1,870.8122289,None,,P049,FENCOG,2,Post,2022_Jun_13_1411,N-Back (New Version 2021),2021.1.4,120.3330337
,,,,Conditions/Version_1/oneback(4)_v1.xlsx,New rule: Press 'space' when you see 1-back (i.e. the same letter as the one that appeared 1 letter ago.),W,space,,,,,,,,,0,14,14,14,0,9,9,9,,,,,,,,,,,,,,,,,,,,,,,,,,,,,,,,,,,,,,,,,,,,,,,,,,,,,,,,,,,,,,,,,,,,,1.1278,873.944652,None,space,1,873.944652,None,0.7975754,P049,FENCOG,2,Post,2022_Jun_13_1411,N-Back (New Version 2021),2021.1.4,120.3330337
,,,,Conditions/Version_1/oneback(4)_v1.xlsx,New rule: Press 'space' when you see 1-back (i.e. the same letter as the one that appeared 1 letter ago.),,,,,,,,,,,0,14,14,14,,,,,,,,,,,,,,,,,,,,,,,,,,,,,,,,,,,,,,,,,,,,,,,,,,,,,,,,,,,,,,,,,,,,,,,,,,,,,,,,,P049,FENCOG,2,Post,2022_Jun_13_1411,N-Back (New Version 2021),2021.1.4,120.3330337
,,,,Conditions/Version_1/threeback(4)_v1.xlsx,New rule: Press 'space' when you see 3-back (i.e. the same letter as the one that appeared 3 letters ago.),A,None,,,,,,,,,0,15,15,15,0,0,0,0,,,,,,,,,,,,,,,,,,,,,,,,,,,,,,,,,,,,,,,,,,,,,,,,,,,,,,,,,,,875.9785451,None,878.9545036,None,space,0.7479396,878.9545036,None,875.9785451,None,1.5494,881.2766998,None,None,1,881.2766998,None,,P049,FENCOG,2,Post,2022_Jun_13_1411,N-Back (New Version 2021),2021.1.4,120.3330337
,,,,Conditions/Version_1/threeback(4)_v1.xlsx,New rule: Press 'space' when you see 3-back (i.e. the same letter as the one that appeared 3 letters ago.),n,None,,,,,,,,,0,15,15,15,0,1,1,1,,,,,,,,,,,,,,,,,,,,,,,,,,,,,,,,,,,,,,,,,,,,,,,,,,,,,,,,,,,,,,,,,,,,,1.971,885.2579457,None,None,1,885.2579457,None,,P049,FENCOG,2,Post,2022_Jun_13_1411,N-Back (New Version 2021),2021.1.4,120.3330337
,,,,Conditions/Version_1/threeback(4)_v1.xlsx,New rule: Press 'space' when you see 3-back (i.e. the same letter as the one that appeared 3 letters ago.),g,None,,,,,,,,,0,15,15,15,0,2,2,2,,,,,,,,,,,,,,,,,,,,,,,,,,,,,,,,,,,,,,,,,,,,,,,,,,,,,,,,,,,,,,,,,,,,,1.6052,888.8652629,None,None,1,888.8652629,None,,P049,FENCOG,2,Post,2022_Jun_13_1411,N-Back (New Version 2021),2021.1.4,120.3330337
,,,,Conditions/Version_1/threeback(4)_v1.xlsx,New rule: Press 'space' when you see 3-back (i.e. the same letter as the one that appeared 3 letters ago.),A,space,,,,,,,,,0,15,15,15,0,3,3,3,,,,,,,,,,,,,,,,,,,,,,,,,,,,,,,,,,,,,,,,,,,,,,,,,,,,,,,,,,,,,,,,,,,,,1.3634,892.2311022,None,space,1,892.2311022,None,0.8960539,P049,FENCOG,2,Post,2022_Jun_13_1411,N-Back (New Version 2021),2021.1.4,120.3330337
,,,,Conditions/Version_1/threeback(4)_v1.xlsx,New rule: Press 'space' when you see 3-back (i.e. the same letter as the one that appeared 3 letters ago.),p,None,,,,,,,,,0,15,15,15,0,4,4,4,,,,,,,,,,,,,,,,,,,,,,,,,,,,,,,,,,,,,,,,,,,,,,,,,,,,,,,,,,,,,,,,,,,,,1.8532,896.0880912,None,None,1,896.0880912,None,,P049,FENCOG,2,Post,2022_Jun_13_1411,N-Back (New Version 2021),2021.1.4,120.3330337
,,,,Conditions/Version_1/threeback(4)_v1.xlsx,New rule: Press 'space' when you see 3-back (i.e. the same letter as the one that appeared 3 letters ago.),O,None,,,,,,,,,0,15,15,15,0,5,5,5,,,,,,,,,,,,,,,,,,,,,,,,,,,,,,,,,,,,,,,,,,,,,,,,,,,,,,,,,,,,,,,,,,,,,1.0224,899.1124477,None,None,1,899.1124477,None,,P049,FENCOG,2,Post,2022_Jun_13_1411,N-Back (New Version 2021),2021.1.4,120.3330337
,,,,Conditions/Version_1/threeback(4)_v1.xlsx,New rule: Press 'space' when you see 3-back (i.e. the same letter as the one that appeared 3 letters ago.),a,space,,,,,,,,,0,15,15,15,0,6,6,6,,,,,,,,,,,,,,,,,,,,,,,,,,,,,,,,,,,,,,,,,,,,,,,,,,,,,,,,,,,,,,,,,,,,,1.0596,902.1782401,None,space,1,902.1782401,None,0.6361237,P049,FENCOG,2,Post,2022_Jun_13_1411,N-Back (New Version 2021),2021.1.4,120.3330337
,,,,Conditions/Version_1/threeback(4)_v1.xlsx,New rule: Press 'space' when you see 3-back (i.e. the same letter as the one that appeared 3 letters ago.),p,space,,,,,,,,,0,15,15,15,0,7,7,7,,,,,,,,,,,,,,,,,,,,,,,,,,,,,,,,,,,,,,,,,,,,,,,,,,,,,,,,,,,,,,,,,,,,,1.3262,905.5105557,None,space,1,905.5105557,None,0.7840454,P049,FENCOG,2,Post,2022_Jun_13_1411,N-Back (New Version 2021),2021.1.4,120.3330337
,,,,Conditions/Version_1/threeback(4)_v1.xlsx,New rule: Press 'space' when you see 3-back (i.e. the same letter as the one that appeared 3 letters ago.),x,None,,,,,,,,,0,15,15,15,0,8,8,8,,,,,,,,,,,,,,,,,,,,,,,,,,,,,,,,,,,,,,,,,,,,,,,,,,,,,,,,,,,,,,,,,,,,,1.7106,909.2259664,None,None,1,909.2259664,None,,P049,FENCOG,2,Post,2022_Jun_13_1411,N-Back (New Version 2021),2021.1.4,120.3330337
,,,,Conditions/Version_1/threeback(4)_v1.xlsx,New rule: Press 'space' when you see 3-back (i.e. the same letter as the one that appeared 3 letters ago.),X,None,,,,,,,,,0,15,15,15,0,9,9,9,,,,,,,,,,,,,,,,,,,,,,,,,,,,,,,,,,,,,,,,,,,,,,,,,,,,,,,,,,,,,,,,,,,,,1.2952,912.5253488,None,None,1,912.5253488,None,,P049,FENCOG,2,Post,2022_Jun_13_1411,N-Back (New Version 2021),2021.1.4,120.3330337
,,,,Conditions/Version_1/threeback(4)_v1.xlsx,New rule: Press 'space' when you see 3-back (i.e. the same letter as the one that appeared 3 letters ago.),,,,,,,,,,,0,15,15,15,,,,,,,,,,,,,,,,,,,,,,,,,,,,,,,,,,,,,,,,,,,,,,,,,,,,,,,,,,,,,,,,,,,,,,,,,,,,,,,,,P049,FENCOG,2,Post,2022_Jun_13_1411,N-Back (New Version 2021),2021.1.4,120.3330337
