CondFileP,InstructionsP,LettersDisplayedP,CorrectnessP,CondFile,Instructions,LettersDisplayed,Correctness,practicetrials.thisRepN,practicetrials.thisTrialN,practicetrials.thisN,practicetrials.thisIndex,InnerLoopPractice.thisRepN,InnerLoopPractice.thisTrialN,InnerLoopPractice.thisN,InnerLoopPractice.thisIndex,trials.thisRepN,trials.thisTrialN,trials.thisN,trials.thisIndex,InnerLoop.thisRepN,InnerLoop.thisTrialN,InnerLoop.thisN,InnerLoop.thisIndex,TaskVersionText.started,TaskVersionText.stopped,InstrKey1.keys,InstrKey1.rt,InstrKey1.started,InstrKey1.stopped,text.started,text.stopped,key_resp_4.keys,key_resp_4.rt,key_resp_4.started,key_resp_4.stopped,text_2.started,text_2.stopped,key_resp_3.keys,key_resp_3.rt,key_resp_3.started,key_resp_3.stopped,text_3.started,text_3.stopped,key_resp_2.keys,key_resp_2.rt,key_resp_2.started,key_resp_2.stopped,PractIn1.started,PractIn1.stopped,PractIn2.started,PractIn2.stopped,PractInstructionPass.keys,PractInstructionPass.rt,PractInstructionPass.started,PractInstructionPass.stopped,PractBlock1.started,PractBlock1.stopped,ISIjitterPractice,ISI_Pract_Fixation.started,ISI_Pract_Fixation.stopped,N_backP.started,N_backP.stopped,KeyPractice.keys,KeyPractice.corr,KeyPractice.started,KeyPractice.stopped,text_4.started,text_4.stopped,KeyPractice.rt,TransitionText.started,TransitionText.stopped,key_resp_6.keys,key_resp_6.rt,key_resp_6.started,key_resp_6.stopped,text_5.started,text_5.stopped,key_resp_5.keys,key_resp_5.rt,key_resp_5.started,key_resp_5.stopped,MainInt1.started,MainInt1.stopped,MainInt2.started,MainInt2.stopped,InstructionPass.keys,InstructionPass.rt,InstructionPass.started,InstructionPass.stopped,Blocks1.started,Blocks1.stopped,ISIjitter,N_backD.started,N_backD.stopped,key_resp.keys,key_resp.corr,key_resp.started,key_resp.stopped,key_resp.rt,participant,Study Name,Task Version (required to run),PRE/POST,date,expName,psychopyVersion,frameRate
,,,,,,,,,,,,,,,,,,,,,,,,58.9660426,None,space,7.1294342,59.4594029,None,,,,,,,,,,,,,,,,,,,,,,,,,,,,,,,,,,,,,,,,,,,,,,,,,,,,,,,,,,,,,,,,,,,,,,,P050,FENCOG,1,Post,2022_Jun_16_1204,N-Back (New Version 2021),2021.1.4,119.9758609
,,,,,,,,,,,,,,,,,,,,,,,,,,,,,,66.6234006,None,space,8.1285347,67.1161399,None,,,,,,,,,,,,,,,,,,,,,,,,,,,,,,,,,,,,,,,,,,,,,,,,,,,,,,,,,,,,,,,,,P050,FENCOG,1,Post,2022_Jun_16_1204,N-Back (New Version 2021),2021.1.4,119.9758609
,,,,,,,,,,,,,,,,,,,,,,,,,,,,,,,,,,,,75.2774744,None,space,22.4086934,75.7722164,None,,,,,,,,,,,,,,,,,,,,,,,,,,,,,,,,,,,,,,,,,,,,,,,,,,,,,,,,,,,P050,FENCOG,1,Post,2022_Jun_16_1204,N-Back (New Version 2021),2021.1.4,119.9758609
,,,,,,,,,,,,,,,,,,,,,,,,,,,,,,,,,,,,,,,,,,98.2092212,None,space,12.0182246,98.6984883,None,,,,,,,,,,,,,,,,,,,,,,,,,,,,,,,,,,,,,,,,,,,,,,,,,,,,,P050,FENCOG,1,Post,2022_Jun_16_1204,N-Back (New Version 2021),2021.1.4,119.9758609
Conditions/Version_1Pr/zeroback(1)_v1.xlsx,Rule: Press 'space' when you see the letter 'x' or 'X'.,Z,None,,,,,0,0,0,0,0,0,0,0,,,,,,,,,,,,,,,,,,,,,,,,,,,,,,,,,112.1031491,None,115.0862278,None,space,0.9505329,115.0862278,None,112.1031491,None,1.54,116.0702649,None,117.6241786,None,None,1,117.6241786,None,119.6265711,None,,,,,,,,,,,,,,,,,,,,,,,,,,,,,,,,P050,FENCOG,1,Post,2022_Jun_16_1204,N-Back (New Version 2021),2021.1.4,119.9758609
Conditions/Version_1Pr/zeroback(1)_v1.xlsx,Rule: Press 'space' when you see the letter 'x' or 'X'.,r,None,,,,,0,0,0,0,0,1,1,1,,,,,,,,,,,,,,,,,,,,,,,,,,,,,,,,,,,,,,,,,,,1.99,121.1244623,None,123.1162394,None,None,1,123.1162394,None,125.1232227,None,,,,,,,,,,,,,,,,,,,,,,,,,,,,,,,,P050,FENCOG,1,Post,2022_Jun_16_1204,N-Back (New Version 2021),2021.1.4,119.9758609
Conditions/Version_1Pr/zeroback(1)_v1.xlsx,Rule: Press 'space' when you see the letter 'x' or 'X'.,X,space,,,,,0,0,0,0,0,2,2,2,,,,,,,,,,,,,,,,,,,,,,,,,,,,,,,,,,,,,,,,,,,1.19,126.6228572,None,127.8165351,None,space,1,127.8165351,None,128.2148496,None,0.3881912,,,,,,,,,,,,,,,,,,,,,,,,,,,,,,,P050,FENCOG,1,Post,2022_Jun_16_1204,N-Back (New Version 2021),2021.1.4,119.9758609
Conditions/Version_1Pr/zeroback(1)_v1.xlsx,Rule: Press 'space' when you see the letter 'x' or 'X'.,p,None,,,,,0,0,0,0,0,3,3,3,,,,,,,,,,,,,,,,,,,,,,,,,,,,,,,,,,,,,,,,,,,1.89,129.7220056,None,131.6145412,None,None,1,131.6145412,None,133.6207915,None,,,,,,,,,,,,,,,,,,,,,,,,,,,,,,,,P050,FENCOG,1,Post,2022_Jun_16_1204,N-Back (New Version 2021),2021.1.4,119.9758609
Conditions/Version_1Pr/zeroback(1)_v1.xlsx,Rule: Press 'space' when you see the letter 'x' or 'X'.,w,None,,,,,0,0,0,0,0,4,4,4,,,,,,,,,,,,,,,,,,,,,,,,,,,,,,,,,,,,,,,,,,,1.69,135.1203123,None,136.8130798,None,None,1,136.8130798,None,138.8192706,None,,,,,,,,,,,,,,,,,,,,,,,,,,,,,,,,P050,FENCOG,1,Post,2022_Jun_16_1204,N-Back (New Version 2021),2021.1.4,119.9758609
Conditions/Version_1Pr/zeroback(1)_v1.xlsx,Rule: Press 'space' when you see the letter 'x' or 'X'.,e,None,,,,,0,0,0,0,0,5,5,5,,,,,,,,,,,,,,,,,,,,,,,,,,,,,,,,,,,,,,,,,,,1.865,140.3188479,None,142.1864911,None,None,1,142.1864911,None,144.1927177,None,,,,,,,,,,,,,,,,,,,,,,,,,,,,,,,,P050,FENCOG,1,Post,2022_Jun_16_1204,N-Back (New Version 2021),2021.1.4,119.9758609
Conditions/Version_1Pr/zeroback(1)_v1.xlsx,Rule: Press 'space' when you see the letter 'x' or 'X'.,X,space,,,,,0,0,0,0,0,6,6,6,,,,,,,,,,,,,,,,,,,,,,,,,,,,,,,,,,,,,,,,,,,2.015,145.6922547,None,147.7080876,None,space,1,147.7080876,None,148.0428776,None,0.3205926,,,,,,,,,,,,,,,,,,,,,,,,,,,,,,,P050,FENCOG,1,Post,2022_Jun_16_1204,N-Back (New Version 2021),2021.1.4,119.9758609
Conditions/Version_1Pr/zeroback(1)_v1.xlsx,Rule: Press 'space' when you see the letter 'x' or 'X'.,x,space,,,,,0,0,0,0,0,7,7,7,,,,,,,,,,,,,,,,,,,,,,,,,,,,,,,,,,,,,,,,,,,1.79,149.5494153,None,151.343834,None,space,1,151.343834,None,151.7596545,None,0.404958,,,,,,,,,,,,,,,,,,,,,,,,,,,,,,,P050,FENCOG,1,Post,2022_Jun_16_1204,N-Back (New Version 2021),2021.1.4,119.9758609
Conditions/Version_1Pr/zeroback(1)_v1.xlsx,Rule: Press 'space' when you see the letter 'x' or 'X'.,p,None,,,,,0,0,0,0,0,8,8,8,,,,,,,,,,,,,,,,,,,,,,,,,,,,,,,,,,,,,,,,,,,1.215,153.2647442,None,154.4824044,None,None,1,154.4824044,None,156.4889144,None,,,,,,,,,,,,,,,,,,,,,,,,,,,,,,,,P050,FENCOG,1,Post,2022_Jun_16_1204,N-Back (New Version 2021),2021.1.4,119.9758609
Conditions/Version_1Pr/zeroback(1)_v1.xlsx,Rule: Press 'space' when you see the letter 'x' or 'X'.,r,None,,,,,0,0,0,0,0,9,9,9,,,,,,,,,,,,,,,,,,,,,,,,,,,,,,,,,,,,,,,,,,,1.815,157.9886074,None,159.8054927,None,None,1,159.8054927,None,161.8124522,None,,,,,,,,,,,,,,,,,,,,,,,,,,,,,,,,P050,FENCOG,1,Post,2022_Jun_16_1204,N-Back (New Version 2021),2021.1.4,119.9758609
Conditions/Version_1Pr/zeroback(1)_v1.xlsx,Rule: Press 'space' when you see the letter 'x' or 'X'.,,,,,,,0,0,0,0,,,,,,,,,,,,,,,,,,,,,,,,,,,,,,,,,,,,,,,,,,,,,,,,,,,,,,,,,,,,,,,,,,,,,,,,,,,,,,,,,,,,,,,,,P050,FENCOG,1,Post,2022_Jun_16_1204,N-Back (New Version 2021),2021.1.4,119.9758609
Conditions/Version_1Pr/oneback(1)_v1.xlsx,New rule: Press 'space' when you see 1-back (i.e. the same letter as the one that appeared 1 letter ago.),a,None,,,,,0,1,1,1,0,0,0,0,,,,,,,,,,,,,,,,,,,,,,,,,,,,,,,,,163.3377769,None,166.321631,None,space,0.6671463,166.321631,None,163.3377769,None,1.215,167.020371,None,168.2383905,None,None,1,168.2383905,None,170.2429888,None,,,,,,,,,,,,,,,,,,,,,,,,,,,,,,,,P050,FENCOG,1,Post,2022_Jun_16_1204,N-Back (New Version 2021),2021.1.4,119.9758609
Conditions/Version_1Pr/oneback(1)_v1.xlsx,New rule: Press 'space' when you see 1-back (i.e. the same letter as the one that appeared 1 letter ago.),x,None,,,,,0,1,1,1,0,1,1,1,,,,,,,,,,,,,,,,,,,,,,,,,,,,,,,,,,,,,,,,,,,1.14,171.7428979,None,172.8848954,None,None,1,172.8848954,None,174.8919718,None,,,,,,,,,,,,,,,,,,,,,,,,,,,,,,,,P050,FENCOG,1,Post,2022_Jun_16_1204,N-Back (New Version 2021),2021.1.4,119.9758609
Conditions/Version_1Pr/oneback(1)_v1.xlsx,New rule: Press 'space' when you see 1-back (i.e. the same letter as the one that appeared 1 letter ago.),g,None,,,,,0,1,1,1,0,2,2,2,,,,,,,,,,,,,,,,,,,,,,,,,,,,,,,,,,,,,,,,,,,2.015,176.3915272,None,178.4092922,None,None,1,178.4092922,None,180.4152898,None,,,,,,,,,,,,,,,,,,,,,,,,,,,,,,,,P050,FENCOG,1,Post,2022_Jun_16_1204,N-Back (New Version 2021),2021.1.4,119.9758609
Conditions/Version_1Pr/oneback(1)_v1.xlsx,New rule: Press 'space' when you see 1-back (i.e. the same letter as the one that appeared 1 letter ago.),G,space,,,,,0,1,1,1,0,3,3,3,,,,,,,,,,,,,,,,,,,,,,,,,,,,,,,,,,,,,,,,,,,1.49,181.914852,None,183.408586,None,space,1,183.408586,None,183.9489982,None,0.5240353,,,,,,,,,,,,,,,,,,,,,,,,,,,,,,,P050,FENCOG,1,Post,2022_Jun_16_1204,N-Back (New Version 2021),2021.1.4,119.9758609
Conditions/Version_1Pr/oneback(1)_v1.xlsx,New rule: Press 'space' when you see 1-back (i.e. the same letter as the one that appeared 1 letter ago.),u,None,,,,,0,1,1,1,0,4,4,4,,,,,,,,,,,,,,,,,,,,,,,,,,,,,,,,,,,,,,,,,,,1.19,185.4551486,None,186.6493492,None,None,1,186.6493492,None,188.6545646,None,,,,,,,,,,,,,,,,,,,,,,,,,,,,,,,,P050,FENCOG,1,Post,2022_Jun_16_1204,N-Back (New Version 2021),2021.1.4,119.9758609
Conditions/Version_1Pr/oneback(1)_v1.xlsx,New rule: Press 'space' when you see 1-back (i.e. the same letter as the one that appeared 1 letter ago.),y,None,,,,,0,1,1,1,0,5,5,5,,,,,,,,,,,,,,,,,,,,,,,,,,,,,,,,,,,,,,,,,,,1.54,190.1541165,None,191.6959471,None,None,1,191.6959471,None,193.7030491,None,,,,,,,,,,,,,,,,,,,,,,,,,,,,,,,,P050,FENCOG,1,Post,2022_Jun_16_1204,N-Back (New Version 2021),2021.1.4,119.9758609
Conditions/Version_1Pr/oneback(1)_v1.xlsx,New rule: Press 'space' when you see 1-back (i.e. the same letter as the one that appeared 1 letter ago.),y,space,,,,,0,1,1,1,0,6,6,6,,,,,,,,,,,,,,,,,,,,,,,,,,,,,,,,,,,,,,,,,,,1.84,195.2024146,None,197.0437296,None,space,1,197.0437296,None,197.4200284,None,0.361041,,,,,,,,,,,,,,,,,,,,,,,,,,,,,,,P050,FENCOG,1,Post,2022_Jun_16_1204,N-Back (New Version 2021),2021.1.4,119.9758609
Conditions/Version_1Pr/oneback(1)_v1.xlsx,New rule: Press 'space' when you see 1-back (i.e. the same letter as the one that appeared 1 letter ago.),k,None,,,,,0,1,1,1,0,7,7,7,,,,,,,,,,,,,,,,,,,,,,,,,,,,,,,,,,,,,,,,,,,1.69,198.9263156,None,200.6182827,None,None,1,200.6182827,None,202.6254545,None,,,,,,,,,,,,,,,,,,,,,,,,,,,,,,,,P050,FENCOG,1,Post,2022_Jun_16_1204,N-Back (New Version 2021),2021.1.4,119.9758609
Conditions/Version_1Pr/oneback(1)_v1.xlsx,New rule: Press 'space' when you see 1-back (i.e. the same letter as the one that appeared 1 letter ago.),c,None,,,,,0,1,1,1,0,8,8,8,,,,,,,,,,,,,,,,,,,,,,,,,,,,,,,,,,,,,,,,,,,1.565,204.1249231,None,205.6936092,None,None,1,205.6936092,None,207.6988309,None,,,,,,,,,,,,,,,,,,,,,,,,,,,,,,,,P050,FENCOG,1,Post,2022_Jun_16_1204,N-Back (New Version 2021),2021.1.4,119.9758609
Conditions/Version_1Pr/oneback(1)_v1.xlsx,New rule: Press 'space' when you see 1-back (i.e. the same letter as the one that appeared 1 letter ago.),r,None,,,,,0,1,1,1,0,9,9,9,,,,,,,,,,,,,,,,,,,,,,,,,,,,,,,,,,,,,,,,,,,1.115,209.1991493,None,210.3155305,None,None,1,210.3155305,None,212.3226117,None,,,,,,,,,,,,,,,,,,,,,,,,,,,,,,,,P050,FENCOG,1,Post,2022_Jun_16_1204,N-Back (New Version 2021),2021.1.4,119.9758609
Conditions/Version_1Pr/oneback(1)_v1.xlsx,New rule: Press 'space' when you see 1-back (i.e. the same letter as the one that appeared 1 letter ago.),,,,,,,0,1,1,1,,,,,,,,,,,,,,,,,,,,,,,,,,,,,,,,,,,,,,,,,,,,,,,,,,,,,,,,,,,,,,,,,,,,,,,,,,,,,,,,,,,,,,,,,P050,FENCOG,1,Post,2022_Jun_16_1204,N-Back (New Version 2021),2021.1.4,119.9758609
Conditions/Version_1Pr/twoback(1)_v1.xlsx,New rule: Press 'space' when you see 2-back (i.e. the same letter as the one that appeared 2 letters ago.),E,None,,,,,0,2,2,2,0,0,0,0,,,,,,,,,,,,,,,,,,,,,,,,,,,,,,,,,213.8504705,None,216.8317515,None,space,0.8769408,216.8317515,None,213.8504705,None,1.19,217.7361051,None,218.9307675,None,None,1,218.9307675,None,220.9367645,None,,,,,,,,,,,,,,,,,,,,,,,,,,,,,,,,P050,FENCOG,1,Post,2022_Jun_16_1204,N-Back (New Version 2021),2021.1.4,119.9758609
Conditions/Version_1Pr/twoback(1)_v1.xlsx,New rule: Press 'space' when you see 2-back (i.e. the same letter as the one that appeared 2 letters ago.),p,None,,,,,0,2,2,2,0,1,1,1,,,,,,,,,,,,,,,,,,,,,,,,,,,,,,,,,,,,,,,,,,,1.415,222.4362195,None,223.8532115,None,None,1,223.8532115,None,225.8601897,None,,,,,,,,,,,,,,,,,,,,,,,,,,,,,,,,P050,FENCOG,1,Post,2022_Jun_16_1204,N-Back (New Version 2021),2021.1.4,119.9758609
Conditions/Version_1Pr/twoback(1)_v1.xlsx,New rule: Press 'space' when you see 2-back (i.e. the same letter as the one that appeared 2 letters ago.),e,space,,,,,0,2,2,2,0,2,2,2,,,,,,,,,,,,,,,,,,,,,,,,,,,,,,,,,,,,,,,,,,,1.94,227.3598229,None,229.300681,None,space,1,229.300681,None,229.9104967,None,0.5999546,,,,,,,,,,,,,,,,,,,,,,,,,,,,,,,P050,FENCOG,1,Post,2022_Jun_16_1204,N-Back (New Version 2021),2021.1.4,119.9758609
Conditions/Version_1Pr/twoback(1)_v1.xlsx,New rule: Press 'space' when you see 2-back (i.e. the same letter as the one that appeared 2 letters ago.),s,None,,,,,0,2,2,2,0,3,3,3,,,,,,,,,,,,,,,,,,,,,,,,,,,,,,,,,,,,,,,,,,,1.99,231.416844,None,233.4096862,None,None,1,233.4096862,None,235.4157499,None,,,,,,,,,,,,,,,,,,,,,,,,,,,,,,,,P050,FENCOG,1,Post,2022_Jun_16_1204,N-Back (New Version 2021),2021.1.4,119.9758609
Conditions/Version_1Pr/twoback(1)_v1.xlsx,New rule: Press 'space' when you see 2-back (i.e. the same letter as the one that appeared 2 letters ago.),S,None,,,,,0,2,2,2,0,4,4,4,,,,,,,,,,,,,,,,,,,,,,,,,,,,,,,,,,,,,,,,,,,1.715,236.915322,None,238.633186,None,space,0,238.633186,None,239.4282291,None,0.7796846,,,,,,,,,,,,,,,,,,,,,,,,,,,,,,,P050,FENCOG,1,Post,2022_Jun_16_1204,N-Back (New Version 2021),2021.1.4,119.9758609
Conditions/Version_1Pr/twoback(1)_v1.xlsx,New rule: Press 'space' when you see 2-back (i.e. the same letter as the one that appeared 2 letters ago.),s,space,,,,,0,2,2,2,0,5,5,5,,,,,,,,,,,,,,,,,,,,,,,,,,,,,,,,,,,,,,,,,,,1.065,240.9306277,None,241.9978788,None,space,1,241.9978788,None,242.5177566,None,0.5029323,,,,,,,,,,,,,,,,,,,,,,,,,,,,,,,P050,FENCOG,1,Post,2022_Jun_16_1204,N-Back (New Version 2021),2021.1.4,119.9758609
Conditions/Version_1Pr/twoback(1)_v1.xlsx,New rule: Press 'space' when you see 2-back (i.e. the same letter as the one that appeared 2 letters ago.),P,None,,,,,0,2,2,2,0,6,6,6,,,,,,,,,,,,,,,,,,,,,,,,,,,,,,,,,,,,,,,,,,,1.39,244.0214906,None,245.4145916,None,None,1,245.4145916,None,247.4206115,None,,,,,,,,,,,,,,,,,,,,,,,,,,,,,,,,P050,FENCOG,1,Post,2022_Jun_16_1204,N-Back (New Version 2021),2021.1.4,119.9758609
Conditions/Version_1Pr/twoback(1)_v1.xlsx,New rule: Press 'space' when you see 2-back (i.e. the same letter as the one that appeared 2 letters ago.),C,None,,,,,0,2,2,2,0,7,7,7,,,,,,,,,,,,,,,,,,,,,,,,,,,,,,,,,,,,,,,,,,,1.765,248.9200509,None,250.6879082,None,None,1,250.6879082,None,252.693932,None,,,,,,,,,,,,,,,,,,,,,,,,,,,,,,,,P050,FENCOG,1,Post,2022_Jun_16_1204,N-Back (New Version 2021),2021.1.4,119.9758609
Conditions/Version_1Pr/twoback(1)_v1.xlsx,New rule: Press 'space' when you see 2-back (i.e. the same letter as the one that appeared 2 letters ago.),x,None,,,,,0,2,2,2,0,8,8,8,,,,,,,,,,,,,,,,,,,,,,,,,,,,,,,,,,,,,,,,,,,1.915,254.1933292,None,256.1091993,None,None,1,256.1091993,None,258.1089162,None,,,,,,,,,,,,,,,,,,,,,,,,,,,,,,,,P050,FENCOG,1,Post,2022_Jun_16_1204,N-Back (New Version 2021),2021.1.4,119.9758609
Conditions/Version_1Pr/twoback(1)_v1.xlsx,New rule: Press 'space' when you see 2-back (i.e. the same letter as the one that appeared 2 letters ago.),Z,None,,,,,0,2,2,2,0,9,9,9,,,,,,,,,,,,,,,,,,,,,,,,,,,,,,,,,,,,,,,,,,,1.565,259.6083391,None,261.1752542,None,None,1,261.1752542,None,263.1825348,None,,,,,,,,,,,,,,,,,,,,,,,,,,,,,,,,P050,FENCOG,1,Post,2022_Jun_16_1204,N-Back (New Version 2021),2021.1.4,119.9758609
Conditions/Version_1Pr/twoback(1)_v1.xlsx,New rule: Press 'space' when you see 2-back (i.e. the same letter as the one that appeared 2 letters ago.),,,,,,,0,2,2,2,,,,,,,,,,,,,,,,,,,,,,,,,,,,,,,,,,,,,,,,,,,,,,,,,,,,,,,,,,,,,,,,,,,,,,,,,,,,,,,,,,,,,,,,,P050,FENCOG,1,Post,2022_Jun_16_1204,N-Back (New Version 2021),2021.1.4,119.9758609
Conditions/Version_1Pr/threeback(1)_v1.xlsx,New rule: Press 'space' when you see 3-back (i.e. the same letter as the one that appeared 3 letters ago.),r,None,,,,,0,3,3,3,0,0,0,0,,,,,,,,,,,,,,,,,,,,,,,,,,,,,,,,,264.7072917,None,267.6915211,None,space,0.9452476,267.6915211,None,264.7072917,None,1.715,268.668898,None,270.3896391,None,None,1,270.3896391,None,272.3964556,None,,,,,,,,,,,,,,,,,,,,,,,,,,,,,,,,P050,FENCOG,1,Post,2022_Jun_16_1204,N-Back (New Version 2021),2021.1.4,119.9758609
Conditions/Version_1Pr/threeback(1)_v1.xlsx,New rule: Press 'space' when you see 3-back (i.e. the same letter as the one that appeared 3 letters ago.),a,None,,,,,0,3,3,3,0,1,1,1,,,,,,,,,,,,,,,,,,,,,,,,,,,,,,,,,,,,,,,,,,,1.665,273.8960376,None,275.5642729,None,None,1,275.5642729,None,277.5699324,None,,,,,,,,,,,,,,,,,,,,,,,,,,,,,,,,P050,FENCOG,1,Post,2022_Jun_16_1204,N-Back (New Version 2021),2021.1.4,119.9758609
Conditions/Version_1Pr/threeback(1)_v1.xlsx,New rule: Press 'space' when you see 3-back (i.e. the same letter as the one that appeared 3 letters ago.),t,None,,,,,0,3,3,3,0,2,2,2,,,,,,,,,,,,,,,,,,,,,,,,,,,,,,,,,,,,,,,,,,,1.79,279.0694628,None,280.86291,None,None,1,280.86291,None,282.868381,None,,,,,,,,,,,,,,,,,,,,,,,,,,,,,,,,P050,FENCOG,1,Post,2022_Jun_16_1204,N-Back (New Version 2021),2021.1.4,119.9758609
Conditions/Version_1Pr/threeback(1)_v1.xlsx,New rule: Press 'space' when you see 3-back (i.e. the same letter as the one that appeared 3 letters ago.),r,space,,,,,0,3,3,3,0,3,3,3,,,,,,,,,,,,,,,,,,,,,,,,,,,,,,,,,,,,,,,,,,,1.69,284.3679383,None,286.0586705,None,space,1,286.0586705,None,286.4427901,None,0.3699124,,,,,,,,,,,,,,,,,,,,,,,,,,,,,,,P050,FENCOG,1,Post,2022_Jun_16_1204,N-Back (New Version 2021),2021.1.4,119.9758609
Conditions/Version_1Pr/threeback(1)_v1.xlsx,New rule: Press 'space' when you see 3-back (i.e. the same letter as the one that appeared 3 letters ago.),a,None,,,,,0,3,3,3,0,4,4,4,,,,,,,,,,,,,,,,,,,,,,,,,,,,,,,,,,,,,,,,,,,1.865,287.9499474,None,289.8160636,None,space,0,289.8160636,None,290.195539,None,0.3647862,,,,,,,,,,,,,,,,,,,,,,,,,,,,,,,P050,FENCOG,1,Post,2022_Jun_16_1204,N-Back (New Version 2021),2021.1.4,119.9758609
Conditions/Version_1Pr/threeback(1)_v1.xlsx,New rule: Press 'space' when you see 3-back (i.e. the same letter as the one that appeared 3 letters ago.),Y,None,,,,,0,3,3,3,0,5,5,5,,,,,,,,,,,,,,,,,,,,,,,,,,,,,,,,,,,,,,,,,,,1.34,291.6990504,None,293.0435014,None,None,1,293.0435014,None,295.0492874,None,,,,,,,,,,,,,,,,,,,,,,,,,,,,,,,,P050,FENCOG,1,Post,2022_Jun_16_1204,N-Back (New Version 2021),2021.1.4,119.9758609
Conditions/Version_1Pr/threeback(1)_v1.xlsx,New rule: Press 'space' when you see 3-back (i.e. the same letter as the one that appeared 3 letters ago.),q,None,,,,,0,3,3,3,0,6,6,6,,,,,,,,,,,,,,,,,,,,,,,,,,,,,,,,,,,,,,,,,,,1.94,296.5476299,None,298.4902804,None,None,1,298.4902804,None,300.4965367,None,,,,,,,,,,,,,,,,,,,,,,,,,,,,,,,,P050,FENCOG,1,Post,2022_Jun_16_1204,N-Back (New Version 2021),2021.1.4,119.9758609
Conditions/Version_1Pr/threeback(1)_v1.xlsx,New rule: Press 'space' when you see 3-back (i.e. the same letter as the one that appeared 3 letters ago.),A,space,,,,,0,3,3,3,0,7,7,7,,,,,,,,,,,,,,,,,,,,,,,,,,,,,,,,,,,,,,,,,,,1.815,301.9960427,None,303.8149385,None,None,0,303.8149385,None,305.8258249,None,,,,,,,,,,,,,,,,,,,,,,,,,,,,,,,,P050,FENCOG,1,Post,2022_Jun_16_1204,N-Back (New Version 2021),2021.1.4,119.9758609
Conditions/Version_1Pr/threeback(1)_v1.xlsx,New rule: Press 'space' when you see 3-back (i.e. the same letter as the one that appeared 3 letters ago.),y,None,,,,,0,3,3,3,0,8,8,8,,,,,,,,,,,,,,,,,,,,,,,,,,,,,,,,,,,,,,,,,,,1.04,307.3195067,None,308.3617697,None,space,0,308.3617697,None,309.1150456,None,0.7388319,,,,,,,,,,,,,,,,,,,,,,,,,,,,,,,P050,FENCOG,1,Post,2022_Jun_16_1204,N-Back (New Version 2021),2021.1.4,119.9758609
Conditions/Version_1Pr/threeback(1)_v1.xlsx,New rule: Press 'space' when you see 3-back (i.e. the same letter as the one that appeared 3 letters ago.),r,None,,,,,0,3,3,3,0,9,9,9,,,,,,,,,,,,,,,,,,,,,,,,,,,,,,,,,,,,,,,,,,,1.09,310.6184523,None,311.7104865,None,space,0,311.7104865,None,312.7355154,None,1.0140864,,,,,,,,,,,,,,,,,,,,,,,,,,,,,,,P050,FENCOG,1,Post,2022_Jun_16_1204,N-Back (New Version 2021),2021.1.4,119.9758609
Conditions/Version_1Pr/threeback(1)_v1.xlsx,New rule: Press 'space' when you see 3-back (i.e. the same letter as the one that appeared 3 letters ago.),,,,,,,0,3,3,3,,,,,,,,,,,,,,,,,,,,,,,,,,,,,,,,,,,,,,,,,,,,,,,,,,,,,,,,,,,,,,,,,,,,,,,,,,,,,,,,,,,,,,,,,P050,FENCOG,1,Post,2022_Jun_16_1204,N-Back (New Version 2021),2021.1.4,119.9758609
,,,,,,,,,,,,,,,,,,,,,,,,,,,,,,,,,,,,,,,,,,,,,,,,,,,,,,,,,,,,,,,,,,,,,,314.2508011,None,space,17.2779724,314.7425498,None,,,,,,,,,,,,,,,,,,,,,,,,,P050,FENCOG,1,Post,2022_Jun_16_1204,N-Back (New Version 2021),2021.1.4,119.9758609
,,,,,,,,,,,,,,,,,,,,,,,,,,,,,,,,,,,,,,,,,,,,,,,,,,,,,,,,,,,,,,,,,,,,,,,,,,,,332.0432038,None,space,19.363535,332.5290954,None,,,,,,,,,,,,,,,,,,,P050,FENCOG,1,Post,2022_Jun_16_1204,N-Back (New Version 2021),2021.1.4,119.9758609
,,,,Conditions/Version_1/zeroback(1)_v1.xlsx,Rule: Press 'space' when you see the letter 'x' or 'X'.,b,None,,,,,,,,,0,0,0,0,0,0,0,0,,,,,,,,,,,,,,,,,,,,,,,,,,,,,,,,,,,,,,,,,,,,,,,,,,,,,,,,,,,352.0058026,None,354.9910248,None,space,1.9015727,354.9910248,None,352.0058026,None,1.1712,358.099433,None,None,1,358.099433,None,,P050,FENCOG,1,Post,2022_Jun_16_1204,N-Back (New Version 2021),2021.1.4,119.9758609
,,,,Conditions/Version_1/zeroback(1)_v1.xlsx,Rule: Press 'space' when you see the letter 'x' or 'X'.,T,None,,,,,,,,,0,0,0,0,0,1,1,1,,,,,,,,,,,,,,,,,,,,,,,,,,,,,,,,,,,,,,,,,,,,,,,,,,,,,,,,,,,,,,,,,,,,,1.5432,361.6561351,None,None,1,361.6561351,None,,P050,FENCOG,1,Post,2022_Jun_16_1204,N-Back (New Version 2021),2021.1.4,119.9758609
,,,,Conditions/Version_1/zeroback(1)_v1.xlsx,Rule: Press 'space' when you see the letter 'x' or 'X'.,L,None,,,,,,,,,0,0,0,0,0,2,2,2,,,,,,,,,,,,,,,,,,,,,,,,,,,,,,,,,,,,,,,,,,,,,,,,,,,,,,,,,,,,,,,,,,,,,1.2704,364.9372734,None,None,1,364.9372734,None,,P050,FENCOG,1,Post,2022_Jun_16_1204,N-Back (New Version 2021),2021.1.4,119.9758609
,,,,Conditions/Version_1/zeroback(1)_v1.xlsx,Rule: Press 'space' when you see the letter 'x' or 'X'.,x,space,,,,,,,,,0,0,0,0,0,3,3,3,,,,,,,,,,,,,,,,,,,,,,,,,,,,,,,,,,,,,,,,,,,,,,,,,,,,,,,,,,,,,,,,,,,,,1.0968,368.0442717,None,space,1,368.0442717,None,1.0161754,P050,FENCOG,1,Post,2022_Jun_16_1204,N-Back (New Version 2021),2021.1.4,119.9758609
,,,,Conditions/Version_1/zeroback(1)_v1.xlsx,Rule: Press 'space' when you see the letter 'x' or 'X'.,o,None,,,,,,,,,0,0,0,0,0,4,4,4,,,,,,,,,,,,,,,,,,,,,,,,,,,,,,,,,,,,,,,,,,,,,,,,,,,,,,,,,,,,,,,,,,,,,1.2208,371.2777762,None,None,1,371.2777762,None,,P050,FENCOG,1,Post,2022_Jun_16_1204,N-Back (New Version 2021),2021.1.4,119.9758609
,,,,Conditions/Version_1/zeroback(1)_v1.xlsx,Rule: Press 'space' when you see the letter 'x' or 'X'.,P,None,,,,,,,,,0,0,0,0,0,5,5,5,,,,,,,,,,,,,,,,,,,,,,,,,,,,,,,,,,,,,,,,,,,,,,,,,,,,,,,,,,,,,,,,,,,,,1.32,374.6090125,None,None,1,374.6090125,None,,P050,FENCOG,1,Post,2022_Jun_16_1204,N-Back (New Version 2021),2021.1.4,119.9758609
,,,,Conditions/Version_1/zeroback(1)_v1.xlsx,Rule: Press 'space' when you see the letter 'x' or 'X'.,X,space,,,,,,,,,0,0,0,0,0,6,6,6,,,,,,,,,,,,,,,,,,,,,,,,,,,,,,,,,,,,,,,,,,,,,,,,,,,,,,,,,,,,,,,,,,,,,1.3138,377.9326211,None,space,1,377.9326211,None,0.3117881,P050,FENCOG,1,Post,2022_Jun_16_1204,N-Back (New Version 2021),2021.1.4,119.9758609
,,,,Conditions/Version_1/zeroback(1)_v1.xlsx,Rule: Press 'space' when you see the letter 'x' or 'X'.,n,None,,,,,,,,,0,0,0,0,0,7,7,7,,,,,,,,,,,,,,,,,,,,,,,,,,,,,,,,,,,,,,,,,,,,,,,,,,,,,,,,,,,,,,,,,,,,,1.8718,381.8156307,None,None,1,381.8156307,None,,P050,FENCOG,1,Post,2022_Jun_16_1204,N-Back (New Version 2021),2021.1.4,119.9758609
,,,,Conditions/Version_1/zeroback(1)_v1.xlsx,Rule: Press 'space' when you see the letter 'x' or 'X'.,M,None,,,,,,,,,0,0,0,0,0,8,8,8,,,,,,,,,,,,,,,,,,,,,,,,,,,,,,,,,,,,,,,,,,,,,,,,,,,,,,,,,,,,,,,,,,,,,1.7044,385.5311026,None,None,1,385.5311026,None,,P050,FENCOG,1,Post,2022_Jun_16_1204,N-Back (New Version 2021),2021.1.4,119.9758609
,,,,Conditions/Version_1/zeroback(1)_v1.xlsx,Rule: Press 'space' when you see the letter 'x' or 'X'.,a,None,,,,,,,,,0,0,0,0,0,9,9,9,,,,,,,,,,,,,,,,,,,,,,,,,,,,,,,,,,,,,,,,,,,,,,,,,,,,,,,,,,,,,,,,,,,,,1.134,388.679331,None,None,1,388.679331,None,,P050,FENCOG,1,Post,2022_Jun_16_1204,N-Back (New Version 2021),2021.1.4,119.9758609
,,,,Conditions/Version_1/zeroback(1)_v1.xlsx,Rule: Press 'space' when you see the letter 'x' or 'X'.,,,,,,,,,,,0,0,0,0,,,,,,,,,,,,,,,,,,,,,,,,,,,,,,,,,,,,,,,,,,,,,,,,,,,,,,,,,,,,,,,,,,,,,,,,,,,,,,,,,P050,FENCOG,1,Post,2022_Jun_16_1204,N-Back (New Version 2021),2021.1.4,119.9758609
,,,,Conditions/Version_1/oneback(1)_v1.xlsx,New rule: Press 'space' when you see 1-back (i.e. the same letter as the one that appeared 1 letter ago.),b,None,,,,,,,,,0,1,1,1,0,0,0,0,,,,,,,,,,,,,,,,,,,,,,,,,,,,,,,,,,,,,,,,,,,,,,,,,,,,,,,,,,,390.7080539,None,393.6878623,None,space,0.6607333,393.6878623,None,390.7080539,None,1.909,396.2855127,None,None,1,396.2855127,None,,P050,FENCOG,1,Post,2022_Jun_16_1204,N-Back (New Version 2021),2021.1.4,119.9758609
,,,,Conditions/Version_1/oneback(1)_v1.xlsx,New rule: Press 'space' when you see 1-back (i.e. the same letter as the one that appeared 1 letter ago.),p,None,,,,,,,,,0,1,1,1,0,1,1,1,,,,,,,,,,,,,,,,,,,,,,,,,,,,,,,,,,,,,,,,,,,,,,,,,,,,,,,,,,,,,,,,,,,,,1.0906,399.3855611,None,None,1,399.3855611,None,,P050,FENCOG,1,Post,2022_Jun_16_1204,N-Back (New Version 2021),2021.1.4,119.9758609
,,,,Conditions/Version_1/oneback(1)_v1.xlsx,New rule: Press 'space' when you see 1-back (i.e. the same letter as the one that appeared 1 letter ago.),M,None,,,,,,,,,0,1,1,1,0,2,2,2,,,,,,,,,,,,,,,,,,,,,,,,,,,,,,,,,,,,,,,,,,,,,,,,,,,,,,,,,,,,,,,,,,,,,1.8222,403.215929,None,None,1,403.215929,None,,P050,FENCOG,1,Post,2022_Jun_16_1204,N-Back (New Version 2021),2021.1.4,119.9758609
,,,,Conditions/Version_1/oneback(1)_v1.xlsx,New rule: Press 'space' when you see 1-back (i.e. the same letter as the one that appeared 1 letter ago.),M,space,,,,,,,,,0,1,1,1,0,3,3,3,,,,,,,,,,,,,,,,,,,,,,,,,,,,,,,,,,,,,,,,,,,,,,,,,,,,,,,,,,,,,,,,,,,,,1.723,406.9399638,None,space,1,406.9399638,None,0.3604328,P050,FENCOG,1,Post,2022_Jun_16_1204,N-Back (New Version 2021),2021.1.4,119.9758609
,,,,Conditions/Version_1/oneback(1)_v1.xlsx,New rule: Press 'space' when you see 1-back (i.e. the same letter as the one that appeared 1 letter ago.),n,None,,,,,,,,,0,1,1,1,0,4,4,4,,,,,,,,,,,,,,,,,,,,,,,,,,,,,,,,,,,,,,,,,,,,,,,,,,,,,,,,,,,,,,,,,,,,,1.94,410.8807414,None,None,1,410.8807414,None,,P050,FENCOG,1,Post,2022_Jun_16_1204,N-Back (New Version 2021),2021.1.4,119.9758609
,,,,Conditions/Version_1/oneback(1)_v1.xlsx,New rule: Press 'space' when you see 1-back (i.e. the same letter as the one that appeared 1 letter ago.),g,None,,,,,,,,,0,1,1,1,0,5,5,5,,,,,,,,,,,,,,,,,,,,,,,,,,,,,,,,,,,,,,,,,,,,,,,,,,,,,,,,,,,,,,,,,,,,,1.5866,414.4719982,None,None,1,414.4719982,None,,P050,FENCOG,1,Post,2022_Jun_16_1204,N-Back (New Version 2021),2021.1.4,119.9758609
,,,,Conditions/Version_1/oneback(1)_v1.xlsx,New rule: Press 'space' when you see 1-back (i.e. the same letter as the one that appeared 1 letter ago.),P,None,,,,,,,,,0,1,1,1,0,6,6,6,,,,,,,,,,,,,,,,,,,,,,,,,,,,,,,,,,,,,,,,,,,,,,,,,,,,,,,,,,,,,,,,,,,,,1.5804,418.0624376,None,None,1,418.0624376,None,,P050,FENCOG,1,Post,2022_Jun_16_1204,N-Back (New Version 2021),2021.1.4,119.9758609
,,,,Conditions/Version_1/oneback(1)_v1.xlsx,New rule: Press 'space' when you see 1-back (i.e. the same letter as the one that appeared 1 letter ago.),o,None,,,,,,,,,0,1,1,1,0,7,7,7,,,,,,,,,,,,,,,,,,,,,,,,,,,,,,,,,,,,,,,,,,,,,,,,,,,,,,,,,,,,,,,,,,,,,1.8408,421.9104587,None,None,1,421.9104587,None,,P050,FENCOG,1,Post,2022_Jun_16_1204,N-Back (New Version 2021),2021.1.4,119.9758609
,,,,Conditions/Version_1/oneback(1)_v1.xlsx,New rule: Press 'space' when you see 1-back (i.e. the same letter as the one that appeared 1 letter ago.),f,None,,,,,,,,,0,1,1,1,0,8,8,8,,,,,,,,,,,,,,,,,,,,,,,,,,,,,,,,,,,,,,,,,,,,,,,,,,,,,,,,,,,,,,,,,,,,,1.1092,425.0197107,None,None,1,425.0197107,None,,P050,FENCOG,1,Post,2022_Jun_16_1204,N-Back (New Version 2021),2021.1.4,119.9758609
,,,,Conditions/Version_1/oneback(1)_v1.xlsx,New rule: Press 'space' when you see 1-back (i.e. the same letter as the one that appeared 1 letter ago.),F,space,,,,,,,,,0,1,1,1,0,9,9,9,,,,,,,,,,,,,,,,,,,,,,,,,,,,,,,,,,,,,,,,,,,,,,,,,,,,,,,,,,,,,,,,,,,,,1.0968,428.1268305,None,space,1,428.1268305,None,1.4458936,P050,FENCOG,1,Post,2022_Jun_16_1204,N-Back (New Version 2021),2021.1.4,119.9758609
,,,,Conditions/Version_1/oneback(1)_v1.xlsx,New rule: Press 'space' when you see 1-back (i.e. the same letter as the one that appeared 1 letter ago.),,,,,,,,,,,0,1,1,1,,,,,,,,,,,,,,,,,,,,,,,,,,,,,,,,,,,,,,,,,,,,,,,,,,,,,,,,,,,,,,,,,,,,,,,,,,,,,,,,,P050,FENCOG,1,Post,2022_Jun_16_1204,N-Back (New Version 2021),2021.1.4,119.9758609
,,,,Conditions/Version_1/twoback(1)_v1.xlsx,New rule: Press 'space' when you see 2-back (i.e. the same letter as the one that appeared 2 letters ago.),b,None,,,,,,,,,0,2,2,2,0,0,0,0,,,,,,,,,,,,,,,,,,,,,,,,,,,,,,,,,,,,,,,,,,,,,,,,,,,,,,,,,,,430.1576075,None,433.1428185,None,space,6.189582,433.1428185,None,430.1576075,None,1.9276,441.2964103,None,None,1,441.2964103,None,,P050,FENCOG,1,Post,2022_Jun_16_1204,N-Back (New Version 2021),2021.1.4,119.9758609
,,,,Conditions/Version_1/twoback(1)_v1.xlsx,New rule: Press 'space' when you see 2-back (i.e. the same letter as the one that appeared 2 letters ago.),h,None,,,,,,,,,0,2,2,2,0,1,1,1,,,,,,,,,,,,,,,,,,,,,,,,,,,,,,,,,,,,,,,,,,,,,,,,,,,,,,,,,,,,,,,,,,,,,1.9214,445.2229118,None,None,1,445.2229118,None,,P050,FENCOG,1,Post,2022_Jun_16_1204,N-Back (New Version 2021),2021.1.4,119.9758609
,,,,Conditions/Version_1/twoback(1)_v1.xlsx,New rule: Press 'space' when you see 2-back (i.e. the same letter as the one that appeared 2 letters ago.),j,None,,,,,,,,,0,2,2,2,0,2,2,2,,,,,,,,,,,,,,,,,,,,,,,,,,,,,,,,,,,,,,,,,,,,,,,,,,,,,,,,,,,,,,,,,,,,,1.9524,449.1895274,None,None,1,449.1895274,None,,P050,FENCOG,1,Post,2022_Jun_16_1204,N-Back (New Version 2021),2021.1.4,119.9758609
,,,,Conditions/Version_1/twoback(1)_v1.xlsx,New rule: Press 'space' when you see 2-back (i.e. the same letter as the one that appeared 2 letters ago.),H,space,,,,,,,,,0,2,2,2,0,3,3,3,,,,,,,,,,,,,,,,,,,,,,,,,,,,,,,,,,,,,,,,,,,,,,,,,,,,,,,,,,,,,,,,,,,,,1.0162,452.2095649,None,space,1,452.2095649,None,0.6427666,P050,FENCOG,1,Post,2022_Jun_16_1204,N-Back (New Version 2021),2021.1.4,119.9758609
,,,,Conditions/Version_1/twoback(1)_v1.xlsx,New rule: Press 'space' when you see 2-back (i.e. the same letter as the one that appeared 2 letters ago.),p,None,,,,,,,,,0,2,2,2,0,4,4,4,,,,,,,,,,,,,,,,,,,,,,,,,,,,,,,,,,,,,,,,,,,,,,,,,,,,,,,,,,,,,,,,,,,,,1.6176,455.83372,None,None,1,455.83372,None,,P050,FENCOG,1,Post,2022_Jun_16_1204,N-Back (New Version 2021),2021.1.4,119.9758609
,,,,Conditions/Version_1/twoback(1)_v1.xlsx,New rule: Press 'space' when you see 2-back (i.e. the same letter as the one that appeared 2 letters ago.),p,None,,,,,,,,,0,2,2,2,0,5,5,5,,,,,,,,,,,,,,,,,,,,,,,,,,,,,,,,,,,,,,,,,,,,,,,,,,,,,,,,,,,,,,,,,,,,,1.7044,459.5412019,None,None,1,459.5412019,None,,P050,FENCOG,1,Post,2022_Jun_16_1204,N-Back (New Version 2021),2021.1.4,119.9758609
,,,,Conditions/Version_1/twoback(1)_v1.xlsx,New rule: Press 'space' when you see 2-back (i.e. the same letter as the one that appeared 2 letters ago.),w,None,,,,,,,,,0,2,2,2,0,6,6,6,,,,,,,,,,,,,,,,,,,,,,,,,,,,,,,,,,,,,,,,,,,,,,,,,,,,,,,,,,,,,,,,,,,,,1.8284,463.3732515,None,None,1,463.3732515,None,,P050,FENCOG,1,Post,2022_Jun_16_1204,N-Back (New Version 2021),2021.1.4,119.9758609
,,,,Conditions/Version_1/twoback(1)_v1.xlsx,New rule: Press 'space' when you see 2-back (i.e. the same letter as the one that appeared 2 letters ago.),R,None,,,,,,,,,0,2,2,2,0,7,7,7,,,,,,,,,,,,,,,,,,,,,,,,,,,,,,,,,,,,,,,,,,,,,,,,,,,,,,,,,,,,,,,,,,,,,1.878,467.2578694,None,None,1,467.2578694,None,,P050,FENCOG,1,Post,2022_Jun_16_1204,N-Back (New Version 2021),2021.1.4,119.9758609
,,,,Conditions/Version_1/twoback(1)_v1.xlsx,New rule: Press 'space' when you see 2-back (i.e. the same letter as the one that appeared 2 letters ago.),a,None,,,,,,,,,0,2,2,2,0,8,8,8,,,,,,,,,,,,,,,,,,,,,,,,,,,,,,,,,,,,,,,,,,,,,,,,,,,,,,,,,,,,,,,,,,,,,1.692,470.9561885,None,None,1,470.9561885,None,,P050,FENCOG,1,Post,2022_Jun_16_1204,N-Back (New Version 2021),2021.1.4,119.9758609
,,,,Conditions/Version_1/twoback(1)_v1.xlsx,New rule: Press 'space' when you see 2-back (i.e. the same letter as the one that appeared 2 letters ago.),r,space,,,,,,,,,0,2,2,2,0,9,9,9,,,,,,,,,,,,,,,,,,,,,,,,,,,,,,,,,,,,,,,,,,,,,,,,,,,,,,,,,,,,,,,,,,,,,1.7292,474.6957242,None,space,1,474.6957242,None,0.436656,P050,FENCOG,1,Post,2022_Jun_16_1204,N-Back (New Version 2021),2021.1.4,119.9758609
,,,,Conditions/Version_1/twoback(1)_v1.xlsx,New rule: Press 'space' when you see 2-back (i.e. the same letter as the one that appeared 2 letters ago.),,,,,,,,,,,0,2,2,2,,,,,,,,,,,,,,,,,,,,,,,,,,,,,,,,,,,,,,,,,,,,,,,,,,,,,,,,,,,,,,,,,,,,,,,,,,,,,,,,,P050,FENCOG,1,Post,2022_Jun_16_1204,N-Back (New Version 2021),2021.1.4,119.9758609
,,,,Conditions/Version_1/threeback(1)_v1.xlsx,New rule: Press 'space' when you see 3-back (i.e. the same letter as the one that appeared 3 letters ago.),r,None,,,,,,,,,0,3,3,3,0,0,0,0,,,,,,,,,,,,,,,,,,,,,,,,,,,,,,,,,,,,,,,,,,,,,,,,,,,,,,,,,,,476.725367,None,479.7124994,None,space,0.6440111,479.7124994,None,476.725367,None,1.1278,481.5177907,None,None,1,481.5177907,None,,P050,FENCOG,1,Post,2022_Jun_16_1204,N-Back (New Version 2021),2021.1.4,119.9758609
,,,,Conditions/Version_1/threeback(1)_v1.xlsx,New rule: Press 'space' when you see 3-back (i.e. the same letter as the one that appeared 3 letters ago.),o,None,,,,,,,,,0,3,3,3,0,1,1,1,,,,,,,,,,,,,,,,,,,,,,,,,,,,,,,,,,,,,,,,,,,,,,,,,,,,,,,,,,,,,,,,,,,,,1.5122,485.035518,None,None,1,485.035518,None,,P050,FENCOG,1,Post,2022_Jun_16_1204,N-Back (New Version 2021),2021.1.4,119.9758609
,,,,Conditions/Version_1/threeback(1)_v1.xlsx,New rule: Press 'space' when you see 3-back (i.e. the same letter as the one that appeared 3 letters ago.),P,None,,,,,,,,,0,3,3,3,0,2,2,2,,,,,,,,,,,,,,,,,,,,,,,,,,,,,,,,,,,,,,,,,,,,,,,,,,,,,,,,,,,,,,,,,,,,,1.0968,488.1409137,None,None,1,488.1409137,None,,P050,FENCOG,1,Post,2022_Jun_16_1204,N-Back (New Version 2021),2021.1.4,119.9758609
,,,,Conditions/Version_1/threeback(1)_v1.xlsx,New rule: Press 'space' when you see 3-back (i.e. the same letter as the one that appeared 3 letters ago.),R,space,,,,,,,,,0,3,3,3,0,3,3,3,,,,,,,,,,,,,,,,,,,,,,,,,,,,,,,,,,,,,,,,,,,,,,,,,,,,,,,,,,,,,,,,,,,,,1.8718,492.0146753,None,space,1,492.0146753,None,0.3578157,P050,FENCOG,1,Post,2022_Jun_16_1204,N-Back (New Version 2021),2021.1.4,119.9758609
,,,,Conditions/Version_1/threeback(1)_v1.xlsx,New rule: Press 'space' when you see 3-back (i.e. the same letter as the one that appeared 3 letters ago.),p,None,,,,,,,,,0,3,3,3,0,4,4,4,,,,,,,,,,,,,,,,,,,,,,,,,,,,,,,,,,,,,,,,,,,,,,,,,,,,,,,,,,,,,,,,,,,,,1.4874,495.5062444,None,None,1,495.5062444,None,,P050,FENCOG,1,Post,2022_Jun_16_1204,N-Back (New Version 2021),2021.1.4,119.9758609
,,,,Conditions/Version_1/threeback(1)_v1.xlsx,New rule: Press 'space' when you see 3-back (i.e. the same letter as the one that appeared 3 letters ago.),E,None,,,,,,,,,0,3,3,3,0,5,5,5,,,,,,,,,,,,,,,,,,,,,,,,,,,,,,,,,,,,,,,,,,,,,,,,,,,,,,,,,,,,,,,,,,,,,1.2518,498.7710041,None,None,1,498.7710041,None,,P050,FENCOG,1,Post,2022_Jun_16_1204,N-Back (New Version 2021),2021.1.4,119.9758609
,,,,Conditions/Version_1/threeback(1)_v1.xlsx,New rule: Press 'space' when you see 3-back (i.e. the same letter as the one that appeared 3 letters ago.),e,None,,,,,,,,,0,3,3,3,0,6,6,6,,,,,,,,,,,,,,,,,,,,,,,,,,,,,,,,,,,,,,,,,,,,,,,,,,,,,,,,,,,,,,,,,,,,,1.9028,502.6781825,None,space,0,502.6781825,None,0.590175,P050,FENCOG,1,Post,2022_Jun_16_1204,N-Back (New Version 2021),2021.1.4,119.9758609
,,,,Conditions/Version_1/threeback(1)_v1.xlsx,New rule: Press 'space' when you see 3-back (i.e. the same letter as the one that appeared 3 letters ago.),m,None,,,,,,,,,0,3,3,3,0,7,7,7,,,,,,,,,,,,,,,,,,,,,,,,,,,,,,,,,,,,,,,,,,,,,,,,,,,,,,,,,,,,,,,,,,,,,1.3696,506.0545198,None,None,1,506.0545198,None,,P050,FENCOG,1,Post,2022_Jun_16_1204,N-Back (New Version 2021),2021.1.4,119.9758609
,,,,Conditions/Version_1/threeback(1)_v1.xlsx,New rule: Press 'space' when you see 3-back (i.e. the same letter as the one that appeared 3 letters ago.),n,None,,,,,,,,,0,3,3,3,0,8,8,8,,,,,,,,,,,,,,,,,,,,,,,,,,,,,,,,,,,,,,,,,,,,,,,,,,,,,,,,,,,,,,,,,,,,,1.4068,509.4676706,None,None,1,509.4676706,None,,P050,FENCOG,1,Post,2022_Jun_16_1204,N-Back (New Version 2021),2021.1.4,119.9758609
,,,,Conditions/Version_1/threeback(1)_v1.xlsx,New rule: Press 'space' when you see 3-back (i.e. the same letter as the one that appeared 3 letters ago.),e,space,,,,,,,,,0,3,3,3,0,9,9,9,,,,,,,,,,,,,,,,,,,,,,,,,,,,,,,,,,,,,,,,,,,,,,,,,,,,,,,,,,,,,,,,,,,,,1.2704,512.7418719,None,space,1,512.7418719,None,0.8226509,P050,FENCOG,1,Post,2022_Jun_16_1204,N-Back (New Version 2021),2021.1.4,119.9758609
,,,,Conditions/Version_1/threeback(1)_v1.xlsx,New rule: Press 'space' when you see 3-back (i.e. the same letter as the one that appeared 3 letters ago.),,,,,,,,,,,0,3,3,3,,,,,,,,,,,,,,,,,,,,,,,,,,,,,,,,,,,,,,,,,,,,,,,,,,,,,,,,,,,,,,,,,,,,,,,,,,,,,,,,,P050,FENCOG,1,Post,2022_Jun_16_1204,N-Back (New Version 2021),2021.1.4,119.9758609
,,,,Conditions/Version_1/oneback(2)_v1.xlsx,New rule: Press 'space' when you see 1-back (i.e. the same letter as the one that appeared 1 letter ago.),q,None,,,,,,,,,0,4,4,4,0,0,0,0,,,,,,,,,,,,,,,,,,,,,,,,,,,,,,,,,,,,,,,,,,,,,,,,,,,,,,,,,,,514.7672803,None,517.7507372,None,space,0.2216233,517.7507372,None,514.7672803,None,1.5432,519.5496034,None,None,1,519.5496034,None,,P050,FENCOG,1,Post,2022_Jun_16_1204,N-Back (New Version 2021),2021.1.4,119.9758609
,,,,Conditions/Version_1/oneback(2)_v1.xlsx,New rule: Press 'space' when you see 1-back (i.e. the same letter as the one that appeared 1 letter ago.),Q,space,,,,,,,,,0,4,4,4,0,1,1,1,,,,,,,,,,,,,,,,,,,,,,,,,,,,,,,,,,,,,,,,,,,,,,,,,,,,,,,,,,,,,,,,,,,,,1.8346,523.4001674,None,space,1,523.4001674,None,0.5000582,P050,FENCOG,1,Post,2022_Jun_16_1204,N-Back (New Version 2021),2021.1.4,119.9758609
,,,,Conditions/Version_1/oneback(2)_v1.xlsx,New rule: Press 'space' when you see 1-back (i.e. the same letter as the one that appeared 1 letter ago.),P,None,,,,,,,,,0,4,4,4,0,2,2,2,,,,,,,,,,,,,,,,,,,,,,,,,,,,,,,,,,,,,,,,,,,,,,,,,,,,,,,,,,,,,,,,,,,,,1.351,526.7643596,None,None,1,526.7643596,None,,P050,FENCOG,1,Post,2022_Jun_16_1204,N-Back (New Version 2021),2021.1.4,119.9758609
,,,,Conditions/Version_1/oneback(2)_v1.xlsx,New rule: Press 'space' when you see 1-back (i.e. the same letter as the one that appeared 1 letter ago.),o,None,,,,,,,,,0,4,4,4,0,3,3,3,,,,,,,,,,,,,,,,,,,,,,,,,,,,,,,,,,,,,,,,,,,,,,,,,,,,,,,,,,,,,,,,,,,,,1.8842,530.6634803,None,None,1,530.6634803,None,,P050,FENCOG,1,Post,2022_Jun_16_1204,N-Back (New Version 2021),2021.1.4,119.9758609
,,,,Conditions/Version_1/oneback(2)_v1.xlsx,New rule: Press 'space' when you see 1-back (i.e. the same letter as the one that appeared 1 letter ago.),m,None,,,,,,,,,0,4,4,4,0,4,4,4,,,,,,,,,,,,,,,,,,,,,,,,,,,,,,,,,,,,,,,,,,,,,,,,,,,,,,,,,,,,,,,,,,,,,1.2022,533.8783636,None,None,1,533.8783636,None,,P050,FENCOG,1,Post,2022_Jun_16_1204,N-Back (New Version 2021),2021.1.4,119.9758609
,,,,Conditions/Version_1/oneback(2)_v1.xlsx,New rule: Press 'space' when you see 1-back (i.e. the same letter as the one that appeared 1 letter ago.),Z,None,,,,,,,,,0,4,4,4,0,5,5,5,,,,,,,,,,,,,,,,,,,,,,,,,,,,,,,,,,,,,,,,,,,,,,,,,,,,,,,,,,,,,,,,,,,,,1.2394,537.1263405,None,None,1,537.1263405,None,,P050,FENCOG,1,Post,2022_Jun_16_1204,N-Back (New Version 2021),2021.1.4,119.9758609
,,,,Conditions/Version_1/oneback(2)_v1.xlsx,New rule: Press 'space' when you see 1-back (i.e. the same letter as the one that appeared 1 letter ago.),c,None,,,,,,,,,0,4,4,4,0,6,6,6,,,,,,,,,,,,,,,,,,,,,,,,,,,,,,,,,,,,,,,,,,,,,,,,,,,,,,,,,,,,,,,,,,,,,1.8904,541.0168562,None,None,1,541.0168562,None,,P050,FENCOG,1,Post,2022_Jun_16_1204,N-Back (New Version 2021),2021.1.4,119.9758609
,,,,Conditions/Version_1/oneback(2)_v1.xlsx,New rule: Press 'space' when you see 1-back (i.e. the same letter as the one that appeared 1 letter ago.),c,space,,,,,,,,,0,4,4,4,0,7,7,7,,,,,,,,,,,,,,,,,,,,,,,,,,,,,,,,,,,,,,,,,,,,,,,,,,,,,,,,,,,,,,,,,,,,,1.7974,544.8159874,None,space,1,544.8159874,None,0.3565502,P050,FENCOG,1,Post,2022_Jun_16_1204,N-Back (New Version 2021),2021.1.4,119.9758609
,,,,Conditions/Version_1/oneback(2)_v1.xlsx,New rule: Press 'space' when you see 1-back (i.e. the same letter as the one that appeared 1 letter ago.),P,None,,,,,,,,,0,4,4,4,0,8,8,8,,,,,,,,,,,,,,,,,,,,,,,,,,,,,,,,,,,,,,,,,,,,,,,,,,,,,,,,,,,,,,,,,,,,,1.661,548.4824971,None,None,1,548.4824971,None,,P050,FENCOG,1,Post,2022_Jun_16_1204,N-Back (New Version 2021),2021.1.4,119.9758609
,,,,Conditions/Version_1/oneback(2)_v1.xlsx,New rule: Press 'space' when you see 1-back (i.e. the same letter as the one that appeared 1 letter ago.),p,space,,,,,,,,,0,4,4,4,0,9,9,9,,,,,,,,,,,,,,,,,,,,,,,,,,,,,,,,,,,,,,,,,,,,,,,,,,,,,,,,,,,,,,,,,,,,,1.3262,551.8220163,None,space,1,551.8220163,None,0.8383306,P050,FENCOG,1,Post,2022_Jun_16_1204,N-Back (New Version 2021),2021.1.4,119.9758609
,,,,Conditions/Version_1/oneback(2)_v1.xlsx,New rule: Press 'space' when you see 1-back (i.e. the same letter as the one that appeared 1 letter ago.),,,,,,,,,,,0,4,4,4,,,,,,,,,,,,,,,,,,,,,,,,,,,,,,,,,,,,,,,,,,,,,,,,,,,,,,,,,,,,,,,,,,,,,,,,,,,,,,,,,P050,FENCOG,1,Post,2022_Jun_16_1204,N-Back (New Version 2021),2021.1.4,119.9758609
,,,,Conditions/Version_1/zeroback(2)_v1.xlsx,New rule: Press 'space' when you see the letter 'x' or 'X'.,p,None,,,,,,,,,0,5,5,5,0,0,0,0,,,,,,,,,,,,,,,,,,,,,,,,,,,,,,,,,,,,,,,,,,,,,,,,,,,,,,,,,,,553.8433308,None,556.8303663,None,space,1.0140392,556.8303663,None,553.8433308,None,1.9524,559.8365093,None,None,1,559.8365093,None,,P050,FENCOG,1,Post,2022_Jun_16_1204,N-Back (New Version 2021),2021.1.4,119.9758609
,,,,Conditions/Version_1/zeroback(2)_v1.xlsx,New rule: Press 'space' when you see the letter 'x' or 'X'.,L,None,,,,,,,,,0,5,5,5,0,1,1,1,,,,,,,,,,,,,,,,,,,,,,,,,,,,,,,,,,,,,,,,,,,,,,,,,,,,,,,,,,,,,,,,,,,,,1.8532,563.6945339,None,None,1,563.6945339,None,,P050,FENCOG,1,Post,2022_Jun_16_1204,N-Back (New Version 2021),2021.1.4,119.9758609
,,,,Conditions/Version_1/zeroback(2)_v1.xlsx,New rule: Press 'space' when you see the letter 'x' or 'X'.,G,None,,,,,,,,,0,5,5,5,0,2,2,2,,,,,,,,,,,,,,,,,,,,,,,,,,,,,,,,,,,,,,,,,,,,,,,,,,,,,,,,,,,,,,,,,,,,,1.1836,566.8847518,None,None,1,566.8847518,None,,P050,FENCOG,1,Post,2022_Jun_16_1204,N-Back (New Version 2021),2021.1.4,119.9758609
,,,,Conditions/Version_1/zeroback(2)_v1.xlsx,New rule: Press 'space' when you see the letter 'x' or 'X'.,y,None,,,,,,,,,0,5,5,5,0,3,3,3,,,,,,,,,,,,,,,,,,,,,,,,,,,,,,,,,,,,,,,,,,,,,,,,,,,,,,,,,,,,,,,,,,,,,1.382,570.2671423,None,None,1,570.2671423,None,,P050,FENCOG,1,Post,2022_Jun_16_1204,N-Back (New Version 2021),2021.1.4,119.9758609
,,,,Conditions/Version_1/zeroback(2)_v1.xlsx,New rule: Press 'space' when you see the letter 'x' or 'X'.,Y,None,,,,,,,,,0,5,5,5,0,4,4,4,,,,,,,,,,,,,,,,,,,,,,,,,,,,,,,,,,,,,,,,,,,,,,,,,,,,,,,,,,,,,,,,,,,,,1.8222,574.0922103,None,None,1,574.0922103,None,,P050,FENCOG,1,Post,2022_Jun_16_1204,N-Back (New Version 2021),2021.1.4,119.9758609
,,,,Conditions/Version_1/zeroback(2)_v1.xlsx,New rule: Press 'space' when you see the letter 'x' or 'X'.,W,None,,,,,,,,,0,5,5,5,0,5,5,5,,,,,,,,,,,,,,,,,,,,,,,,,,,,,,,,,,,,,,,,,,,,,,,,,,,,,,,,,,,,,,,,,,,,,1.7478,577.8505493,None,None,1,577.8505493,None,,P050,FENCOG,1,Post,2022_Jun_16_1204,N-Back (New Version 2021),2021.1.4,119.9758609
,,,,Conditions/Version_1/zeroback(2)_v1.xlsx,New rule: Press 'space' when you see the letter 'x' or 'X'.,x,space,,,,,,,,,0,5,5,5,0,6,6,6,,,,,,,,,,,,,,,,,,,,,,,,,,,,,,,,,,,,,,,,,,,,,,,,,,,,,,,,,,,,,,,,,,,,,1.6362,581.4965809,None,space,1,581.4965809,None,0.48384,P050,FENCOG,1,Post,2022_Jun_16_1204,N-Back (New Version 2021),2021.1.4,119.9758609
,,,,Conditions/Version_1/zeroback(2)_v1.xlsx,New rule: Press 'space' when you see the letter 'x' or 'X'.,X,space,,,,,,,,,0,5,5,5,0,7,7,7,,,,,,,,,,,,,,,,,,,,,,,,,,,,,,,,,,,,,,,,,,,,,,,,,,,,,,,,,,,,,,,,,,,,,1.2518,584.7553685,None,space,1,584.7553685,None,0.5528961,P050,FENCOG,1,Post,2022_Jun_16_1204,N-Back (New Version 2021),2021.1.4,119.9758609
,,,,Conditions/Version_1/zeroback(2)_v1.xlsx,New rule: Press 'space' when you see the letter 'x' or 'X'.,p,None,,,,,,,,,0,5,5,5,0,8,8,8,,,,,,,,,,,,,,,,,,,,,,,,,,,,,,,,,,,,,,,,,,,,,,,,,,,,,,,,,,,,,,,,,,,,,1.041,587.803996,None,None,1,587.803996,None,,P050,FENCOG,1,Post,2022_Jun_16_1204,N-Back (New Version 2021),2021.1.4,119.9758609
,,,,Conditions/Version_1/zeroback(2)_v1.xlsx,New rule: Press 'space' when you see the letter 'x' or 'X'.,h,None,,,,,,,,,0,5,5,5,0,9,9,9,,,,,,,,,,,,,,,,,,,,,,,,,,,,,,,,,,,,,,,,,,,,,,,,,,,,,,,,,,,,,,,,,,,,,1.4564,591.2687919,None,None,1,591.2687919,None,,P050,FENCOG,1,Post,2022_Jun_16_1204,N-Back (New Version 2021),2021.1.4,119.9758609
,,,,Conditions/Version_1/zeroback(2)_v1.xlsx,New rule: Press 'space' when you see the letter 'x' or 'X'.,,,,,,,,,,,0,5,5,5,,,,,,,,,,,,,,,,,,,,,,,,,,,,,,,,,,,,,,,,,,,,,,,,,,,,,,,,,,,,,,,,,,,,,,,,,,,,,,,,,P050,FENCOG,1,Post,2022_Jun_16_1204,N-Back (New Version 2021),2021.1.4,119.9758609
,,,,Conditions/Version_1/threeback(2)_v1.xlsx,New rule: Press 'space' when you see 3-back (i.e. the same letter as the one that appeared 3 letters ago.),q,None,,,,,,,,,0,6,6,6,0,0,0,0,,,,,,,,,,,,,,,,,,,,,,,,,,,,,,,,,,,,,,,,,,,,,,,,,,,,,,,,,,,593.2948781,None,596.2777534,None,space,0.4623682,596.2777534,None,593.2948781,None,1.2394,598.0167054,None,None,1,598.0167054,None,,P050,FENCOG,1,Post,2022_Jun_16_1204,N-Back (New Version 2021),2021.1.4,119.9758609
,,,,Conditions/Version_1/threeback(2)_v1.xlsx,New rule: Press 'space' when you see 3-back (i.e. the same letter as the one that appeared 3 letters ago.),Y,None,,,,,,,,,0,6,6,6,0,1,1,1,,,,,,,,,,,,,,,,,,,,,,,,,,,,,,,,,,,,,,,,,,,,,,,,,,,,,,,,,,,,,,,,,,,,,1.4006,601.4157361,None,None,1,601.4157361,None,,P050,FENCOG,1,Post,2022_Jun_16_1204,N-Back (New Version 2021),2021.1.4,119.9758609
,,,,Conditions/Version_1/threeback(2)_v1.xlsx,New rule: Press 'space' when you see 3-back (i.e. the same letter as the one that appeared 3 letters ago.),p,None,,,,,,,,,0,6,6,6,0,2,2,2,,,,,,,,,,,,,,,,,,,,,,,,,,,,,,,,,,,,,,,,,,,,,,,,,,,,,,,,,,,,,,,,,,,,,1.8408,605.2561794,None,None,1,605.2561794,None,,P050,FENCOG,1,Post,2022_Jun_16_1204,N-Back (New Version 2021),2021.1.4,119.9758609
,,,,Conditions/Version_1/threeback(2)_v1.xlsx,New rule: Press 'space' when you see 3-back (i.e. the same letter as the one that appeared 3 letters ago.),p,None,,,,,,,,,0,6,6,6,0,3,3,3,,,,,,,,,,,,,,,,,,,,,,,,,,,,,,,,,,,,,,,,,,,,,,,,,,,,,,,,,,,,,,,,,,,,,1.444,608.7053807,None,None,1,608.7053807,None,,P050,FENCOG,1,Post,2022_Jun_16_1204,N-Back (New Version 2021),2021.1.4,119.9758609
,,,,Conditions/Version_1/threeback(2)_v1.xlsx,New rule: Press 'space' when you see 3-back (i.e. the same letter as the one that appeared 3 letters ago.),y,space,,,,,,,,,0,6,6,6,0,4,4,4,,,,,,,,,,,,,,,,,,,,,,,,,,,,,,,,,,,,,,,,,,,,,,,,,,,,,,,,,,,,,,,,,,,,,1.6796,612.3874046,None,space,1,612.3874046,None,0.9209364,P050,FENCOG,1,Post,2022_Jun_16_1204,N-Back (New Version 2021),2021.1.4,119.9758609
,,,,Conditions/Version_1/threeback(2)_v1.xlsx,New rule: Press 'space' when you see 3-back (i.e. the same letter as the one that appeared 3 letters ago.),u,None,,,,,,,,,0,6,6,6,0,5,5,5,,,,,,,,,,,,,,,,,,,,,,,,,,,,,,,,,,,,,,,,,,,,,,,,,,,,,,,,,,,,,,,,,,,,,1.3696,615.7624912,None,space,0,615.7624912,None,1.0018182,P050,FENCOG,1,Post,2022_Jun_16_1204,N-Back (New Version 2021),2021.1.4,119.9758609
,,,,Conditions/Version_1/threeback(2)_v1.xlsx,New rule: Press 'space' when you see 3-back (i.e. the same letter as the one that appeared 3 letters ago.),P,space,,,,,,,,,0,6,6,6,0,6,6,6,,,,,,,,,,,,,,,,,,,,,,,,,,,,,,,,,,,,,,,,,,,,,,,,,,,,,,,,,,,,,,,,,,,,,1.382,619.1542678,None,space,1,619.1542678,None,1.2899599,P050,FENCOG,1,Post,2022_Jun_16_1204,N-Back (New Version 2021),2021.1.4,119.9758609
,,,,Conditions/Version_1/threeback(2)_v1.xlsx,New rule: Press 'space' when you see 3-back (i.e. the same letter as the one that appeared 3 letters ago.),a,None,,,,,,,,,0,6,6,6,0,7,7,7,,,,,,,,,,,,,,,,,,,,,,,,,,,,,,,,,,,,,,,,,,,,,,,,,,,,,,,,,,,,,,,,,,,,,1.3758,622.5427455,None,None,1,622.5427455,None,,P050,FENCOG,1,Post,2022_Jun_16_1204,N-Back (New Version 2021),2021.1.4,119.9758609
,,,,Conditions/Version_1/threeback(2)_v1.xlsx,New rule: Press 'space' when you see 3-back (i.e. the same letter as the one that appeared 3 letters ago.),U,space,,,,,,,,,0,6,6,6,0,8,8,8,,,,,,,,,,,,,,,,,,,,,,,,,,,,,,,,,,,,,,,,,,,,,,,,,,,,,,,,,,,,,,,,,,,,,1.2022,625.7541035,None,space,1,625.7541035,None,0.4181305,P050,FENCOG,1,Post,2022_Jun_16_1204,N-Back (New Version 2021),2021.1.4,119.9758609
,,,,Conditions/Version_1/threeback(2)_v1.xlsx,New rule: Press 'space' when you see 3-back (i.e. the same letter as the one that appeared 3 letters ago.),q,None,,,,,,,,,0,6,6,6,0,9,9,9,,,,,,,,,,,,,,,,,,,,,,,,,,,,,,,,,,,,,,,,,,,,,,,,,,,,,,,,,,,,,,,,,,,,,1.2518,629.0160262,None,None,1,629.0160262,None,,P050,FENCOG,1,Post,2022_Jun_16_1204,N-Back (New Version 2021),2021.1.4,119.9758609
,,,,Conditions/Version_1/threeback(2)_v1.xlsx,New rule: Press 'space' when you see 3-back (i.e. the same letter as the one that appeared 3 letters ago.),,,,,,,,,,,0,6,6,6,,,,,,,,,,,,,,,,,,,,,,,,,,,,,,,,,,,,,,,,,,,,,,,,,,,,,,,,,,,,,,,,,,,,,,,,,,,,,,,,,P050,FENCOG,1,Post,2022_Jun_16_1204,N-Back (New Version 2021),2021.1.4,119.9758609
,,,,Conditions/Version_1/twoback(2)_v1.xlsx,New rule: Press 'space' when you see 2-back (i.e. the same letter as the one that appeared 2 letters ago.),q,None,,,,,,,,,0,7,7,7,0,0,0,0,,,,,,,,,,,,,,,,,,,,,,,,,,,,,,,,,,,,,,,,,,,,,,,,,,,,,,,,,,,631.0415763,None,634.0251517,None,space,0.2990326,634.0251517,None,631.0415763,None,1.537,635.8973034,None,None,1,635.8973034,None,,P050,FENCOG,1,Post,2022_Jun_16_1204,N-Back (New Version 2021),2021.1.4,119.9758609
,,,,Conditions/Version_1/twoback(2)_v1.xlsx,New rule: Press 'space' when you see 2-back (i.e. the same letter as the one that appeared 2 letters ago.),r,None,,,,,,,,,0,7,7,7,0,1,1,1,,,,,,,,,,,,,,,,,,,,,,,,,,,,,,,,,,,,,,,,,,,,,,,,,,,,,,,,,,,,,,,,,,,,,1.8966,639.7960167,None,None,1,639.7960167,None,,P050,FENCOG,1,Post,2022_Jun_16_1204,N-Back (New Version 2021),2021.1.4,119.9758609
,,,,Conditions/Version_1/twoback(2)_v1.xlsx,New rule: Press 'space' when you see 2-back (i.e. the same letter as the one that appeared 2 letters ago.),q,space,,,,,,,,,0,7,7,7,0,2,2,2,,,,,,,,,,,,,,,,,,,,,,,,,,,,,,,,,,,,,,,,,,,,,,,,,,,,,,,,,,,,,,,,,,,,,1.3324,643.1294643,None,space,1,643.1294643,None,0.6589834,P050,FENCOG,1,Post,2022_Jun_16_1204,N-Back (New Version 2021),2021.1.4,119.9758609
,,,,Conditions/Version_1/twoback(2)_v1.xlsx,New rule: Press 'space' when you see 2-back (i.e. the same letter as the one that appeared 2 letters ago.),P,None,,,,,,,,,0,7,7,7,0,3,3,3,,,,,,,,,,,,,,,,,,,,,,,,,,,,,,,,,,,,,,,,,,,,,,,,,,,,,,,,,,,,,,,,,,,,,1.5494,646.6856515,None,None,1,646.6856515,None,,P050,FENCOG,1,Post,2022_Jun_16_1204,N-Back (New Version 2021),2021.1.4,119.9758609
,,,,Conditions/Version_1/twoback(2)_v1.xlsx,New rule: Press 'space' when you see 2-back (i.e. the same letter as the one that appeared 2 letters ago.),p,None,,,,,,,,,0,7,7,7,0,4,4,4,,,,,,,,,,,,,,,,,,,,,,,,,,,,,,,,,,,,,,,,,,,,,,,,,,,,,,,,,,,,,,,,,,,,,1.5184,650.2096388,None,space,0,650.2096388,None,0.5867026,P050,FENCOG,1,Post,2022_Jun_16_1204,N-Back (New Version 2021),2021.1.4,119.9758609
,,,,Conditions/Version_1/twoback(2)_v1.xlsx,New rule: Press 'space' when you see 2-back (i.e. the same letter as the one that appeared 2 letters ago.),H,None,,,,,,,,,0,7,7,7,0,5,5,5,,,,,,,,,,,,,,,,,,,,,,,,,,,,,,,,,,,,,,,,,,,,,,,,,,,,,,,,,,,,,,,,,,,,,1.7788,653.9918005,None,None,1,653.9918005,None,,P050,FENCOG,1,Post,2022_Jun_16_1204,N-Back (New Version 2021),2021.1.4,119.9758609
,,,,Conditions/Version_1/twoback(2)_v1.xlsx,New rule: Press 'space' when you see 2-back (i.e. the same letter as the one that appeared 2 letters ago.),g,None,,,,,,,,,0,7,7,7,0,6,6,6,,,,,,,,,,,,,,,,,,,,,,,,,,,,,,,,,,,,,,,,,,,,,,,,,,,,,,,,,,,,,,,,,,,,,1.4626,657.457479,None,None,1,657.457479,None,,P050,FENCOG,1,Post,2022_Jun_16_1204,N-Back (New Version 2021),2021.1.4,119.9758609
,,,,Conditions/Version_1/twoback(2)_v1.xlsx,New rule: Press 'space' when you see 2-back (i.e. the same letter as the one that appeared 2 letters ago.),j,None,,,,,,,,,0,7,7,7,0,7,7,7,,,,,,,,,,,,,,,,,,,,,,,,,,,,,,,,,,,,,,,,,,,,,,,,,,,,,,,,,,,,,,,,,,,,,1.1154,660.575282,None,None,1,660.575282,None,,P050,FENCOG,1,Post,2022_Jun_16_1204,N-Back (New Version 2021),2021.1.4,119.9758609
,,,,Conditions/Version_1/twoback(2)_v1.xlsx,New rule: Press 'space' when you see 2-back (i.e. the same letter as the one that appeared 2 letters ago.),g,space,,,,,,,,,0,7,7,7,0,8,8,8,,,,,,,,,,,,,,,,,,,,,,,,,,,,,,,,,,,,,,,,,,,,,,,,,,,,,,,,,,,,,,,,,,,,,1.9586,664.5386951,None,space,1,664.5386951,None,0.761589,P050,FENCOG,1,Post,2022_Jun_16_1204,N-Back (New Version 2021),2021.1.4,119.9758609
,,,,Conditions/Version_1/twoback(2)_v1.xlsx,New rule: Press 'space' when you see 2-back (i.e. the same letter as the one that appeared 2 letters ago.),G,None,,,,,,,,,0,7,7,7,0,9,9,9,,,,,,,,,,,,,,,,,,,,,,,,,,,,,,,,,,,,,,,,,,,,,,,,,,,,,,,,,,,,,,,,,,,,,1.63,668.171021,None,None,1,668.171021,None,,P050,FENCOG,1,Post,2022_Jun_16_1204,N-Back (New Version 2021),2021.1.4,119.9758609
,,,,Conditions/Version_1/twoback(2)_v1.xlsx,New rule: Press 'space' when you see 2-back (i.e. the same letter as the one that appeared 2 letters ago.),,,,,,,,,,,0,7,7,7,,,,,,,,,,,,,,,,,,,,,,,,,,,,,,,,,,,,,,,,,,,,,,,,,,,,,,,,,,,,,,,,,,,,,,,,,,,,,,,,,P050,FENCOG,1,Post,2022_Jun_16_1204,N-Back (New Version 2021),2021.1.4,119.9758609
,,,,Conditions/Version_1/threeback(3)_v1.xlsx,New rule: Press 'space' when you see 3-back (i.e. the same letter as the one that appeared 3 letters ago.),w,None,,,,,,,,,0,8,8,8,0,0,0,0,,,,,,,,,,,,,,,,,,,,,,,,,,,,,,,,,,,,,,,,,,,,,,,,,,,,,,,,,,,670.1966171,None,673.1713011,None,space,16.2167559,673.1713011,None,670.1966171,None,1.5742,690.9973721,None,None,1,690.9973721,None,,P050,FENCOG,1,Post,2022_Jun_16_1204,N-Back (New Version 2021),2021.1.4,119.9758609
,,,,Conditions/Version_1/threeback(3)_v1.xlsx,New rule: Press 'space' when you see 3-back (i.e. the same letter as the one that appeared 3 letters ago.),p,None,,,,,,,,,0,8,8,8,0,1,1,1,,,,,,,,,,,,,,,,,,,,,,,,,,,,,,,,,,,,,,,,,,,,,,,,,,,,,,,,,,,,,,,,,,,,,1.9524,694.9567751,None,None,1,694.9567751,None,,P050,FENCOG,1,Post,2022_Jun_16_1204,N-Back (New Version 2021),2021.1.4,119.9758609
,,,,Conditions/Version_1/threeback(3)_v1.xlsx,New rule: Press 'space' when you see 3-back (i.e. the same letter as the one that appeared 3 letters ago.),P,None,,,,,,,,,0,8,8,8,0,2,2,2,,,,,,,,,,,,,,,,,,,,,,,,,,,,,,,,,,,,,,,,,,,,,,,,,,,,,,,,,,,,,,,,,,,,,1.8656,698.8297271,None,None,1,698.8297271,None,,P050,FENCOG,1,Post,2022_Jun_16_1204,N-Back (New Version 2021),2021.1.4,119.9758609
,,,,Conditions/Version_1/threeback(3)_v1.xlsx,New rule: Press 'space' when you see 3-back (i.e. the same letter as the one that appeared 3 letters ago.),i,None,,,,,,,,,0,8,8,8,0,3,3,3,,,,,,,,,,,,,,,,,,,,,,,,,,,,,,,,,,,,,,,,,,,,,,,,,,,,,,,,,,,,,,,,,,,,,1.6238,702.4625552,None,None,1,702.4625552,None,,P050,FENCOG,1,Post,2022_Jun_16_1204,N-Back (New Version 2021),2021.1.4,119.9758609
,,,,Conditions/Version_1/threeback(3)_v1.xlsx,New rule: Press 'space' when you see 3-back (i.e. the same letter as the one that appeared 3 letters ago.),f,None,,,,,,,,,0,8,8,8,0,4,4,4,,,,,,,,,,,,,,,,,,,,,,,,,,,,,,,,,,,,,,,,,,,,,,,,,,,,,,,,,,,,,,,,,,,,,1.0782,705.5529396,None,None,1,705.5529396,None,,P050,FENCOG,1,Post,2022_Jun_16_1204,N-Back (New Version 2021),2021.1.4,119.9758609
,,,,Conditions/Version_1/threeback(3)_v1.xlsx,New rule: Press 'space' when you see 3-back (i.e. the same letter as the one that appeared 3 letters ago.),o,None,,,,,,,,,0,8,8,8,0,5,5,5,,,,,,,,,,,,,,,,,,,,,,,,,,,,,,,,,,,,,,,,,,,,,,,,,,,,,,,,,,,,,,,,,,,,,1.7292,709.2921598,None,None,1,709.2921598,None,,P050,FENCOG,1,Post,2022_Jun_16_1204,N-Back (New Version 2021),2021.1.4,119.9758609
,,,,Conditions/Version_1/threeback(3)_v1.xlsx,New rule: Press 'space' when you see 3-back (i.e. the same letter as the one that appeared 3 letters ago.),w,None,,,,,,,,,0,8,8,8,0,6,6,6,,,,,,,,,,,,,,,,,,,,,,,,,,,,,,,,,,,,,,,,,,,,,,,,,,,,,,,,,,,,,,,,,,,,,1.2208,712.5172636,None,None,1,712.5172636,None,,P050,FENCOG,1,Post,2022_Jun_16_1204,N-Back (New Version 2021),2021.1.4,119.9758609
,,,,Conditions/Version_1/threeback(3)_v1.xlsx,New rule: Press 'space' when you see 3-back (i.e. the same letter as the one that appeared 3 letters ago.),F,space,,,,,,,,,0,8,8,8,0,7,7,7,,,,,,,,,,,,,,,,,,,,,,,,,,,,,,,,,,,,,,,,,,,,,,,,,,,,,,,,,,,,,,,,,,,,,1.2766,715.8069244,None,space,1,715.8069244,None,0.4612214,P050,FENCOG,1,Post,2022_Jun_16_1204,N-Back (New Version 2021),2021.1.4,119.9758609
,,,,Conditions/Version_1/threeback(3)_v1.xlsx,New rule: Press 'space' when you see 3-back (i.e. the same letter as the one that appeared 3 letters ago.),p,None,,,,,,,,,0,8,8,8,0,8,8,8,,,,,,,,,,,,,,,,,,,,,,,,,,,,,,,,,,,,,,,,,,,,,,,,,,,,,,,,,,,,,,,,,,,,,1.227,719.0403195,None,None,1,719.0403195,None,,P050,FENCOG,1,Post,2022_Jun_16_1204,N-Back (New Version 2021),2021.1.4,119.9758609
,,,,Conditions/Version_1/threeback(3)_v1.xlsx,New rule: Press 'space' when you see 3-back (i.e. the same letter as the one that appeared 3 letters ago.),W,space,,,,,,,,,0,8,8,8,0,9,9,9,,,,,,,,,,,,,,,,,,,,,,,,,,,,,,,,,,,,,,,,,,,,,,,,,,,,,,,,,,,,,,,,,,,,,1.8036,722.8549011,None,space,1,722.8549011,None,0.3333092,P050,FENCOG,1,Post,2022_Jun_16_1204,N-Back (New Version 2021),2021.1.4,119.9758609
,,,,Conditions/Version_1/threeback(3)_v1.xlsx,New rule: Press 'space' when you see 3-back (i.e. the same letter as the one that appeared 3 letters ago.),,,,,,,,,,,0,8,8,8,,,,,,,,,,,,,,,,,,,,,,,,,,,,,,,,,,,,,,,,,,,,,,,,,,,,,,,,,,,,,,,,,,,,,,,,,,,,,,,,,P050,FENCOG,1,Post,2022_Jun_16_1204,N-Back (New Version 2021),2021.1.4,119.9758609
,,,,Conditions/Version_1/zeroback(3)_v1.xlsx,New rule: Press 'space' when you see the letter 'x' or 'X'.,X,space,,,,,,,,,0,9,9,9,0,0,0,0,,,,,,,,,,,,,,,,,,,,,,,,,,,,,,,,,,,,,,,,,,,,,,,,,,,,,,,,,,,724.877112,None,727.8631071,None,space,0.2769589,727.8631071,None,724.877112,None,1.1774,729.3528967,None,space,1,729.3528967,None,0.5232992,P050,FENCOG,1,Post,2022_Jun_16_1204,N-Back (New Version 2021),2021.1.4,119.9758609
,,,,Conditions/Version_1/zeroback(3)_v1.xlsx,New rule: Press 'space' when you see the letter 'x' or 'X'.,B,None,,,,,,,,,0,9,9,9,0,1,1,1,,,,,,,,,,,,,,,,,,,,,,,,,,,,,,,,,,,,,,,,,,,,,,,,,,,,,,,,,,,,,,,,,,,,,1.2766,732.6373174,None,None,1,732.6373174,None,,P050,FENCOG,1,Post,2022_Jun_16_1204,N-Back (New Version 2021),2021.1.4,119.9758609
,,,,Conditions/Version_1/zeroback(3)_v1.xlsx,New rule: Press 'space' when you see the letter 'x' or 'X'.,m,None,,,,,,,,,0,9,9,9,0,2,2,2,,,,,,,,,,,,,,,,,,,,,,,,,,,,,,,,,,,,,,,,,,,,,,,,,,,,,,,,,,,,,,,,,,,,,1.072,735.7177312,None,None,1,735.7177312,None,,P050,FENCOG,1,Post,2022_Jun_16_1204,N-Back (New Version 2021),2021.1.4,119.9758609
,,,,Conditions/Version_1/zeroback(3)_v1.xlsx,New rule: Press 'space' when you see the letter 'x' or 'X'.,m,None,,,,,,,,,0,9,9,9,0,3,3,3,,,,,,,,,,,,,,,,,,,,,,,,,,,,,,,,,,,,,,,,,,,,,,,,,,,,,,,,,,,,,,,,,,,,,1.4316,739.1502243,None,None,1,739.1502243,None,,P050,FENCOG,1,Post,2022_Jun_16_1204,N-Back (New Version 2021),2021.1.4,119.9758609
,,,,Conditions/Version_1/zeroback(3)_v1.xlsx,New rule: Press 'space' when you see the letter 'x' or 'X'.,o,None,,,,,,,,,0,9,9,9,0,4,4,4,,,,,,,,,,,,,,,,,,,,,,,,,,,,,,,,,,,,,,,,,,,,,,,,,,,,,,,,,,,,,,,,,,,,,1.816,742.965582,None,None,1,742.965582,None,,P050,FENCOG,1,Post,2022_Jun_16_1204,N-Back (New Version 2021),2021.1.4,119.9758609
,,,,Conditions/Version_1/zeroback(3)_v1.xlsx,New rule: Press 'space' when you see the letter 'x' or 'X'.,p,None,,,,,,,,,0,9,9,9,0,5,5,5,,,,,,,,,,,,,,,,,,,,,,,,,,,,,,,,,,,,,,,,,,,,,,,,,,,,,,,,,,,,,,,,,,,,,1.258,746.224319,None,None,1,746.224319,None,,P050,FENCOG,1,Post,2022_Jun_16_1204,N-Back (New Version 2021),2021.1.4,119.9758609
,,,,Conditions/Version_1/zeroback(3)_v1.xlsx,New rule: Press 'space' when you see the letter 'x' or 'X'.,G,None,,,,,,,,,0,9,9,9,0,6,6,6,,,,,,,,,,,,,,,,,,,,,,,,,,,,,,,,,,,,,,,,,,,,,,,,,,,,,,,,,,,,,,,,,,,,,1.5618,749.7968769,None,None,1,749.7968769,None,,P050,FENCOG,1,Post,2022_Jun_16_1204,N-Back (New Version 2021),2021.1.4,119.9758609
,,,,Conditions/Version_1/zeroback(3)_v1.xlsx,New rule: Press 'space' when you see the letter 'x' or 'X'.,X,space,,,,,,,,,0,9,9,9,0,7,7,7,,,,,,,,,,,,,,,,,,,,,,,,,,,,,,,,,,,,,,,,,,,,,,,,,,,,,,,,,,,,,,,,,,,,,1.382,753.1801533,None,space,1,753.1801533,None,0.4401153,P050,FENCOG,1,Post,2022_Jun_16_1204,N-Back (New Version 2021),2021.1.4,119.9758609
,,,,Conditions/Version_1/zeroback(3)_v1.xlsx,New rule: Press 'space' when you see the letter 'x' or 'X'.,p,None,,,,,,,,,0,9,9,9,0,8,8,8,,,,,,,,,,,,,,,,,,,,,,,,,,,,,,,,,,,,,,,,,,,,,,,,,,,,,,,,,,,,,,,,,,,,,1.1278,756.3198969,None,None,1,756.3198969,None,,P050,FENCOG,1,Post,2022_Jun_16_1204,N-Back (New Version 2021),2021.1.4,119.9758609
,,,,Conditions/Version_1/zeroback(3)_v1.xlsx,New rule: Press 'space' when you see the letter 'x' or 'X'.,x,space,,,,,,,,,0,9,9,9,0,9,9,9,,,,,,,,,,,,,,,,,,,,,,,,,,,,,,,,,,,,,,,,,,,,,,,,,,,,,,,,,,,,,,,,,,,,,1.5432,759.8694764,None,space,1,759.8694764,None,0.5666525,P050,FENCOG,1,Post,2022_Jun_16_1204,N-Back (New Version 2021),2021.1.4,119.9758609
,,,,Conditions/Version_1/zeroback(3)_v1.xlsx,New rule: Press 'space' when you see the letter 'x' or 'X'.,,,,,,,,,,,0,9,9,9,,,,,,,,,,,,,,,,,,,,,,,,,,,,,,,,,,,,,,,,,,,,,,,,,,,,,,,,,,,,,,,,,,,,,,,,,,,,,,,,,P050,FENCOG,1,Post,2022_Jun_16_1204,N-Back (New Version 2021),2021.1.4,119.9758609
,,,,Conditions/Version_1/twoback(3)_v1.xlsx,New rule: Press 'space' when you see 2-back (i.e. the same letter as the one that appeared 2 letters ago.),e,None,,,,,,,,,0,10,10,10,0,0,0,0,,,,,,,,,,,,,,,,,,,,,,,,,,,,,,,,,,,,,,,,,,,,,,,,,,,,,,,,,,,761.900305,None,764.8857021,None,space,18.4224433,764.8857021,None,761.900305,None,1.3138,784.6551594,None,None,1,784.6551594,None,,P050,FENCOG,1,Post,2022_Jun_16_1204,N-Back (New Version 2021),2021.1.4,119.9758609
,,,,Conditions/Version_1/twoback(3)_v1.xlsx,New rule: Press 'space' when you see 2-back (i.e. the same letter as the one that appeared 2 letters ago.),o,None,,,,,,,,,0,10,10,10,0,1,1,1,,,,,,,,,,,,,,,,,,,,,,,,,,,,,,,,,,,,,,,,,,,,,,,,,,,,,,,,,,,,,,,,,,,,,1.909,788.5779614,None,None,1,788.5779614,None,,P050,FENCOG,1,Post,2022_Jun_16_1204,N-Back (New Version 2021),2021.1.4,119.9758609
,,,,Conditions/Version_1/twoback(3)_v1.xlsx,New rule: Press 'space' when you see 2-back (i.e. the same letter as the one that appeared 2 letters ago.),P,None,,,,,,,,,0,10,10,10,0,2,2,2,,,,,,,,,,,,,,,,,,,,,,,,,,,,,,,,,,,,,,,,,,,,,,,,,,,,,,,,,,,,,,,,,,,,,1.8222,792.4092264,None,None,1,792.4092264,None,,P050,FENCOG,1,Post,2022_Jun_16_1204,N-Back (New Version 2021),2021.1.4,119.9758609
,,,,Conditions/Version_1/twoback(3)_v1.xlsx,New rule: Press 'space' when you see 2-back (i.e. the same letter as the one that appeared 2 letters ago.),z,None,,,,,,,,,0,10,10,10,0,3,3,3,,,,,,,,,,,,,,,,,,,,,,,,,,,,,,,,,,,,,,,,,,,,,,,,,,,,,,,,,,,,,,,,,,,,,1.7416,796.1532772,None,None,1,796.1532772,None,,P050,FENCOG,1,Post,2022_Jun_16_1204,N-Back (New Version 2021),2021.1.4,119.9758609
,,,,Conditions/Version_1/twoback(3)_v1.xlsx,New rule: Press 'space' when you see 2-back (i.e. the same letter as the one that appeared 2 letters ago.),X,None,,,,,,,,,0,10,10,10,0,4,4,4,,,,,,,,,,,,,,,,,,,,,,,,,,,,,,,,,,,,,,,,,,,,,,,,,,,,,,,,,,,,,,,,,,,,,1.537,799.6988013,None,None,1,799.6988013,None,,P050,FENCOG,1,Post,2022_Jun_16_1204,N-Back (New Version 2021),2021.1.4,119.9758609
,,,,Conditions/Version_1/twoback(3)_v1.xlsx,New rule: Press 'space' when you see 2-back (i.e. the same letter as the one that appeared 2 letters ago.),z,space,,,,,,,,,0,10,10,10,0,5,5,5,,,,,,,,,,,,,,,,,,,,,,,,,,,,,,,,,,,,,,,,,,,,,,,,,,,,,,,,,,,,,,,,,,,,,1.7664,803.4644268,None,space,1,803.4644268,None,1.1956123,P050,FENCOG,1,Post,2022_Jun_16_1204,N-Back (New Version 2021),2021.1.4,119.9758609
,,,,Conditions/Version_1/twoback(3)_v1.xlsx,New rule: Press 'space' when you see 2-back (i.e. the same letter as the one that appeared 2 letters ago.),x,space,,,,,,,,,0,10,10,10,0,6,6,6,,,,,,,,,,,,,,,,,,,,,,,,,,,,,,,,,,,,,,,,,,,,,,,,,,,,,,,,,,,,,,,,,,,,,1.4812,806.9493628,None,space,1,806.9493628,None,0.8385383,P050,FENCOG,1,Post,2022_Jun_16_1204,N-Back (New Version 2021),2021.1.4,119.9758609
,,,,Conditions/Version_1/twoback(3)_v1.xlsx,New rule: Press 'space' when you see 2-back (i.e. the same letter as the one that appeared 2 letters ago.),c,None,,,,,,,,,0,10,10,10,0,7,7,7,,,,,,,,,,,,,,,,,,,,,,,,,,,,,,,,,,,,,,,,,,,,,,,,,,,,,,,,,,,,,,,,,,,,,1.8656,810.8225073,None,None,1,810.8225073,None,,P050,FENCOG,1,Post,2022_Jun_16_1204,N-Back (New Version 2021),2021.1.4,119.9758609
,,,,Conditions/Version_1/twoback(3)_v1.xlsx,New rule: Press 'space' when you see 2-back (i.e. the same letter as the one that appeared 2 letters ago.),i,None,,,,,,,,,0,10,10,10,0,8,8,8,,,,,,,,,,,,,,,,,,,,,,,,,,,,,,,,,,,,,,,,,,,,,,,,,,,,,,,,,,,,,,,,,,,,,1.599,814.4287899,None,None,1,814.4287899,None,,P050,FENCOG,1,Post,2022_Jun_16_1204,N-Back (New Version 2021),2021.1.4,119.9758609
,,,,Conditions/Version_1/twoback(3)_v1.xlsx,New rule: Press 'space' when you see 2-back (i.e. the same letter as the one that appeared 2 letters ago.),C,space,,,,,,,,,0,10,10,10,0,9,9,9,,,,,,,,,,,,,,,,,,,,,,,,,,,,,,,,,,,,,,,,,,,,,,,,,,,,,,,,,,,,,,,,,,,,,1.1712,817.6101788,None,space,1,817.6101788,None,1.2659442,P050,FENCOG,1,Post,2022_Jun_16_1204,N-Back (New Version 2021),2021.1.4,119.9758609
,,,,Conditions/Version_1/twoback(3)_v1.xlsx,New rule: Press 'space' when you see 2-back (i.e. the same letter as the one that appeared 2 letters ago.),,,,,,,,,,,0,10,10,10,,,,,,,,,,,,,,,,,,,,,,,,,,,,,,,,,,,,,,,,,,,,,,,,,,,,,,,,,,,,,,,,,,,,,,,,,,,,,,,,,P050,FENCOG,1,Post,2022_Jun_16_1204,N-Back (New Version 2021),2021.1.4,119.9758609
,,,,Conditions/Version_1/oneback(3)_v1.xlsx,New rule: Press 'space' when you see 1-back (i.e. the same letter as the one that appeared 1 letter ago.),o,None,,,,,,,,,0,11,11,11,0,0,0,0,,,,,,,,,,,,,,,,,,,,,,,,,,,,,,,,,,,,,,,,,,,,,,,,,,,,,,,,,,,819.6352341,None,822.6200526,None,space,0.6479221,822.6200526,None,819.6352341,None,1.3696,824.6674802,None,None,1,824.6674802,None,,P050,FENCOG,1,Post,2022_Jun_16_1204,N-Back (New Version 2021),2021.1.4,119.9758609
,,,,Conditions/Version_1/oneback(3)_v1.xlsx,New rule: Press 'space' when you see 1-back (i.e. the same letter as the one that appeared 1 letter ago.),O,space,,,,,,,,,0,11,11,11,0,1,1,1,,,,,,,,,,,,,,,,,,,,,,,,,,,,,,,,,,,,,,,,,,,,,,,,,,,,,,,,,,,,,,,,,,,,,1.1588,827.8727794,None,space,1,827.8727794,None,0.7314108,P050,FENCOG,1,Post,2022_Jun_16_1204,N-Back (New Version 2021),2021.1.4,119.9758609
,,,,Conditions/Version_1/oneback(3)_v1.xlsx,New rule: Press 'space' when you see 1-back (i.e. the same letter as the one that appeared 1 letter ago.),h,None,,,,,,,,,0,11,11,11,0,2,2,2,,,,,,,,,,,,,,,,,,,,,,,,,,,,,,,,,,,,,,,,,,,,,,,,,,,,,,,,,,,,,,,,,,,,,1.7354,831.58104,None,None,1,831.58104,None,,P050,FENCOG,1,Post,2022_Jun_16_1204,N-Back (New Version 2021),2021.1.4,119.9758609
,,,,Conditions/Version_1/oneback(3)_v1.xlsx,New rule: Press 'space' when you see 1-back (i.e. the same letter as the one that appeared 1 letter ago.),g,None,,,,,,,,,0,11,11,11,0,3,3,3,,,,,,,,,,,,,,,,,,,,,,,,,,,,,,,,,,,,,,,,,,,,,,,,,,,,,,,,,,,,,,,,,,,,,1.5866,835.1715914,None,None,1,835.1715914,None,,P050,FENCOG,1,Post,2022_Jun_16_1204,N-Back (New Version 2021),2021.1.4,119.9758609
,,,,Conditions/Version_1/oneback(3)_v1.xlsx,New rule: Press 'space' when you see 1-back (i.e. the same letter as the one that appeared 1 letter ago.),n,None,,,,,,,,,0,11,11,11,0,4,4,4,,,,,,,,,,,,,,,,,,,,,,,,,,,,,,,,,,,,,,,,,,,,,,,,,,,,,,,,,,,,,,,,,,,,,1.878,839.0559293,None,None,1,839.0559293,None,,P050,FENCOG,1,Post,2022_Jun_16_1204,N-Back (New Version 2021),2021.1.4,119.9758609
,,,,Conditions/Version_1/oneback(3)_v1.xlsx,New rule: Press 'space' when you see 1-back (i.e. the same letter as the one that appeared 1 letter ago.),z,None,,,,,,,,,0,11,11,11,0,5,5,5,,,,,,,,,,,,,,,,,,,,,,,,,,,,,,,,,,,,,,,,,,,,,,,,,,,,,,,,,,,,,,,,,,,,,1.6548,842.7195141,None,None,1,842.7195141,None,,P050,FENCOG,1,Post,2022_Jun_16_1204,N-Back (New Version 2021),2021.1.4,119.9758609
,,,,Conditions/Version_1/oneback(3)_v1.xlsx,New rule: Press 'space' when you see 1-back (i.e. the same letter as the one that appeared 1 letter ago.),X,None,,,,,,,,,0,11,11,11,0,6,6,6,,,,,,,,,,,,,,,,,,,,,,,,,,,,,,,,,,,,,,,,,,,,,,,,,,,,,,,,,,,,,,,,,,,,,1.8222,846.5432379,None,None,1,846.5432379,None,,P050,FENCOG,1,Post,2022_Jun_16_1204,N-Back (New Version 2021),2021.1.4,119.9758609
,,,,Conditions/Version_1/oneback(3)_v1.xlsx,New rule: Press 'space' when you see 1-back (i.e. the same letter as the one that appeared 1 letter ago.),r,None,,,,,,,,,0,11,11,11,0,7,7,7,,,,,,,,,,,,,,,,,,,,,,,,,,,,,,,,,,,,,,,,,,,,,,,,,,,,,,,,,,,,,,,,,,,,,1.0906,849.635148,None,None,1,849.635148,None,,P050,FENCOG,1,Post,2022_Jun_16_1204,N-Back (New Version 2021),2021.1.4,119.9758609
,,,,Conditions/Version_1/oneback(3)_v1.xlsx,New rule: Press 'space' when you see 1-back (i.e. the same letter as the one that appeared 1 letter ago.),r,space,,,,,,,,,0,11,11,11,0,8,8,8,,,,,,,,,,,,,,,,,,,,,,,,,,,,,,,,,,,,,,,,,,,,,,,,,,,,,,,,,,,,,,,,,,,,,1.9958,853.6330119,None,space,1,853.6330119,None,0.8589804,P050,FENCOG,1,Post,2022_Jun_16_1204,N-Back (New Version 2021),2021.1.4,119.9758609
,,,,Conditions/Version_1/oneback(3)_v1.xlsx,New rule: Press 'space' when you see 1-back (i.e. the same letter as the one that appeared 1 letter ago.),P,None,,,,,,,,,0,11,11,11,0,9,9,9,,,,,,,,,,,,,,,,,,,,,,,,,,,,,,,,,,,,,,,,,,,,,,,,,,,,,,,,,,,,,,,,,,,,,1.5432,857.1820158,None,None,1,857.1820158,None,,P050,FENCOG,1,Post,2022_Jun_16_1204,N-Back (New Version 2021),2021.1.4,119.9758609
,,,,Conditions/Version_1/oneback(3)_v1.xlsx,New rule: Press 'space' when you see 1-back (i.e. the same letter as the one that appeared 1 letter ago.),,,,,,,,,,,0,11,11,11,,,,,,,,,,,,,,,,,,,,,,,,,,,,,,,,,,,,,,,,,,,,,,,,,,,,,,,,,,,,,,,,,,,,,,,,,,,,,,,,,P050,FENCOG,1,Post,2022_Jun_16_1204,N-Back (New Version 2021),2021.1.4,119.9758609
,,,,Conditions/Version_1/twoback(4)_v1.xlsx,New rule: Press 'space' when you see 2-back (i.e. the same letter as the one that appeared 2 letters ago.),r,None,,,,,,,,,0,12,12,12,0,0,0,0,,,,,,,,,,,,,,,,,,,,,,,,,,,,,,,,,,,,,,,,,,,,,,,,,,,,,,,,,,,859.2056819,None,862.190965,None,space,18.0051606,862.190965,None,859.2056819,None,1.1278,881.3579218,None,None,1,881.3579218,None,,P050,FENCOG,1,Post,2022_Jun_16_1204,N-Back (New Version 2021),2021.1.4,119.9758609
,,,,Conditions/Version_1/twoback(4)_v1.xlsx,New rule: Press 'space' when you see 2-back (i.e. the same letter as the one that appeared 2 letters ago.),T,None,,,,,,,,,0,12,12,12,0,1,1,1,,,,,,,,,,,,,,,,,,,,,,,,,,,,,,,,,,,,,,,,,,,,,,,,,,,,,,,,,,,,,,,,,,,,,1.9896,885.3491992,None,None,1,885.3491992,None,,P050,FENCOG,1,Post,2022_Jun_16_1204,N-Back (New Version 2021),2021.1.4,119.9758609
,,,,Conditions/Version_1/twoback(4)_v1.xlsx,New rule: Press 'space' when you see 2-back (i.e. the same letter as the one that appeared 2 letters ago.),o,None,,,,,,,,,0,12,12,12,0,2,2,2,,,,,,,,,,,,,,,,,,,,,,,,,,,,,,,,,,,,,,,,,,,,,,,,,,,,,,,,,,,,,,,,,,,,,1.2766,888.6392068,None,None,1,888.6392068,None,,P050,FENCOG,1,Post,2022_Jun_16_1204,N-Back (New Version 2021),2021.1.4,119.9758609
,,,,Conditions/Version_1/twoback(4)_v1.xlsx,New rule: Press 'space' when you see 2-back (i.e. the same letter as the one that appeared 2 letters ago.),p,None,,,,,,,,,0,12,12,12,0,3,3,3,,,,,,,,,,,,,,,,,,,,,,,,,,,,,,,,,,,,,,,,,,,,,,,,,,,,,,,,,,,,,,,,,,,,,1.01,891.6550235,None,None,1,891.6550235,None,,P050,FENCOG,1,Post,2022_Jun_16_1204,N-Back (New Version 2021),2021.1.4,119.9758609
,,,,Conditions/Version_1/twoback(4)_v1.xlsx,New rule: Press 'space' when you see 2-back (i.e. the same letter as the one that appeared 2 letters ago.),p,None,,,,,,,,,0,12,12,12,0,4,4,4,,,,,,,,,,,,,,,,,,,,,,,,,,,,,,,,,,,,,,,,,,,,,,,,,,,,,,,,,,,,,,,,,,,,,1.4254,895.0790704,None,None,1,895.0790704,None,,P050,FENCOG,1,Post,2022_Jun_16_1204,N-Back (New Version 2021),2021.1.4,119.9758609
,,,,Conditions/Version_1/twoback(4)_v1.xlsx,New rule: Press 'space' when you see 2-back (i.e. the same letter as the one that appeared 2 letters ago.),y,None,,,,,,,,,0,12,12,12,0,5,5,5,,,,,,,,,,,,,,,,,,,,,,,,,,,,,,,,,,,,,,,,,,,,,,,,,,,,,,,,,,,,,,,,,,,,,1.0596,898.1445413,None,None,1,898.1445413,None,,P050,FENCOG,1,Post,2022_Jun_16_1204,N-Back (New Version 2021),2021.1.4,119.9758609
,,,,Conditions/Version_1/twoback(4)_v1.xlsx,New rule: Press 'space' when you see 2-back (i.e. the same letter as the one that appeared 2 letters ago.),P,space,,,,,,,,,0,12,12,12,0,6,6,6,,,,,,,,,,,,,,,,,,,,,,,,,,,,,,,,,,,,,,,,,,,,,,,,,,,,,,,,,,,,,,,,,,,,,1.8718,902.0184886,None,space,1,902.0184886,None,0.5935744,P050,FENCOG,1,Post,2022_Jun_16_1204,N-Back (New Version 2021),2021.1.4,119.9758609
,,,,Conditions/Version_1/twoback(4)_v1.xlsx,New rule: Press 'space' when you see 2-back (i.e. the same letter as the one that appeared 2 letters ago.),y,None,,,,,,,,,0,12,12,12,0,7,7,7,,,,,,,,,,,,,,,,,,,,,,,,,,,,,,,,,,,,,,,,,,,,,,,,,,,,,,,,,,,,,,,,,,,,,1.9648,905.9843822,None,space,0,905.9843822,None,0.3716082,P050,FENCOG,1,Post,2022_Jun_16_1204,N-Back (New Version 2021),2021.1.4,119.9758609
,,,,Conditions/Version_1/twoback(4)_v1.xlsx,New rule: Press 'space' when you see 2-back (i.e. the same letter as the one that appeared 2 letters ago.),y,space,,,,,,,,,0,12,12,12,0,8,8,8,,,,,,,,,,,,,,,,,,,,,,,,,,,,,,,,,,,,,,,,,,,,,,,,,,,,,,,,,,,,,,,,,,,,,1.4688,909.4579953,None,None,0,909.4579953,None,,P050,FENCOG,1,Post,2022_Jun_16_1204,N-Back (New Version 2021),2021.1.4,119.9758609
,,,,Conditions/Version_1/twoback(4)_v1.xlsx,New rule: Press 'space' when you see 2-back (i.e. the same letter as the one that appeared 2 letters ago.),,,,,,,,,,,0,12,12,12,,,,,,,,,,,,,,,,,,,,,,,,,,,,,,,,,,,,,,,,,,,,,,,,,,,,,,,,,,,,,,,,,,,,,,,,,,,,,,,,,P050,FENCOG,1,Post,2022_Jun_16_1204,N-Back (New Version 2021),2021.1.4,119.9758609
,,,,Conditions/Version_1/zeroback(4)_v1.xlsx,New rule: Press 'space' when you see the letter 'x' or 'X'.,o,None,,,,,,,,,0,13,13,13,0,0,0,0,,,,,,,,,,,,,,,,,,,,,,,,,,,,,,,,,,,,,,,,,,,,,,,,,,,,,,,,,,,911.4790214,None,914.4673301,None,space,0.3466604,914.4673301,None,911.4790214,None,1.6734,916.5236883,None,None,1,916.5236883,None,,P050,FENCOG,1,Post,2022_Jun_16_1204,N-Back (New Version 2021),2021.1.4,119.9758609
,,,,Conditions/Version_1/zeroback(4)_v1.xlsx,New rule: Press 'space' when you see the letter 'x' or 'X'.,X,space,,,,,,,,,0,13,13,13,0,1,1,1,,,,,,,,,,,,,,,,,,,,,,,,,,,,,,,,,,,,,,,,,,,,,,,,,,,,,,,,,,,,,,,,,,,,,1.3634,919.8976444,None,space,1,919.8976444,None,0.3305463,P050,FENCOG,1,Post,2022_Jun_16_1204,N-Back (New Version 2021),2021.1.4,119.9758609
,,,,Conditions/Version_1/zeroback(4)_v1.xlsx,New rule: Press 'space' when you see the letter 'x' or 'X'.,p,None,,,,,,,,,0,13,13,13,0,2,2,2,,,,,,,,,,,,,,,,,,,,,,,,,,,,,,,,,,,,,,,,,,,,,,,,,,,,,,,,,,,,,,,,,,,,,1.0162,922.9207967,None,None,1,922.9207967,None,,P050,FENCOG,1,Post,2022_Jun_16_1204,N-Back (New Version 2021),2021.1.4,119.9758609
,,,,Conditions/Version_1/zeroback(4)_v1.xlsx,New rule: Press 'space' when you see the letter 'x' or 'X'.,m,None,,,,,,,,,0,13,13,13,0,3,3,3,,,,,,,,,,,,,,,,,,,,,,,,,,,,,,,,,,,,,,,,,,,,,,,,,,,,,,,,,,,,,,,,,,,,,1.4626,926.3870439,None,space,0,926.3870439,None,0.2975382,P050,FENCOG,1,Post,2022_Jun_16_1204,N-Back (New Version 2021),2021.1.4,119.9758609
,,,,Conditions/Version_1/zeroback(4)_v1.xlsx,New rule: Press 'space' when you see the letter 'x' or 'X'.,n,None,,,,,,,,,0,13,13,13,0,4,4,4,,,,,,,,,,,,,,,,,,,,,,,,,,,,,,,,,,,,,,,,,,,,,,,,,,,,,,,,,,,,,,,,,,,,,1.0348,929.4354408,None,None,1,929.4354408,None,,P050,FENCOG,1,Post,2022_Jun_16_1204,N-Back (New Version 2021),2021.1.4,119.9758609
,,,,Conditions/Version_1/zeroback(4)_v1.xlsx,New rule: Press 'space' when you see the letter 'x' or 'X'.,m,None,,,,,,,,,0,13,13,13,0,5,5,5,,,,,,,,,,,,,,,,,,,,,,,,,,,,,,,,,,,,,,,,,,,,,,,,,,,,,,,,,,,,,,,,,,,,,1.63,933.067496,None,None,1,933.067496,None,,P050,FENCOG,1,Post,2022_Jun_16_1204,N-Back (New Version 2021),2021.1.4,119.9758609
,,,,Conditions/Version_1/zeroback(4)_v1.xlsx,New rule: Press 'space' when you see the letter 'x' or 'X'.,C,None,,,,,,,,,0,13,13,13,0,6,6,6,,,,,,,,,,,,,,,,,,,,,,,,,,,,,,,,,,,,,,,,,,,,,,,,,,,,,,,,,,,,,,,,,,,,,1.8904,936.959497,None,None,1,936.959497,None,,P050,FENCOG,1,Post,2022_Jun_16_1204,N-Back (New Version 2021),2021.1.4,119.9758609
,,,,Conditions/Version_1/zeroback(4)_v1.xlsx,New rule: Press 'space' when you see the letter 'x' or 'X'.,m,None,,,,,,,,,0,13,13,13,0,7,7,7,,,,,,,,,,,,,,,,,,,,,,,,,,,,,,,,,,,,,,,,,,,,,,,,,,,,,,,,,,,,,,,,,,,,,1.2642,940.2322493,None,None,1,940.2322493,None,,P050,FENCOG,1,Post,2022_Jun_16_1204,N-Back (New Version 2021),2021.1.4,119.9758609
,,,,Conditions/Version_1/zeroback(4)_v1.xlsx,New rule: Press 'space' when you see the letter 'x' or 'X'.,p,None,,,,,,,,,0,13,13,13,0,8,8,8,,,,,,,,,,,,,,,,,,,,,,,,,,,,,,,,,,,,,,,,,,,,,,,,,,,,,,,,,,,,,,,,,,,,,1.754,943.9904169,None,None,1,943.9904169,None,,P050,FENCOG,1,Post,2022_Jun_16_1204,N-Back (New Version 2021),2021.1.4,119.9758609
,,,,Conditions/Version_1/zeroback(4)_v1.xlsx,New rule: Press 'space' when you see the letter 'x' or 'X'.,X,space,,,,,,,,,0,13,13,13,0,9,9,9,,,,,,,,,,,,,,,,,,,,,,,,,,,,,,,,,,,,,,,,,,,,,,,,,,,,,,,,,,,,,,,,,,,,,1.351,947.3577432,None,space,1,947.3577432,None,0.4783009,P050,FENCOG,1,Post,2022_Jun_16_1204,N-Back (New Version 2021),2021.1.4,119.9758609
,,,,Conditions/Version_1/zeroback(4)_v1.xlsx,New rule: Press 'space' when you see the letter 'x' or 'X'.,,,,,,,,,,,0,13,13,13,,,,,,,,,,,,,,,,,,,,,,,,,,,,,,,,,,,,,,,,,,,,,,,,,,,,,,,,,,,,,,,,,,,,,,,,,,,,,,,,,P050,FENCOG,1,Post,2022_Jun_16_1204,N-Back (New Version 2021),2021.1.4,119.9758609
,,,,Conditions/Version_1/oneback(4)_v1.xlsx,New rule: Press 'space' when you see 1-back (i.e. the same letter as the one that appeared 1 letter ago.),w,None,,,,,,,,,0,14,14,14,0,0,0,0,,,,,,,,,,,,,,,,,,,,,,,,,,,,,,,,,,,,,,,,,,,,,,,,,,,,,,,,,,,949.3865887,None,952.3727399,None,space,3.671109,952.3727399,None,949.3865887,None,1.413,957.4941082,None,None,1,957.4941082,None,,P050,FENCOG,1,Post,2022_Jun_16_1204,N-Back (New Version 2021),2021.1.4,119.9758609
,,,,Conditions/Version_1/oneback(4)_v1.xlsx,New rule: Press 'space' when you see 1-back (i.e. the same letter as the one that appeared 1 letter ago.),q,None,,,,,,,,,0,14,14,14,0,1,1,1,,,,,,,,,,,,,,,,,,,,,,,,,,,,,,,,,,,,,,,,,,,,,,,,,,,,,,,,,,,,,,,,,,,,,1.0968,960.5929235,None,None,1,960.5929235,None,,P050,FENCOG,1,Post,2022_Jun_16_1204,N-Back (New Version 2021),2021.1.4,119.9758609
,,,,Conditions/Version_1/oneback(4)_v1.xlsx,New rule: Press 'space' when you see 1-back (i.e. the same letter as the one that appeared 1 letter ago.),i,None,,,,,,,,,0,14,14,14,0,2,2,2,,,,,,,,,,,,,,,,,,,,,,,,,,,,,,,,,,,,,,,,,,,,,,,,,,,,,,,,,,,,,,,,,,,,,1.8656,964.4592456,None,None,1,964.4592456,None,,P050,FENCOG,1,Post,2022_Jun_16_1204,N-Back (New Version 2021),2021.1.4,119.9758609
,,,,Conditions/Version_1/oneback(4)_v1.xlsx,New rule: Press 'space' when you see 1-back (i.e. the same letter as the one that appeared 1 letter ago.),t,None,,,,,,,,,0,14,14,14,0,3,3,3,,,,,,,,,,,,,,,,,,,,,,,,,,,,,,,,,,,,,,,,,,,,,,,,,,,,,,,,,,,,,,,,,,,,,1.5928,968.0665456,None,None,1,968.0665456,None,,P050,FENCOG,1,Post,2022_Jun_16_1204,N-Back (New Version 2021),2021.1.4,119.9758609
,,,,Conditions/Version_1/oneback(4)_v1.xlsx,New rule: Press 'space' when you see 1-back (i.e. the same letter as the one that appeared 1 letter ago.),v,None,,,,,,,,,0,14,14,14,0,4,4,4,,,,,,,,,,,,,,,,,,,,,,,,,,,,,,,,,,,,,,,,,,,,,,,,,,,,,,,,,,,,,,,,,,,,,1.2394,971.3156009,None,None,1,971.3156009,None,,P050,FENCOG,1,Post,2022_Jun_16_1204,N-Back (New Version 2021),2021.1.4,119.9758609
,,,,Conditions/Version_1/oneback(4)_v1.xlsx,New rule: Press 'space' when you see 1-back (i.e. the same letter as the one that appeared 1 letter ago.),V,space,,,,,,,,,0,14,14,14,0,5,5,5,,,,,,,,,,,,,,,,,,,,,,,,,,,,,,,,,,,,,,,,,,,,,,,,,,,,,,,,,,,,,,,,,,,,,1.5494,974.8757416,None,space,1,974.8757416,None,0.3601866,P050,FENCOG,1,Post,2022_Jun_16_1204,N-Back (New Version 2021),2021.1.4,119.9758609
,,,,Conditions/Version_1/oneback(4)_v1.xlsx,New rule: Press 'space' when you see 1-back (i.e. the same letter as the one that appeared 1 letter ago.),v,space,,,,,,,,,0,14,14,14,0,6,6,6,,,,,,,,,,,,,,,,,,,,,,,,,,,,,,,,,,,,,,,,,,,,,,,,,,,,,,,,,,,,,,,,,,,,,1.4626,978.3460343,None,space,1,978.3460343,None,0.6017256,P050,FENCOG,1,Post,2022_Jun_16_1204,N-Back (New Version 2021),2021.1.4,119.9758609
,,,,Conditions/Version_1/oneback(4)_v1.xlsx,New rule: Press 'space' when you see 1-back (i.e. the same letter as the one that appeared 1 letter ago.),p,None,,,,,,,,,0,14,14,14,0,7,7,7,,,,,,,,,,,,,,,,,,,,,,,,,,,,,,,,,,,,,,,,,,,,,,,,,,,,,,,,,,,,,,,,,,,,,1.971,982.3213293,None,None,1,982.3213293,None,,P050,FENCOG,1,Post,2022_Jun_16_1204,N-Back (New Version 2021),2021.1.4,119.9758609
,,,,Conditions/Version_1/oneback(4)_v1.xlsx,New rule: Press 'space' when you see 1-back (i.e. the same letter as the one that appeared 1 letter ago.),w,None,,,,,,,,,0,14,14,14,0,8,8,8,,,,,,,,,,,,,,,,,,,,,,,,,,,,,,,,,,,,,,,,,,,,,,,,,,,,,,,,,,,,,,,,,,,,,1.9834,986.3114688,None,None,1,986.3114688,None,,P050,FENCOG,1,Post,2022_Jun_16_1204,N-Back (New Version 2021),2021.1.4,119.9758609
,,,,Conditions/Version_1/oneback(4)_v1.xlsx,New rule: Press 'space' when you see 1-back (i.e. the same letter as the one that appeared 1 letter ago.),W,space,,,,,,,,,0,14,14,14,0,9,9,9,,,,,,,,,,,,,,,,,,,,,,,,,,,,,,,,,,,,,,,,,,,,,,,,,,,,,,,,,,,,,,,,,,,,,1.1588,989.4759767,None,space,1,989.4759767,None,0.5839772,P050,FENCOG,1,Post,2022_Jun_16_1204,N-Back (New Version 2021),2021.1.4,119.9758609
,,,,Conditions/Version_1/oneback(4)_v1.xlsx,New rule: Press 'space' when you see 1-back (i.e. the same letter as the one that appeared 1 letter ago.),,,,,,,,,,,0,14,14,14,,,,,,,,,,,,,,,,,,,,,,,,,,,,,,,,,,,,,,,,,,,,,,,,,,,,,,,,,,,,,,,,,,,,,,,,,,,,,,,,,P050,FENCOG,1,Post,2022_Jun_16_1204,N-Back (New Version 2021),2021.1.4,119.9758609
,,,,Conditions/Version_1/threeback(4)_v1.xlsx,New rule: Press 'space' when you see 3-back (i.e. the same letter as the one that appeared 3 letters ago.),A,None,,,,,,,,,0,15,15,15,0,0,0,0,,,,,,,,,,,,,,,,,,,,,,,,,,,,,,,,,,,,,,,,,,,,,,,,,,,,,,,,,,,991.5000095,None,994.4849657,None,space,2.9108622,994.4849657,None,991.5000095,None,1.8718,999.2981075,None,None,1,999.2981075,None,,P050,FENCOG,1,Post,2022_Jun_16_1204,N-Back (New Version 2021),2021.1.4,119.9758609
,,,,Conditions/Version_1/threeback(4)_v1.xlsx,New rule: Press 'space' when you see 3-back (i.e. the same letter as the one that appeared 3 letters ago.),n,None,,,,,,,,,0,15,15,15,0,1,1,1,,,,,,,,,,,,,,,,,,,,,,,,,,,,,,,,,,,,,,,,,,,,,,,,,,,,,,,,,,,,,,,,,,,,,1.6176,1002.923979,None,None,1,1002.923979,None,,P050,FENCOG,1,Post,2022_Jun_16_1204,N-Back (New Version 2021),2021.1.4,119.9758609
,,,,Conditions/Version_1/threeback(4)_v1.xlsx,New rule: Press 'space' when you see 3-back (i.e. the same letter as the one that appeared 3 letters ago.),g,None,,,,,,,,,0,15,15,15,0,2,2,2,,,,,,,,,,,,,,,,,,,,,,,,,,,,,,,,,,,,,,,,,,,,,,,,,,,,,,,,,,,,,,,,,,,,,1.3262,1006.262669,None,None,1,1006.262669,None,,P050,FENCOG,1,Post,2022_Jun_16_1204,N-Back (New Version 2021),2021.1.4,119.9758609
,,,,Conditions/Version_1/threeback(4)_v1.xlsx,New rule: Press 'space' when you see 3-back (i.e. the same letter as the one that appeared 3 letters ago.),A,space,,,,,,,,,0,15,15,15,0,3,3,3,,,,,,,,,,,,,,,,,,,,,,,,,,,,,,,,,,,,,,,,,,,,,,,,,,,,,,,,,,,,,,,,,,,,,1.5742,1009.837842,None,space,1,1009.837842,None,0.4862537,P050,FENCOG,1,Post,2022_Jun_16_1204,N-Back (New Version 2021),2021.1.4,119.9758609
,,,,Conditions/Version_1/threeback(4)_v1.xlsx,New rule: Press 'space' when you see 3-back (i.e. the same letter as the one that appeared 3 letters ago.),p,None,,,,,,,,,0,15,15,15,0,4,4,4,,,,,,,,,,,,,,,,,,,,,,,,,,,,,,,,,,,,,,,,,,,,,,,,,,,,,,,,,,,,,,,,,,,,,1.2518,1013.102398,None,None,1,1013.102398,None,,P050,FENCOG,1,Post,2022_Jun_16_1204,N-Back (New Version 2021),2021.1.4,119.9758609
,,,,Conditions/Version_1/threeback(4)_v1.xlsx,New rule: Press 'space' when you see 3-back (i.e. the same letter as the one that appeared 3 letters ago.),O,None,,,,,,,,,0,15,15,15,0,5,5,5,,,,,,,,,,,,,,,,,,,,,,,,,,,,,,,,,,,,,,,,,,,,,,,,,,,,,,,,,,,,,,,,,,,,,1.7292,1016.834729,None,None,1,1016.834729,None,,P050,FENCOG,1,Post,2022_Jun_16_1204,N-Back (New Version 2021),2021.1.4,119.9758609
,,,,Conditions/Version_1/threeback(4)_v1.xlsx,New rule: Press 'space' when you see 3-back (i.e. the same letter as the one that appeared 3 letters ago.),a,space,,,,,,,,,0,15,15,15,0,6,6,6,,,,,,,,,,,,,,,,,,,,,,,,,,,,,,,,,,,,,,,,,,,,,,,,,,,,,,,,,,,,,,,,,,,,,1.0224,1019.858658,None,space,1,1019.858658,None,0.6970978,P050,FENCOG,1,Post,2022_Jun_16_1204,N-Back (New Version 2021),2021.1.4,119.9758609
,,,,Conditions/Version_1/threeback(4)_v1.xlsx,New rule: Press 'space' when you see 3-back (i.e. the same letter as the one that appeared 3 letters ago.),p,space,,,,,,,,,0,15,15,15,0,7,7,7,,,,,,,,,,,,,,,,,,,,,,,,,,,,,,,,,,,,,,,,,,,,,,,,,,,,,,,,,,,,,,,,,,,,,1.5866,1023.451391,None,space,1,1023.451391,None,0.5126286,P050,FENCOG,1,Post,2022_Jun_16_1204,N-Back (New Version 2021),2021.1.4,119.9758609
,,,,Conditions/Version_1/threeback(4)_v1.xlsx,New rule: Press 'space' when you see 3-back (i.e. the same letter as the one that appeared 3 letters ago.),x,None,,,,,,,,,0,15,15,15,0,8,8,8,,,,,,,,,,,,,,,,,,,,,,,,,,,,,,,,,,,,,,,,,,,,,,,,,,,,,,,,,,,,,,,,,,,,,1.8222,1027.281518,None,None,1,1027.281518,None,,P050,FENCOG,1,Post,2022_Jun_16_1204,N-Back (New Version 2021),2021.1.4,119.9758609
,,,,Conditions/Version_1/threeback(4)_v1.xlsx,New rule: Press 'space' when you see 3-back (i.e. the same letter as the one that appeared 3 letters ago.),X,None,,,,,,,,,0,15,15,15,0,9,9,9,,,,,,,,,,,,,,,,,,,,,,,,,,,,,,,,,,,,,,,,,,,,,,,,,,,,,,,,,,,,,,,,,,,,,1.0596,1030.349311,None,space,0,1030.349311,None,0.7585825,P050,FENCOG,1,Post,2022_Jun_16_1204,N-Back (New Version 2021),2021.1.4,119.9758609
,,,,Conditions/Version_1/threeback(4)_v1.xlsx,New rule: Press 'space' when you see 3-back (i.e. the same letter as the one that appeared 3 letters ago.),,,,,,,,,,,0,15,15,15,,,,,,,,,,,,,,,,,,,,,,,,,,,,,,,,,,,,,,,,,,,,,,,,,,,,,,,,,,,,,,,,,,,,,,,,,,,,,,,,,P050,FENCOG,1,Post,2022_Jun_16_1204,N-Back (New Version 2021),2021.1.4,119.9758609
