CondFileP,InstructionsP,LettersDisplayedP,CorrectnessP,CondFile,Instructions,LettersDisplayed,Correctness,practicetrials.thisRepN,practicetrials.thisTrialN,practicetrials.thisN,practicetrials.thisIndex,InnerLoopPractice.thisRepN,InnerLoopPractice.thisTrialN,InnerLoopPractice.thisN,InnerLoopPractice.thisIndex,trials.thisRepN,trials.thisTrialN,trials.thisN,trials.thisIndex,InnerLoop.thisRepN,InnerLoop.thisTrialN,InnerLoop.thisN,InnerLoop.thisIndex,TaskVersionText.started,TaskVersionText.stopped,InstrKey1.keys,InstrKey1.rt,InstrKey1.started,InstrKey1.stopped,text.started,text.stopped,key_resp_4.keys,key_resp_4.rt,key_resp_4.started,key_resp_4.stopped,text_2.started,text_2.stopped,key_resp_3.keys,key_resp_3.rt,key_resp_3.started,key_resp_3.stopped,text_3.started,text_3.stopped,key_resp_2.keys,key_resp_2.rt,key_resp_2.started,key_resp_2.stopped,PractIn1.started,PractIn1.stopped,PractIn2.started,PractIn2.stopped,PractInstructionPass.keys,PractInstructionPass.rt,PractInstructionPass.started,PractInstructionPass.stopped,PractBlock1.started,PractBlock1.stopped,ISIjitterPractice,ISI_Pract_Fixation.started,ISI_Pract_Fixation.stopped,N_backP.started,N_backP.stopped,KeyPractice.keys,KeyPractice.corr,KeyPractice.rt,KeyPractice.started,KeyPractice.stopped,text_4.started,text_4.stopped,TransitionText.started,TransitionText.stopped,key_resp_6.keys,key_resp_6.rt,key_resp_6.started,key_resp_6.stopped,text_5.started,text_5.stopped,key_resp_5.keys,key_resp_5.rt,key_resp_5.started,key_resp_5.stopped,MainInt1.started,MainInt1.stopped,MainInt2.started,MainInt2.stopped,InstructionPass.keys,InstructionPass.rt,InstructionPass.started,InstructionPass.stopped,Blocks1.started,Blocks1.stopped,ISIjitter,N_backD.started,N_backD.stopped,key_resp.keys,key_resp.corr,key_resp.started,key_resp.stopped,key_resp.rt,participant,Study Name,Task Version (required to run),PRE/POST,date,expName,psychopyVersion,frameRate
,,,,,,,,,,,,,,,,,,,,,,,,66.4287178,None,space,2.3787445,66.9218411,None,,,,,,,,,,,,,,,,,,,,,,,,,,,,,,,,,,,,,,,,,,,,,,,,,,,,,,,,,,,,,,,,,,,,,,,P050,FENCOG,2,Pre,2022_Jun_09_1044,N-Back (New Version 2021),2021.1.4,120.0419667
,,,,,,,,,,,,,,,,,,,,,,,,,,,,,,69.3517975,None,space,25.9823122,69.8463082,None,,,,,,,,,,,,,,,,,,,,,,,,,,,,,,,,,,,,,,,,,,,,,,,,,,,,,,,,,,,,,,,,,P050,FENCOG,2,Pre,2022_Jun_09_1044,N-Back (New Version 2021),2021.1.4,120.0419667
,,,,,,,,,,,,,,,,,,,,,,,,,,,,,,,,,,,,95.8634052,None,space,10.1852254,96.3555606,None,,,,,,,,,,,,,,,,,,,,,,,,,,,,,,,,,,,,,,,,,,,,,,,,,,,,,,,,,,,P050,FENCOG,2,Pre,2022_Jun_09_1044,N-Back (New Version 2021),2021.1.4,120.0419667
,,,,,,,,,,,,,,,,,,,,,,,,,,,,,,,,,,,,,,,,,,106.5693431,None,space,6.7918157,107.060622,None,,,,,,,,,,,,,,,,,,,,,,,,,,,,,,,,,,,,,,,,,,,,,,,,,,,,,P050,FENCOG,2,Pre,2022_Jun_09_1044,N-Back (New Version 2021),2021.1.4,120.0419667
Conditions/Version_2Pr/zeroback(1)_v2.xlsx,Rule: Press 'space' when you see the letter 'x' or 'X'.,x,space,,,,,0,0,0,0,0,0,0,0,,,,,,,,,,,,,,,,,,,,,,,,,,,,,,,,,115.2512719,None,118.225083,None,space,3.4436819,118.225083,None,115.2512719,None,1.59,121.7023087,None,123.3037213,None,space,1,0.4448744,123.3037213,None,123.7694956,None,,,,,,,,,,,,,,,,,,,,,,,,,,,,,,,P050,FENCOG,2,Pre,2022_Jun_09_1044,N-Back (New Version 2021),2021.1.4,120.0419667
Conditions/Version_2Pr/zeroback(1)_v2.xlsx,Rule: Press 'space' when you see the letter 'x' or 'X'.,R,None,,,,,0,0,0,0,0,1,1,1,,,,,,,,,,,,,,,,,,,,,,,,,,,,,,,,,,,,,,,,,,,1.24,125.2709044,None,126.5137808,None,None,1,,126.5137808,None,128.519782,None,,,,,,,,,,,,,,,,,,,,,,,,,,,,,,,P050,FENCOG,2,Pre,2022_Jun_09_1044,N-Back (New Version 2021),2021.1.4,120.0419667
Conditions/Version_2Pr/zeroback(1)_v2.xlsx,Rule: Press 'space' when you see the letter 'x' or 'X'.,p,None,,,,,0,0,0,0,0,2,2,2,,,,,,,,,,,,,,,,,,,,,,,,,,,,,,,,,,,,,,,,,,,1.265,130.0197582,None,131.2903579,None,None,1,,131.2903579,None,133.2935642,None,,,,,,,,,,,,,,,,,,,,,,,,,,,,,,,P050,FENCOG,2,Pre,2022_Jun_09_1044,N-Back (New Version 2021),2021.1.4,120.0419667
Conditions/Version_2Pr/zeroback(1)_v2.xlsx,Rule: Press 'space' when you see the letter 'x' or 'X'.,O,None,,,,,0,0,0,0,0,3,3,3,,,,,,,,,,,,,,,,,,,,,,,,,,,,,,,,,,,,,,,,,,,2.015,134.7933416,None,136.8097513,None,None,1,,136.8097513,None,138.8088541,None,,,,,,,,,,,,,,,,,,,,,,,,,,,,,,,P050,FENCOG,2,Pre,2022_Jun_09_1044,N-Back (New Version 2021),2021.1.4,120.0419667
Conditions/Version_2Pr/zeroback(1)_v2.xlsx,Rule: Press 'space' when you see the letter 'x' or 'X'.,i,None,,,,,0,0,0,0,0,4,4,4,,,,,,,,,,,,,,,,,,,,,,,,,,,,,,,,,,,,,,,,,,,1.415,140.3082523,None,141.7250996,None,None,1,,141.7250996,None,143.7321247,None,,,,,,,,,,,,,,,,,,,,,,,,,,,,,,,P050,FENCOG,2,Pre,2022_Jun_09_1044,N-Back (New Version 2021),2021.1.4,120.0419667
Conditions/Version_2Pr/zeroback(1)_v2.xlsx,Rule: Press 'space' when you see the letter 'x' or 'X'.,U,None,,,,,0,0,0,0,0,5,5,5,,,,,,,,,,,,,,,,,,,,,,,,,,,,,,,,,,,,,,,,,,,1.34,145.2319021,None,146.5745137,None,None,1,,146.5745137,None,148.5787432,None,,,,,,,,,,,,,,,,,,,,,,,,,,,,,,,P050,FENCOG,2,Pre,2022_Jun_09_1044,N-Back (New Version 2021),2021.1.4,120.0419667
Conditions/Version_2Pr/zeroback(1)_v2.xlsx,Rule: Press 'space' when you see the letter 'x' or 'X'.,N,None,,,,,0,0,0,0,0,6,6,6,,,,,,,,,,,,,,,,,,,,,,,,,,,,,,,,,,,,,,,,,,,1.815,150.0812038,None,151.8981339,None,None,1,,151.8981339,None,153.9044118,None,,,,,,,,,,,,,,,,,,,,,,,,,,,,,,,P050,FENCOG,2,Pre,2022_Jun_09_1044,N-Back (New Version 2021),2021.1.4,120.0419667
Conditions/Version_2Pr/zeroback(1)_v2.xlsx,Rule: Press 'space' when you see the letter 'x' or 'X'.,m,None,,,,,0,0,0,0,0,7,7,7,,,,,,,,,,,,,,,,,,,,,,,,,,,,,,,,,,,,,,,,,,,1.865,155.4039122,None,157.2705251,None,None,1,,157.2705251,None,159.2797068,None,,,,,,,,,,,,,,,,,,,,,,,,,,,,,,,P050,FENCOG,2,Pre,2022_Jun_09_1044,N-Back (New Version 2021),2021.1.4,120.0419667
Conditions/Version_2Pr/zeroback(1)_v2.xlsx,Rule: Press 'space' when you see the letter 'x' or 'X'.,x,space,,,,,0,0,0,0,0,8,8,8,,,,,,,,,,,,,,,,,,,,,,,,,,,,,,,,,,,,,,,,,,,1.465,160.7773861,None,162.2441679,None,space,1,0.4484874,162.2441679,None,162.7028327,None,,,,,,,,,,,,,,,,,,,,,,,,,,,,,,,P050,FENCOG,2,Pre,2022_Jun_09_1044,N-Back (New Version 2021),2021.1.4,120.0419667
Conditions/Version_2Pr/zeroback(1)_v2.xlsx,Rule: Press 'space' when you see the letter 'x' or 'X'.,X,space,,,,,0,0,0,0,0,9,9,9,,,,,,,,,,,,,,,,,,,,,,,,,,,,,,,,,,,,,,,,,,,1.89,164.2093629,None,166.1056451,None,space,1,0.4990313,166.1056451,None,166.6190141,None,,,,,,,,,,,,,,,,,,,,,,,,,,,,,,,P050,FENCOG,2,Pre,2022_Jun_09_1044,N-Back (New Version 2021),2021.1.4,120.0419667
Conditions/Version_2Pr/zeroback(1)_v2.xlsx,Rule: Press 'space' when you see the letter 'x' or 'X'.,,,,,,,0,0,0,0,,,,,,,,,,,,,,,,,,,,,,,,,,,,,,,,,,,,,,,,,,,,,,,,,,,,,,,,,,,,,,,,,,,,,,,,,,,,,,,,,,,,,,,,,P050,FENCOG,2,Pre,2022_Jun_09_1044,N-Back (New Version 2021),2021.1.4,120.0419667
Conditions/Version_2Pr/oneback(1)_v2.xlsx,New rule: Press 'space' when you see 1-back (i.e. the same letter as the one that appeared 1 letter ago.),r,None,,,,,0,1,1,1,0,0,0,0,,,,,,,,,,,,,,,,,,,,,,,,,,,,,,,,,168.1566141,None,171.1443666,None,space,4.4042044,171.1443666,None,168.1566141,None,1.74,175.5751011,None,177.3227064,None,None,1,,177.3227064,None,179.3224729,None,,,,,,,,,,,,,,,,,,,,,,,,,,,,,,,P050,FENCOG,2,Pre,2022_Jun_09_1044,N-Back (New Version 2021),2021.1.4,120.0419667
Conditions/Version_2Pr/oneback(1)_v2.xlsx,New rule: Press 'space' when you see 1-back (i.e. the same letter as the one that appeared 1 letter ago.),t,None,,,,,0,1,1,1,0,1,1,1,,,,,,,,,,,,,,,,,,,,,,,,,,,,,,,,,,,,,,,,,,,1.99,180.8297124,None,182.8225492,None,None,1,,182.8225492,None,184.8303966,None,,,,,,,,,,,,,,,,,,,,,,,,,,,,,,,P050,FENCOG,2,Pre,2022_Jun_09_1044,N-Back (New Version 2021),2021.1.4,120.0419667
Conditions/Version_2Pr/oneback(1)_v2.xlsx,New rule: Press 'space' when you see 1-back (i.e. the same letter as the one that appeared 1 letter ago.),Y,None,,,,,0,1,1,1,0,2,2,2,,,,,,,,,,,,,,,,,,,,,,,,,,,,,,,,,,,,,,,,,,,1.54,186.3281151,None,187.8729017,None,None,1,,187.8729017,None,189.8771077,None,,,,,,,,,,,,,,,,,,,,,,,,,,,,,,,P050,FENCOG,2,Pre,2022_Jun_09_1044,N-Back (New Version 2021),2021.1.4,120.0419667
Conditions/Version_2Pr/oneback(1)_v2.xlsx,New rule: Press 'space' when you see 1-back (i.e. the same letter as the one that appeared 1 letter ago.),y,space,,,,,0,1,1,1,0,3,3,3,,,,,,,,,,,,,,,,,,,,,,,,,,,,,,,,,,,,,,,,,,,1.465,191.3766823,None,192.8431695,None,space,1,0.3694102,192.8431695,None,193.2272935,None,,,,,,,,,,,,,,,,,,,,,,,,,,,,,,,P050,FENCOG,2,Pre,2022_Jun_09_1044,N-Back (New Version 2021),2021.1.4,120.0419667
Conditions/Version_2Pr/oneback(1)_v2.xlsx,New rule: Press 'space' when you see 1-back (i.e. the same letter as the one that appeared 1 letter ago.),p,None,,,,,0,1,1,1,0,4,4,4,,,,,,,,,,,,,,,,,,,,,,,,,,,,,,,,,,,,,,,,,,,1.69,194.7361157,None,196.4336135,None,None,1,,196.4336135,None,198.4329078,None,,,,,,,,,,,,,,,,,,,,,,,,,,,,,,,P050,FENCOG,2,Pre,2022_Jun_09_1044,N-Back (New Version 2021),2021.1.4,120.0419667
Conditions/Version_2Pr/oneback(1)_v2.xlsx,New rule: Press 'space' when you see 1-back (i.e. the same letter as the one that appeared 1 letter ago.),P,space,,,,,0,1,1,1,0,5,5,5,,,,,,,,,,,,,,,,,,,,,,,,,,,,,,,,,,,,,,,,,,,2.015,199.9323726,None,201.951532,None,space,1,0.5491794,201.951532,None,202.5163403,None,,,,,,,,,,,,,,,,,,,,,,,,,,,,,,,P050,FENCOG,2,Pre,2022_Jun_09_1044,N-Back (New Version 2021),2021.1.4,120.0419667
Conditions/Version_2Pr/oneback(1)_v2.xlsx,New rule: Press 'space' when you see 1-back (i.e. the same letter as the one that appeared 1 letter ago.),e,None,,,,,0,1,1,1,0,6,6,6,,,,,,,,,,,,,,,,,,,,,,,,,,,,,,,,,,,,,,,,,,,1.415,204.0254143,None,205.4478702,None,None,1,,205.4478702,None,207.4547356,None,,,,,,,,,,,,,,,,,,,,,,,,,,,,,,,P050,FENCOG,2,Pre,2022_Jun_09_1044,N-Back (New Version 2021),2021.1.4,120.0419667
Conditions/Version_2Pr/oneback(1)_v2.xlsx,New rule: Press 'space' when you see 1-back (i.e. the same letter as the one that appeared 1 letter ago.),r,None,,,,,0,1,1,1,0,7,7,7,,,,,,,,,,,,,,,,,,,,,,,,,,,,,,,,,,,,,,,,,,,1.365,208.9548091,None,210.3211412,None,None,1,,210.3211412,None,212.3204585,None,,,,,,,,,,,,,,,,,,,,,,,,,,,,,,,P050,FENCOG,2,Pre,2022_Jun_09_1044,N-Back (New Version 2021),2021.1.4,120.0419667
Conditions/Version_2Pr/oneback(1)_v2.xlsx,New rule: Press 'space' when you see 1-back (i.e. the same letter as the one that appeared 1 letter ago.),R,space,,,,,0,1,1,1,0,8,8,8,,,,,,,,,,,,,,,,,,,,,,,,,,,,,,,,,,,,,,,,,,,1.89,213.8200036,None,215.7120726,None,space,1,0.4292695,215.7120726,None,216.1615157,None,,,,,,,,,,,,,,,,,,,,,,,,,,,,,,,P050,FENCOG,2,Pre,2022_Jun_09_1044,N-Back (New Version 2021),2021.1.4,120.0419667
Conditions/Version_2Pr/oneback(1)_v2.xlsx,New rule: Press 'space' when you see 1-back (i.e. the same letter as the one that appeared 1 letter ago.),p,None,,,,,0,1,1,1,0,9,9,9,,,,,,,,,,,,,,,,,,,,,,,,,,,,,,,,,,,,,,,,,,,1.44,217.660549,None,219.1080911,None,None,1,,219.1080911,None,221.1033402,None,,,,,,,,,,,,,,,,,,,,,,,,,,,,,,,P050,FENCOG,2,Pre,2022_Jun_09_1044,N-Back (New Version 2021),2021.1.4,120.0419667
Conditions/Version_2Pr/oneback(1)_v2.xlsx,New rule: Press 'space' when you see 1-back (i.e. the same letter as the one that appeared 1 letter ago.),,,,,,,0,1,1,1,,,,,,,,,,,,,,,,,,,,,,,,,,,,,,,,,,,,,,,,,,,,,,,,,,,,,,,,,,,,,,,,,,,,,,,,,,,,,,,,,,,,,,,,,P050,FENCOG,2,Pre,2022_Jun_09_1044,N-Back (New Version 2021),2021.1.4,120.0419667
Conditions/Version_2Pr/twoback(1)_v2.xlsx,New rule: Press 'space' when you see 2-back (i.e. the same letter as the one that appeared 2 letters ago.),r,None,,,,,0,2,2,2,0,0,0,0,,,,,,,,,,,,,,,,,,,,,,,,,,,,,,,,,222.6457644,None,225.6270759,None,space,3.6894493,225.6270759,None,222.6457644,None,1.915,229.3434448,None,231.2709531,None,None,1,,231.2709531,None,233.27224,None,,,,,,,,,,,,,,,,,,,,,,,,,,,,,,,P050,FENCOG,2,Pre,2022_Jun_09_1044,N-Back (New Version 2021),2021.1.4,120.0419667
Conditions/Version_2Pr/twoback(1)_v2.xlsx,New rule: Press 'space' when you see 2-back (i.e. the same letter as the one that appeared 2 letters ago.),P,None,,,,,0,2,2,2,0,1,1,1,,,,,,,,,,,,,,,,,,,,,,,,,,,,,,,,,,,,,,,,,,,1.515,234.7722297,None,236.2901548,None,None,1,,236.2901548,None,238.2976975,None,,,,,,,,,,,,,,,,,,,,,,,,,,,,,,,P050,FENCOG,2,Pre,2022_Jun_09_1044,N-Back (New Version 2021),2021.1.4,120.0419667
Conditions/Version_2Pr/twoback(1)_v2.xlsx,New rule: Press 'space' when you see 2-back (i.e. the same letter as the one that appeared 2 letters ago.),o,None,,,,,0,2,2,2,0,2,2,2,,,,,,,,,,,,,,,,,,,,,,,,,,,,,,,,,,,,,,,,,,,1.84,239.7957208,None,241.6404255,None,None,1,,241.6404255,None,243.6445941,None,,,,,,,,,,,,,,,,,,,,,,,,,,,,,,,P050,FENCOG,2,Pre,2022_Jun_09_1044,N-Back (New Version 2021),2021.1.4,120.0419667
Conditions/Version_2Pr/twoback(1)_v2.xlsx,New rule: Press 'space' when you see 2-back (i.e. the same letter as the one that appeared 2 letters ago.),p,space,,,,,0,2,2,2,0,3,3,3,,,,,,,,,,,,,,,,,,,,,,,,,,,,,,,,,,,,,,,,,,,1.74,245.1440247,None,246.8869404,None,space,1,0.35007,246.8869404,None,247.2566076,None,,,,,,,,,,,,,,,,,,,,,,,,,,,,,,,P050,FENCOG,2,Pre,2022_Jun_09_1044,N-Back (New Version 2021),2021.1.4,120.0419667
Conditions/Version_2Pr/twoback(1)_v2.xlsx,New rule: Press 'space' when you see 2-back (i.e. the same letter as the one that appeared 2 letters ago.),Y,None,,,,,0,2,2,2,0,4,4,4,,,,,,,,,,,,,,,,,,,,,,,,,,,,,,,,,,,,,,,,,,,1.165,248.7597021,None,249.9258448,None,None,1,,249.9258448,None,251.9254585,None,,,,,,,,,,,,,,,,,,,,,,,,,,,,,,,P050,FENCOG,2,Pre,2022_Jun_09_1044,N-Back (New Version 2021),2021.1.4,120.0419667
Conditions/Version_2Pr/twoback(1)_v2.xlsx,New rule: Press 'space' when you see 2-back (i.e. the same letter as the one that appeared 2 letters ago.),q,None,,,,,0,2,2,2,0,5,5,5,,,,,,,,,,,,,,,,,,,,,,,,,,,,,,,,,,,,,,,,,,,1.49,253.4247794,None,254.9206843,None,None,1,,254.9206843,None,256.9239924,None,,,,,,,,,,,,,,,,,,,,,,,,,,,,,,,P050,FENCOG,2,Pre,2022_Jun_09_1044,N-Back (New Version 2021),2021.1.4,120.0419667
Conditions/Version_2Pr/twoback(1)_v2.xlsx,New rule: Press 'space' when you see 2-back (i.e. the same letter as the one that appeared 2 letters ago.),m,None,,,,,0,2,2,2,0,6,6,6,,,,,,,,,,,,,,,,,,,,,,,,,,,,,,,,,,,,,,,,,,,1.615,258.423522,None,260.0415545,None,None,1,,260.0415545,None,262.0472165,None,,,,,,,,,,,,,,,,,,,,,,,,,,,,,,,P050,FENCOG,2,Pre,2022_Jun_09_1044,N-Back (New Version 2021),2021.1.4,120.0419667
Conditions/Version_2Pr/twoback(1)_v2.xlsx,New rule: Press 'space' when you see 2-back (i.e. the same letter as the one that appeared 2 letters ago.),Q,space,,,,,0,2,2,2,0,7,7,7,,,,,,,,,,,,,,,,,,,,,,,,,,,,,,,,,,,,,,,,,,,1.94,263.5470098,None,265.4906253,None,space,1,0.4098135,265.4906253,None,265.9130681,None,,,,,,,,,,,,,,,,,,,,,,,,,,,,,,,P050,FENCOG,2,Pre,2022_Jun_09_1044,N-Back (New Version 2021),2021.1.4,120.0419667
Conditions/Version_2Pr/twoback(1)_v2.xlsx,New rule: Press 'space' when you see 2-back (i.e. the same letter as the one that appeared 2 letters ago.),L,None,,,,,0,2,2,2,0,8,8,8,,,,,,,,,,,,,,,,,,,,,,,,,,,,,,,,,,,,,,,,,,,1.065,267.4126135,None,268.4812301,None,None,1,,268.4812301,None,270.4867352,None,,,,,,,,,,,,,,,,,,,,,,,,,,,,,,,P050,FENCOG,2,Pre,2022_Jun_09_1044,N-Back (New Version 2021),2021.1.4,120.0419667
Conditions/Version_2Pr/twoback(1)_v2.xlsx,New rule: Press 'space' when you see 2-back (i.e. the same letter as the one that appeared 2 letters ago.),q,space,,,,,0,2,2,2,0,9,9,9,,,,,,,,,,,,,,,,,,,,,,,,,,,,,,,,,,,,,,,,,,,1.04,271.9862285,None,273.0311186,None,None,0,,273.0311186,None,275.0405298,None,,,,,,,,,,,,,,,,,,,,,,,,,,,,,,,P050,FENCOG,2,Pre,2022_Jun_09_1044,N-Back (New Version 2021),2021.1.4,120.0419667
Conditions/Version_2Pr/twoback(1)_v2.xlsx,New rule: Press 'space' when you see 2-back (i.e. the same letter as the one that appeared 2 letters ago.),,,,,,,0,2,2,2,,,,,,,,,,,,,,,,,,,,,,,,,,,,,,,,,,,,,,,,,,,,,,,,,,,,,,,,,,,,,,,,,,,,,,,,,,,,,,,,,,,,,,,,,P050,FENCOG,2,Pre,2022_Jun_09_1044,N-Back (New Version 2021),2021.1.4,120.0419667
Conditions/Version_2Pr/threeback(1)_v2.xlsx,New rule: Press 'space' when you see 3-back (i.e. the same letter as the one that appeared 3 letters ago.),u,None,,,,,0,3,3,3,0,0,0,0,,,,,,,,,,,,,,,,,,,,,,,,,,,,,,,,,276.5555929,None,279.5452845,None,space,2.6914726,279.5452845,None,276.5555929,None,1.565,282.262303,None,283.8348931,None,None,1,,283.8348931,None,285.8406304,None,,,,,,,,,,,,,,,,,,,,,,,,,,,,,,,P050,FENCOG,2,Pre,2022_Jun_09_1044,N-Back (New Version 2021),2021.1.4,120.0419667
Conditions/Version_2Pr/threeback(1)_v2.xlsx,New rule: Press 'space' when you see 3-back (i.e. the same letter as the one that appeared 3 letters ago.),U,None,,,,,0,3,3,3,0,1,1,1,,,,,,,,,,,,,,,,,,,,,,,,,,,,,,,,,,,,,,,,,,,1.365,287.3399786,None,288.7066909,None,space,0,0.6738537,288.7066909,None,289.3953835,None,,,,,,,,,,,,,,,,,,,,,,,,,,,,,,,P050,FENCOG,2,Pre,2022_Jun_09_1044,N-Back (New Version 2021),2021.1.4,120.0419667
Conditions/Version_2Pr/threeback(1)_v2.xlsx,New rule: Press 'space' when you see 3-back (i.e. the same letter as the one that appeared 3 letters ago.),p,None,,,,,0,3,3,3,0,2,2,2,,,,,,,,,,,,,,,,,,,,,,,,,,,,,,,,,,,,,,,,,,,1.065,290.8970992,None,291.9646753,None,None,1,,291.9646753,None,293.9724155,None,,,,,,,,,,,,,,,,,,,,,,,,,,,,,,,P050,FENCOG,2,Pre,2022_Jun_09_1044,N-Back (New Version 2021),2021.1.4,120.0419667
Conditions/Version_2Pr/threeback(1)_v2.xlsx,New rule: Press 'space' when you see 3-back (i.e. the same letter as the one that appeared 3 letters ago.),U,space,,,,,0,3,3,3,0,3,3,3,,,,,,,,,,,,,,,,,,,,,,,,,,,,,,,,,,,,,,,,,,,1.115,295.471791,None,296.587773,None,None,0,,296.587773,None,298.5971774,None,,,,,,,,,,,,,,,,,,,,,,,,,,,,,,,P050,FENCOG,2,Pre,2022_Jun_09_1044,N-Back (New Version 2021),2021.1.4,120.0419667
Conditions/Version_2Pr/threeback(1)_v2.xlsx,New rule: Press 'space' when you see 3-back (i.e. the same letter as the one that appeared 3 letters ago.),e,None,,,,,0,3,3,3,0,4,4,4,,,,,,,,,,,,,,,,,,,,,,,,,,,,,,,,,,,,,,,,,,,1.215,300.0945639,None,301.3106784,None,None,1,,301.3106784,None,303.3187701,None,,,,,,,,,,,,,,,,,,,,,,,,,,,,,,,P050,FENCOG,2,Pre,2022_Jun_09_1044,N-Back (New Version 2021),2021.1.4,120.0419667
Conditions/Version_2Pr/threeback(1)_v2.xlsx,New rule: Press 'space' when you see 3-back (i.e. the same letter as the one that appeared 3 letters ago.),R,None,,,,,0,3,3,3,0,5,5,5,,,,,,,,,,,,,,,,,,,,,,,,,,,,,,,,,,,,,,,,,,,1.64,304.8181882,None,306.4593285,None,None,1,,306.4593285,None,308.4588845,None,,,,,,,,,,,,,,,,,,,,,,,,,,,,,,,P050,FENCOG,2,Pre,2022_Jun_09_1044,N-Back (New Version 2021),2021.1.4,120.0419667
Conditions/Version_2Pr/threeback(1)_v2.xlsx,New rule: Press 'space' when you see 3-back (i.e. the same letter as the one that appeared 3 letters ago.),p,None,,,,,0,3,3,3,0,6,6,6,,,,,,,,,,,,,,,,,,,,,,,,,,,,,,,,,,,,,,,,,,,1.715,309.9582062,None,311.675301,None,space,0,0.4899381,311.675301,None,312.186099,None,,,,,,,,,,,,,,,,,,,,,,,,,,,,,,,P050,FENCOG,2,Pre,2022_Jun_09_1044,N-Back (New Version 2021),2021.1.4,120.0419667
Conditions/Version_2Pr/threeback(1)_v2.xlsx,New rule: Press 'space' when you see 3-back (i.e. the same letter as the one that appeared 3 letters ago.),E,space,,,,,0,3,3,3,0,7,7,7,,,,,,,,,,,,,,,,,,,,,,,,,,,,,,,,,,,,,,,,,,,1.94,313.6903233,None,315.6347435,None,space,1,0.4977787,315.6347435,None,316.1453961,None,,,,,,,,,,,,,,,,,,,,,,,,,,,,,,,P050,FENCOG,2,Pre,2022_Jun_09_1044,N-Back (New Version 2021),2021.1.4,120.0419667
Conditions/Version_2Pr/threeback(1)_v2.xlsx,New rule: Press 'space' when you see 3-back (i.e. the same letter as the one that appeared 3 letters ago.),k,None,,,,,0,3,3,3,0,8,8,8,,,,,,,,,,,,,,,,,,,,,,,,,,,,,,,,,,,,,,,,,,,1.59,317.6475951,None,319.2406096,None,None,1,,319.2406096,None,321.2467408,None,,,,,,,,,,,,,,,,,,,,,,,,,,,,,,,P050,FENCOG,2,Pre,2022_Jun_09_1044,N-Back (New Version 2021),2021.1.4,120.0419667
Conditions/Version_2Pr/threeback(1)_v2.xlsx,New rule: Press 'space' when you see 3-back (i.e. the same letter as the one that appeared 3 letters ago.),m,None,,,,,0,3,3,3,0,9,9,9,,,,,,,,,,,,,,,,,,,,,,,,,,,,,,,,,,,,,,,,,,,1.915,322.7462826,None,324.6632354,None,space,0,0.5812883,324.6632354,None,325.2581993,None,,,,,,,,,,,,,,,,,,,,,,,,,,,,,,,P050,FENCOG,2,Pre,2022_Jun_09_1044,N-Back (New Version 2021),2021.1.4,120.0419667
Conditions/Version_2Pr/threeback(1)_v2.xlsx,New rule: Press 'space' when you see 3-back (i.e. the same letter as the one that appeared 3 letters ago.),,,,,,,0,3,3,3,,,,,,,,,,,,,,,,,,,,,,,,,,,,,,,,,,,,,,,,,,,,,,,,,,,,,,,,,,,,,,,,,,,,,,,,,,,,,,,,,,,,,,,,,P050,FENCOG,2,Pre,2022_Jun_09_1044,N-Back (New Version 2021),2021.1.4,120.0419667
,,,,,,,,,,,,,,,,,,,,,,,,,,,,,,,,,,,,,,,,,,,,,,,,,,,,,,,,,,,,,,,,,,,,,,326.7688545,None,space,1.9908661,327.2618331,None,,,,,,,,,,,,,,,,,,,,,,,,,P050,FENCOG,2,Pre,2022_Jun_09_1044,N-Back (New Version 2021),2021.1.4,120.0419667
,,,,,,,,,,,,,,,,,,,,,,,,,,,,,,,,,,,,,,,,,,,,,,,,,,,,,,,,,,,,,,,,,,,,,,,,,,,,329.2893622,None,space,10.5463113,329.7863545,None,,,,,,,,,,,,,,,,,,,P050,FENCOG,2,Pre,2022_Jun_09_1044,N-Back (New Version 2021),2021.1.4,120.0419667
,,,,Conditions/Version_1/zeroback(1)_v1.xlsx,Rule: Press 'space' when you see the letter 'x' or 'X'.,b,None,,,,,,,,,0,0,0,0,0,0,0,0,,,,,,,,,,,,,,,,,,,,,,,,,,,,,,,,,,,,,,,,,,,,,,,,,,,,,,,,,,,340.4469346,None,343.4334969,None,space,1.8429151,343.4334969,None,340.4469346,None,1.9772,347.2906328,None,None,1,347.2906328,None,,P050,FENCOG,2,Pre,2022_Jun_09_1044,N-Back (New Version 2021),2021.1.4,120.0419667
,,,,Conditions/Version_1/zeroback(1)_v1.xlsx,Rule: Press 'space' when you see the letter 'x' or 'X'.,T,None,,,,,,,,,0,0,0,0,0,1,1,1,,,,,,,,,,,,,,,,,,,,,,,,,,,,,,,,,,,,,,,,,,,,,,,,,,,,,,,,,,,,,,,,,,,,,1.6424,350.946525,None,None,1,350.946525,None,,P050,FENCOG,2,Pre,2022_Jun_09_1044,N-Back (New Version 2021),2021.1.4,120.0419667
,,,,Conditions/Version_1/zeroback(1)_v1.xlsx,Rule: Press 'space' when you see the letter 'x' or 'X'.,L,None,,,,,,,,,0,0,0,0,0,2,2,2,,,,,,,,,,,,,,,,,,,,,,,,,,,,,,,,,,,,,,,,,,,,,,,,,,,,,,,,,,,,,,,,,,,,,1.537,354.4866886,None,None,1,354.4866886,None,,P050,FENCOG,2,Pre,2022_Jun_09_1044,N-Back (New Version 2021),2021.1.4,120.0419667
,,,,Conditions/Version_1/zeroback(1)_v1.xlsx,Rule: Press 'space' when you see the letter 'x' or 'X'.,x,space,,,,,,,,,0,0,0,0,0,3,3,3,,,,,,,,,,,,,,,,,,,,,,,,,,,,,,,,,,,,,,,,,,,,,,,,,,,,,,,,,,,,,,,,,,,,,1.5742,358.0633076,None,space,1,358.0633076,None,1.6692357,P050,FENCOG,2,Pre,2022_Jun_09_1044,N-Back (New Version 2021),2021.1.4,120.0419667
,,,,Conditions/Version_1/zeroback(1)_v1.xlsx,Rule: Press 'space' when you see the letter 'x' or 'X'.,o,None,,,,,,,,,0,0,0,0,0,4,4,4,,,,,,,,,,,,,,,,,,,,,,,,,,,,,,,,,,,,,,,,,,,,,,,,,,,,,,,,,,,,,,,,,,,,,1.0224,361.0930576,None,None,1,361.0930576,None,,P050,FENCOG,2,Pre,2022_Jun_09_1044,N-Back (New Version 2021),2021.1.4,120.0419667
,,,,Conditions/Version_1/zeroback(1)_v1.xlsx,Rule: Press 'space' when you see the letter 'x' or 'X'.,P,None,,,,,,,,,0,0,0,0,0,5,5,5,,,,,,,,,,,,,,,,,,,,,,,,,,,,,,,,,,,,,,,,,,,,,,,,,,,,,,,,,,,,,,,,,,,,,1.6486,364.7463468,None,None,1,364.7463468,None,,P050,FENCOG,2,Pre,2022_Jun_09_1044,N-Back (New Version 2021),2021.1.4,120.0419667
,,,,Conditions/Version_1/zeroback(1)_v1.xlsx,Rule: Press 'space' when you see the letter 'x' or 'X'.,X,space,,,,,,,,,0,0,0,0,0,6,6,6,,,,,,,,,,,,,,,,,,,,,,,,,,,,,,,,,,,,,,,,,,,,,,,,,,,,,,,,,,,,,,,,,,,,,1.0844,367.8411877,None,space,1,367.8411877,None,0.4279855,P050,FENCOG,2,Pre,2022_Jun_09_1044,N-Back (New Version 2021),2021.1.4,120.0419667
,,,,Conditions/Version_1/zeroback(1)_v1.xlsx,Rule: Press 'space' when you see the letter 'x' or 'X'.,n,None,,,,,,,,,0,0,0,0,0,7,7,7,,,,,,,,,,,,,,,,,,,,,,,,,,,,,,,,,,,,,,,,,,,,,,,,,,,,,,,,,,,,,,,,,,,,,1.9462,371.7913597,None,None,1,371.7913597,None,,P050,FENCOG,2,Pre,2022_Jun_09_1044,N-Back (New Version 2021),2021.1.4,120.0419667
,,,,Conditions/Version_1/zeroback(1)_v1.xlsx,Rule: Press 'space' when you see the letter 'x' or 'X'.,M,None,,,,,,,,,0,0,0,0,0,8,8,8,,,,,,,,,,,,,,,,,,,,,,,,,,,,,,,,,,,,,,,,,,,,,,,,,,,,,,,,,,,,,,,,,,,,,1.0596,374.86737,None,None,1,374.86737,None,,P050,FENCOG,2,Pre,2022_Jun_09_1044,N-Back (New Version 2021),2021.1.4,120.0419667
,,,,Conditions/Version_1/zeroback(1)_v1.xlsx,Rule: Press 'space' when you see the letter 'x' or 'X'.,a,None,,,,,,,,,0,0,0,0,0,9,9,9,,,,,,,,,,,,,,,,,,,,,,,,,,,,,,,,,,,,,,,,,,,,,,,,,,,,,,,,,,,,,,,,,,,,,1.5866,378.465678,None,None,1,378.465678,None,,P050,FENCOG,2,Pre,2022_Jun_09_1044,N-Back (New Version 2021),2021.1.4,120.0419667
,,,,Conditions/Version_1/zeroback(1)_v1.xlsx,Rule: Press 'space' when you see the letter 'x' or 'X'.,,,,,,,,,,,0,0,0,0,,,,,,,,,,,,,,,,,,,,,,,,,,,,,,,,,,,,,,,,,,,,,,,,,,,,,,,,,,,,,,,,,,,,,,,,,,,,,,,,,P050,FENCOG,2,Pre,2022_Jun_09_1044,N-Back (New Version 2021),2021.1.4,120.0419667
,,,,Conditions/Version_1/oneback(1)_v1.xlsx,New rule: Press 'space' when you see 1-back (i.e. the same letter as the one that appeared 1 letter ago.),b,None,,,,,,,,,0,1,1,1,0,0,0,0,,,,,,,,,,,,,,,,,,,,,,,,,,,,,,,,,,,,,,,,,,,,,,,,,,,,,,,,,,,380.5113307,None,383.4986125,None,space,0.0819002,383.4986125,None,380.5113307,None,1.537,385.1526486,None,None,1,385.1526486,None,,P050,FENCOG,2,Pre,2022_Jun_09_1044,N-Back (New Version 2021),2021.1.4,120.0419667
,,,,Conditions/Version_1/oneback(1)_v1.xlsx,New rule: Press 'space' when you see 1-back (i.e. the same letter as the one that appeared 1 letter ago.),p,None,,,,,,,,,0,1,1,1,0,1,1,1,,,,,,,,,,,,,,,,,,,,,,,,,,,,,,,,,,,,,,,,,,,,,,,,,,,,,,,,,,,,,,,,,,,,,1.2952,388.4527614,None,None,1,388.4527614,None,,P050,FENCOG,2,Pre,2022_Jun_09_1044,N-Back (New Version 2021),2021.1.4,120.0419667
,,,,Conditions/Version_1/oneback(1)_v1.xlsx,New rule: Press 'space' when you see 1-back (i.e. the same letter as the one that appeared 1 letter ago.),M,None,,,,,,,,,0,1,1,1,0,2,2,2,,,,,,,,,,,,,,,,,,,,,,,,,,,,,,,,,,,,,,,,,,,,,,,,,,,,,,,,,,,,,,,,,,,,,1.9586,392.417158,None,None,1,392.417158,None,,P050,FENCOG,2,Pre,2022_Jun_09_1044,N-Back (New Version 2021),2021.1.4,120.0419667
,,,,Conditions/Version_1/oneback(1)_v1.xlsx,New rule: Press 'space' when you see 1-back (i.e. the same letter as the one that appeared 1 letter ago.),M,space,,,,,,,,,0,1,1,1,0,3,3,3,,,,,,,,,,,,,,,,,,,,,,,,,,,,,,,,,,,,,,,,,,,,,,,,,,,,,,,,,,,,,,,,,,,,,1.0472,395.466407,None,space,1,395.466407,None,0.5142245,P050,FENCOG,2,Pre,2022_Jun_09_1044,N-Back (New Version 2021),2021.1.4,120.0419667
,,,,Conditions/Version_1/oneback(1)_v1.xlsx,New rule: Press 'space' when you see 1-back (i.e. the same letter as the one that appeared 1 letter ago.),n,None,,,,,,,,,0,1,1,1,0,4,4,4,,,,,,,,,,,,,,,,,,,,,,,,,,,,,,,,,,,,,,,,,,,,,,,,,,,,,,,,,,,,,,,,,,,,,1.289,398.757835,None,None,1,398.757835,None,,P050,FENCOG,2,Pre,2022_Jun_09_1044,N-Back (New Version 2021),2021.1.4,120.0419667
,,,,Conditions/Version_1/oneback(1)_v1.xlsx,New rule: Press 'space' when you see 1-back (i.e. the same letter as the one that appeared 1 letter ago.),g,None,,,,,,,,,0,1,1,1,0,5,5,5,,,,,,,,,,,,,,,,,,,,,,,,,,,,,,,,,,,,,,,,,,,,,,,,,,,,,,,,,,,,,,,,,,,,,1.8594,402.6314334,None,None,1,402.6314334,None,,P050,FENCOG,2,Pre,2022_Jun_09_1044,N-Back (New Version 2021),2021.1.4,120.0419667
,,,,Conditions/Version_1/oneback(1)_v1.xlsx,New rule: Press 'space' when you see 1-back (i.e. the same letter as the one that appeared 1 letter ago.),P,None,,,,,,,,,0,1,1,1,0,6,6,6,,,,,,,,,,,,,,,,,,,,,,,,,,,,,,,,,,,,,,,,,,,,,,,,,,,,,,,,,,,,,,,,,,,,,1.3696,406.0046609,None,None,1,406.0046609,None,,P050,FENCOG,2,Pre,2022_Jun_09_1044,N-Back (New Version 2021),2021.1.4,120.0419667
,,,,Conditions/Version_1/oneback(1)_v1.xlsx,New rule: Press 'space' when you see 1-back (i.e. the same letter as the one that appeared 1 letter ago.),o,None,,,,,,,,,0,1,1,1,0,7,7,7,,,,,,,,,,,,,,,,,,,,,,,,,,,,,,,,,,,,,,,,,,,,,,,,,,,,,,,,,,,,,,,,,,,,,1.8222,409.8287464,None,None,1,409.8287464,None,,P050,FENCOG,2,Pre,2022_Jun_09_1044,N-Back (New Version 2021),2021.1.4,120.0419667
,,,,Conditions/Version_1/oneback(1)_v1.xlsx,New rule: Press 'space' when you see 1-back (i.e. the same letter as the one that appeared 1 letter ago.),f,None,,,,,,,,,0,1,1,1,0,8,8,8,,,,,,,,,,,,,,,,,,,,,,,,,,,,,,,,,,,,,,,,,,,,,,,,,,,,,,,,,,,,,,,,,,,,,1.1154,412.9560805,None,None,1,412.9560805,None,,P050,FENCOG,2,Pre,2022_Jun_09_1044,N-Back (New Version 2021),2021.1.4,120.0419667
,,,,Conditions/Version_1/oneback(1)_v1.xlsx,New rule: Press 'space' when you see 1-back (i.e. the same letter as the one that appeared 1 letter ago.),F,space,,,,,,,,,0,1,1,1,0,9,9,9,,,,,,,,,,,,,,,,,,,,,,,,,,,,,,,,,,,,,,,,,,,,,,,,,,,,,,,,,,,,,,,,,,,,,1.8098,416.7782593,None,space,1,416.7782593,None,0.3464628,P050,FENCOG,2,Pre,2022_Jun_09_1044,N-Back (New Version 2021),2021.1.4,120.0419667
,,,,Conditions/Version_1/oneback(1)_v1.xlsx,New rule: Press 'space' when you see 1-back (i.e. the same letter as the one that appeared 1 letter ago.),,,,,,,,,,,0,1,1,1,,,,,,,,,,,,,,,,,,,,,,,,,,,,,,,,,,,,,,,,,,,,,,,,,,,,,,,,,,,,,,,,,,,,,,,,,,,,,,,,,P050,FENCOG,2,Pre,2022_Jun_09_1044,N-Back (New Version 2021),2021.1.4,120.0419667
,,,,Conditions/Version_1/twoback(1)_v1.xlsx,New rule: Press 'space' when you see 2-back (i.e. the same letter as the one that appeared 2 letters ago.),b,None,,,,,,,,,0,2,2,2,0,0,0,0,,,,,,,,,,,,,,,,,,,,,,,,,,,,,,,,,,,,,,,,,,,,,,,,,,,,,,,,,,,418.8065161,None,421.7941842,None,space,3.6422283,421.7941842,None,418.8065161,None,1.1154,426.5915263,None,None,1,426.5915263,None,,P050,FENCOG,2,Pre,2022_Jun_09_1044,N-Back (New Version 2021),2021.1.4,120.0419667
,,,,Conditions/Version_1/twoback(1)_v1.xlsx,New rule: Press 'space' when you see 2-back (i.e. the same letter as the one that appeared 2 letters ago.),h,None,,,,,,,,,0,2,2,2,0,1,1,1,,,,,,,,,,,,,,,,,,,,,,,,,,,,,,,,,,,,,,,,,,,,,,,,,,,,,,,,,,,,,,,,,,,,,1.7912,430.3921233,None,None,1,430.3921233,None,,P050,FENCOG,2,Pre,2022_Jun_09_1044,N-Back (New Version 2021),2021.1.4,120.0419667
,,,,Conditions/Version_1/twoback(1)_v1.xlsx,New rule: Press 'space' when you see 2-back (i.e. the same letter as the one that appeared 2 letters ago.),j,None,,,,,,,,,0,2,2,2,0,2,2,2,,,,,,,,,,,,,,,,,,,,,,,,,,,,,,,,,,,,,,,,,,,,,,,,,,,,,,,,,,,,,,,,,,,,,1.506,433.9135248,None,None,1,433.9135248,None,,P050,FENCOG,2,Pre,2022_Jun_09_1044,N-Back (New Version 2021),2021.1.4,120.0419667
,,,,Conditions/Version_1/twoback(1)_v1.xlsx,New rule: Press 'space' when you see 2-back (i.e. the same letter as the one that appeared 2 letters ago.),H,space,,,,,,,,,0,2,2,2,0,3,3,3,,,,,,,,,,,,,,,,,,,,,,,,,,,,,,,,,,,,,,,,,,,,,,,,,,,,,,,,,,,,,,,,,,,,,1.0472,436.9663422,None,space,1,436.9663422,None,0.382312,P050,FENCOG,2,Pre,2022_Jun_09_1044,N-Back (New Version 2021),2021.1.4,120.0419667
,,,,Conditions/Version_1/twoback(1)_v1.xlsx,New rule: Press 'space' when you see 2-back (i.e. the same letter as the one that appeared 2 letters ago.),p,None,,,,,,,,,0,2,2,2,0,4,4,4,,,,,,,,,,,,,,,,,,,,,,,,,,,,,,,,,,,,,,,,,,,,,,,,,,,,,,,,,,,,,,,,,,,,,1.4254,440.4030241,None,None,1,440.4030241,None,,P050,FENCOG,2,Pre,2022_Jun_09_1044,N-Back (New Version 2021),2021.1.4,120.0419667
,,,,Conditions/Version_1/twoback(1)_v1.xlsx,New rule: Press 'space' when you see 2-back (i.e. the same letter as the one that appeared 2 letters ago.),p,None,,,,,,,,,0,2,2,2,0,5,5,5,,,,,,,,,,,,,,,,,,,,,,,,,,,,,,,,,,,,,,,,,,,,,,,,,,,,,,,,,,,,,,,,,,,,,1.6734,444.0771356,None,space,0,444.0771356,None,0.5598336,P050,FENCOG,2,Pre,2022_Jun_09_1044,N-Back (New Version 2021),2021.1.4,120.0419667
,,,,Conditions/Version_1/twoback(1)_v1.xlsx,New rule: Press 'space' when you see 2-back (i.e. the same letter as the one that appeared 2 letters ago.),w,None,,,,,,,,,0,2,2,2,0,6,6,6,,,,,,,,,,,,,,,,,,,,,,,,,,,,,,,,,,,,,,,,,,,,,,,,,,,,,,,,,,,,,,,,,,,,,1.4626,447.5444845,None,None,1,447.5444845,None,,P050,FENCOG,2,Pre,2022_Jun_09_1044,N-Back (New Version 2021),2021.1.4,120.0419667
,,,,Conditions/Version_1/twoback(1)_v1.xlsx,New rule: Press 'space' when you see 2-back (i.e. the same letter as the one that appeared 2 letters ago.),R,None,,,,,,,,,0,2,2,2,0,7,7,7,,,,,,,,,,,,,,,,,,,,,,,,,,,,,,,,,,,,,,,,,,,,,,,,,,,,,,,,,,,,,,,,,,,,,1.8594,451.4164548,None,None,1,451.4164548,None,,P050,FENCOG,2,Pre,2022_Jun_09_1044,N-Back (New Version 2021),2021.1.4,120.0419667
,,,,Conditions/Version_1/twoback(1)_v1.xlsx,New rule: Press 'space' when you see 2-back (i.e. the same letter as the one that appeared 2 letters ago.),a,None,,,,,,,,,0,2,2,2,0,8,8,8,,,,,,,,,,,,,,,,,,,,,,,,,,,,,,,,,,,,,,,,,,,,,,,,,,,,,,,,,,,,,,,,,,,,,1.475,454.8917037,None,None,1,454.8917037,None,,P050,FENCOG,2,Pre,2022_Jun_09_1044,N-Back (New Version 2021),2021.1.4,120.0419667
,,,,Conditions/Version_1/twoback(1)_v1.xlsx,New rule: Press 'space' when you see 2-back (i.e. the same letter as the one that appeared 2 letters ago.),r,space,,,,,,,,,0,2,2,2,0,9,9,9,,,,,,,,,,,,,,,,,,,,,,,,,,,,,,,,,,,,,,,,,,,,,,,,,,,,,,,,,,,,,,,,,,,,,1.599,458.497715,None,space,1,458.497715,None,0.6356439,P050,FENCOG,2,Pre,2022_Jun_09_1044,N-Back (New Version 2021),2021.1.4,120.0419667
,,,,Conditions/Version_1/twoback(1)_v1.xlsx,New rule: Press 'space' when you see 2-back (i.e. the same letter as the one that appeared 2 letters ago.),,,,,,,,,,,0,2,2,2,,,,,,,,,,,,,,,,,,,,,,,,,,,,,,,,,,,,,,,,,,,,,,,,,,,,,,,,,,,,,,,,,,,,,,,,,,,,,,,,,P050,FENCOG,2,Pre,2022_Jun_09_1044,N-Back (New Version 2021),2021.1.4,120.0419667
,,,,Conditions/Version_1/threeback(1)_v1.xlsx,New rule: Press 'space' when you see 3-back (i.e. the same letter as the one that appeared 3 letters ago.),r,None,,,,,,,,,0,3,3,3,0,0,0,0,,,,,,,,,,,,,,,,,,,,,,,,,,,,,,,,,,,,,,,,,,,,,,,,,,,,,,,,,,,460.5334149,None,463.5151268,None,space,0.8731037,463.5151268,None,460.5334149,None,1.6734,466.0974629,None,None,1,466.0974629,None,,P050,FENCOG,2,Pre,2022_Jun_09_1044,N-Back (New Version 2021),2021.1.4,120.0419667
,,,,Conditions/Version_1/threeback(1)_v1.xlsx,New rule: Press 'space' when you see 3-back (i.e. the same letter as the one that appeared 3 letters ago.),o,None,,,,,,,,,0,3,3,3,0,1,1,1,,,,,,,,,,,,,,,,,,,,,,,,,,,,,,,,,,,,,,,,,,,,,,,,,,,,,,,,,,,,,,,,,,,,,1.6176,469.727695,None,None,1,469.727695,None,,P050,FENCOG,2,Pre,2022_Jun_09_1044,N-Back (New Version 2021),2021.1.4,120.0419667
,,,,Conditions/Version_1/threeback(1)_v1.xlsx,New rule: Press 'space' when you see 3-back (i.e. the same letter as the one that appeared 3 letters ago.),P,None,,,,,,,,,0,3,3,3,0,2,2,2,,,,,,,,,,,,,,,,,,,,,,,,,,,,,,,,,,,,,,,,,,,,,,,,,,,,,,,,,,,,,,,,,,,,,1.1464,472.8783336,None,None,1,472.8783336,None,,P050,FENCOG,2,Pre,2022_Jun_09_1044,N-Back (New Version 2021),2021.1.4,120.0419667
,,,,Conditions/Version_1/threeback(1)_v1.xlsx,New rule: Press 'space' when you see 3-back (i.e. the same letter as the one that appeared 3 letters ago.),R,space,,,,,,,,,0,3,3,3,0,3,3,3,,,,,,,,,,,,,,,,,,,,,,,,,,,,,,,,,,,,,,,,,,,,,,,,,,,,,,,,,,,,,,,,,,,,,1.971,476.8589558,None,space,1,476.8589558,None,0.4659554,P050,FENCOG,2,Pre,2022_Jun_09_1044,N-Back (New Version 2021),2021.1.4,120.0419667
,,,,Conditions/Version_1/threeback(1)_v1.xlsx,New rule: Press 'space' when you see 3-back (i.e. the same letter as the one that appeared 3 letters ago.),p,None,,,,,,,,,0,3,3,3,0,4,4,4,,,,,,,,,,,,,,,,,,,,,,,,,,,,,,,,,,,,,,,,,,,,,,,,,,,,,,,,,,,,,,,,,,,,,1.4502,480.307895,None,space,0,480.307895,None,1.5204846,P050,FENCOG,2,Pre,2022_Jun_09_1044,N-Back (New Version 2021),2021.1.4,120.0419667
,,,,Conditions/Version_1/threeback(1)_v1.xlsx,New rule: Press 'space' when you see 3-back (i.e. the same letter as the one that appeared 3 letters ago.),E,None,,,,,,,,,0,3,3,3,0,5,5,5,,,,,,,,,,,,,,,,,,,,,,,,,,,,,,,,,,,,,,,,,,,,,,,,,,,,,,,,,,,,,,,,,,,,,1.4254,483.7323401,None,None,1,483.7323401,None,,P050,FENCOG,2,Pre,2022_Jun_09_1044,N-Back (New Version 2021),2021.1.4,120.0419667
,,,,Conditions/Version_1/threeback(1)_v1.xlsx,New rule: Press 'space' when you see 3-back (i.e. the same letter as the one that appeared 3 letters ago.),e,None,,,,,,,,,0,3,3,3,0,6,6,6,,,,,,,,,,,,,,,,,,,,,,,,,,,,,,,,,,,,,,,,,,,,,,,,,,,,,,,,,,,,,,,,,,,,,1.8098,487.5480253,None,space,0,487.5480253,None,0.4723199,P050,FENCOG,2,Pre,2022_Jun_09_1044,N-Back (New Version 2021),2021.1.4,120.0419667
,,,,Conditions/Version_1/threeback(1)_v1.xlsx,New rule: Press 'space' when you see 3-back (i.e. the same letter as the one that appeared 3 letters ago.),m,None,,,,,,,,,0,3,3,3,0,7,7,7,,,,,,,,,,,,,,,,,,,,,,,,,,,,,,,,,,,,,,,,,,,,,,,,,,,,,,,,,,,,,,,,,,,,,1.3634,490.9168636,None,None,1,490.9168636,None,,P050,FENCOG,2,Pre,2022_Jun_09_1044,N-Back (New Version 2021),2021.1.4,120.0419667
,,,,Conditions/Version_1/threeback(1)_v1.xlsx,New rule: Press 'space' when you see 3-back (i.e. the same letter as the one that appeared 3 letters ago.),n,None,,,,,,,,,0,3,3,3,0,8,8,8,,,,,,,,,,,,,,,,,,,,,,,,,,,,,,,,,,,,,,,,,,,,,,,,,,,,,,,,,,,,,,,,,,,,,1.2084,494.1288431,None,None,1,494.1288431,None,,P050,FENCOG,2,Pre,2022_Jun_09_1044,N-Back (New Version 2021),2021.1.4,120.0419667
,,,,Conditions/Version_1/threeback(1)_v1.xlsx,New rule: Press 'space' when you see 3-back (i.e. the same letter as the one that appeared 3 letters ago.),e,space,,,,,,,,,0,3,3,3,0,9,9,9,,,,,,,,,,,,,,,,,,,,,,,,,,,,,,,,,,,,,,,,,,,,,,,,,,,,,,,,,,,,,,,,,,,,,1.0658,497.1946123,None,space,1,497.1946123,None,0.7377655,P050,FENCOG,2,Pre,2022_Jun_09_1044,N-Back (New Version 2021),2021.1.4,120.0419667
,,,,Conditions/Version_1/threeback(1)_v1.xlsx,New rule: Press 'space' when you see 3-back (i.e. the same letter as the one that appeared 3 letters ago.),,,,,,,,,,,0,3,3,3,,,,,,,,,,,,,,,,,,,,,,,,,,,,,,,,,,,,,,,,,,,,,,,,,,,,,,,,,,,,,,,,,,,,,,,,,,,,,,,,,P050,FENCOG,2,Pre,2022_Jun_09_1044,N-Back (New Version 2021),2021.1.4,120.0419667
,,,,Conditions/Version_1/oneback(2)_v1.xlsx,New rule: Press 'space' when you see 1-back (i.e. the same letter as the one that appeared 1 letter ago.),q,None,,,,,,,,,0,4,4,4,0,0,0,0,,,,,,,,,,,,,,,,,,,,,,,,,,,,,,,,,,,,,,,,,,,,,,,,,,,,,,,,,,,499.2210961,None,502.2038198,None,space,0.576565,502.2038198,None,499.2210961,None,1.9958,504.8090606,None,None,1,504.8090606,None,,P050,FENCOG,2,Pre,2022_Jun_09_1044,N-Back (New Version 2021),2021.1.4,120.0419667
,,,,Conditions/Version_1/oneback(2)_v1.xlsx,New rule: Press 'space' when you see 1-back (i.e. the same letter as the one that appeared 1 letter ago.),Q,space,,,,,,,,,0,4,4,4,0,1,1,1,,,,,,,,,,,,,,,,,,,,,,,,,,,,,,,,,,,,,,,,,,,,,,,,,,,,,,,,,,,,,,,,,,,,,1.382,508.1917842,None,space,1,508.1917842,None,0.5006163,P050,FENCOG,2,Pre,2022_Jun_09_1044,N-Back (New Version 2021),2021.1.4,120.0419667
,,,,Conditions/Version_1/oneback(2)_v1.xlsx,New rule: Press 'space' when you see 1-back (i.e. the same letter as the one that appeared 1 letter ago.),P,None,,,,,,,,,0,4,4,4,0,2,2,2,,,,,,,,,,,,,,,,,,,,,,,,,,,,,,,,,,,,,,,,,,,,,,,,,,,,,,,,,,,,,,,,,,,,,1.537,511.732017,None,None,1,511.732017,None,,P050,FENCOG,2,Pre,2022_Jun_09_1044,N-Back (New Version 2021),2021.1.4,120.0419667
,,,,Conditions/Version_1/oneback(2)_v1.xlsx,New rule: Press 'space' when you see 1-back (i.e. the same letter as the one that appeared 1 letter ago.),o,None,,,,,,,,,0,4,4,4,0,3,3,3,,,,,,,,,,,,,,,,,,,,,,,,,,,,,,,,,,,,,,,,,,,,,,,,,,,,,,,,,,,,,,,,,,,,,1.165,514.899848,None,None,1,514.899848,None,,P050,FENCOG,2,Pre,2022_Jun_09_1044,N-Back (New Version 2021),2021.1.4,120.0419667
,,,,Conditions/Version_1/oneback(2)_v1.xlsx,New rule: Press 'space' when you see 1-back (i.e. the same letter as the one that appeared 1 letter ago.),m,None,,,,,,,,,0,4,4,4,0,4,4,4,,,,,,,,,,,,,,,,,,,,,,,,,,,,,,,,,,,,,,,,,,,,,,,,,,,,,,,,,,,,,,,,,,,,,1.6362,518.5467556,None,None,1,518.5467556,None,,P050,FENCOG,2,Pre,2022_Jun_09_1044,N-Back (New Version 2021),2021.1.4,120.0419667
,,,,Conditions/Version_1/oneback(2)_v1.xlsx,New rule: Press 'space' when you see 1-back (i.e. the same letter as the one that appeared 1 letter ago.),Z,None,,,,,,,,,0,4,4,4,0,5,5,5,,,,,,,,,,,,,,,,,,,,,,,,,,,,,,,,,,,,,,,,,,,,,,,,,,,,,,,,,,,,,,,,,,,,,1.4502,522.0073903,None,None,1,522.0073903,None,,P050,FENCOG,2,Pre,2022_Jun_09_1044,N-Back (New Version 2021),2021.1.4,120.0419667
,,,,Conditions/Version_1/oneback(2)_v1.xlsx,New rule: Press 'space' when you see 1-back (i.e. the same letter as the one that appeared 1 letter ago.),c,None,,,,,,,,,0,4,4,4,0,6,6,6,,,,,,,,,,,,,,,,,,,,,,,,,,,,,,,,,,,,,,,,,,,,,,,,,,,,,,,,,,,,,,,,,,,,,1.9896,526.0054811,None,None,1,526.0054811,None,,P050,FENCOG,2,Pre,2022_Jun_09_1044,N-Back (New Version 2021),2021.1.4,120.0419667
,,,,Conditions/Version_1/oneback(2)_v1.xlsx,New rule: Press 'space' when you see 1-back (i.e. the same letter as the one that appeared 1 letter ago.),c,space,,,,,,,,,0,4,4,4,0,7,7,7,,,,,,,,,,,,,,,,,,,,,,,,,,,,,,,,,,,,,,,,,,,,,,,,,,,,,,,,,,,,,,,,,,,,,1.3138,529.3269857,None,space,1,529.3269857,None,0.5502913,P050,FENCOG,2,Pre,2022_Jun_09_1044,N-Back (New Version 2021),2021.1.4,120.0419667
,,,,Conditions/Version_1/oneback(2)_v1.xlsx,New rule: Press 'space' when you see 1-back (i.e. the same letter as the one that appeared 1 letter ago.),P,None,,,,,,,,,0,4,4,4,0,8,8,8,,,,,,,,,,,,,,,,,,,,,,,,,,,,,,,,,,,,,,,,,,,,,,,,,,,,,,,,,,,,,,,,,,,,,1.5742,532.9008363,None,None,1,532.9008363,None,,P050,FENCOG,2,Pre,2022_Jun_09_1044,N-Back (New Version 2021),2021.1.4,120.0419667
,,,,Conditions/Version_1/oneback(2)_v1.xlsx,New rule: Press 'space' when you see 1-back (i.e. the same letter as the one that appeared 1 letter ago.),p,space,,,,,,,,,0,4,4,4,0,9,9,9,,,,,,,,,,,,,,,,,,,,,,,,,,,,,,,,,,,,,,,,,,,,,,,,,,,,,,,,,,,,,,,,,,,,,1.1278,536.0329781,None,space,1,536.0329781,None,0.3563335,P050,FENCOG,2,Pre,2022_Jun_09_1044,N-Back (New Version 2021),2021.1.4,120.0419667
,,,,Conditions/Version_1/oneback(2)_v1.xlsx,New rule: Press 'space' when you see 1-back (i.e. the same letter as the one that appeared 1 letter ago.),,,,,,,,,,,0,4,4,4,,,,,,,,,,,,,,,,,,,,,,,,,,,,,,,,,,,,,,,,,,,,,,,,,,,,,,,,,,,,,,,,,,,,,,,,,,,,,,,,,P050,FENCOG,2,Pre,2022_Jun_09_1044,N-Back (New Version 2021),2021.1.4,120.0419667
,,,,Conditions/Version_1/zeroback(2)_v1.xlsx,New rule: Press 'space' when you see the letter 'x' or 'X'.,p,None,,,,,,,,,0,5,5,5,0,0,0,0,,,,,,,,,,,,,,,,,,,,,,,,,,,,,,,,,,,,,,,,,,,,,,,,,,,,,,,,,,,538.0537517,None,541.041347,None,space,0.8269745,541.041347,None,538.0537517,None,1.7106,543.6161321,None,space,0,543.6161321,None,0.5241431,P050,FENCOG,2,Pre,2022_Jun_09_1044,N-Back (New Version 2021),2021.1.4,120.0419667
,,,,Conditions/Version_1/zeroback(2)_v1.xlsx,New rule: Press 'space' when you see the letter 'x' or 'X'.,L,None,,,,,,,,,0,5,5,5,0,1,1,1,,,,,,,,,,,,,,,,,,,,,,,,,,,,,,,,,,,,,,,,,,,,,,,,,,,,,,,,,,,,,,,,,,,,,1.9152,547.5483883,None,None,1,547.5483883,None,,P050,FENCOG,2,Pre,2022_Jun_09_1044,N-Back (New Version 2021),2021.1.4,120.0419667
,,,,Conditions/Version_1/zeroback(2)_v1.xlsx,New rule: Press 'space' when you see the letter 'x' or 'X'.,G,None,,,,,,,,,0,5,5,5,0,2,2,2,,,,,,,,,,,,,,,,,,,,,,,,,,,,,,,,,,,,,,,,,,,,,,,,,,,,,,,,,,,,,,,,,,,,,1.2394,550.7963677,None,None,1,550.7963677,None,,P050,FENCOG,2,Pre,2022_Jun_09_1044,N-Back (New Version 2021),2021.1.4,120.0419667
,,,,Conditions/Version_1/zeroback(2)_v1.xlsx,New rule: Press 'space' when you see the letter 'x' or 'X'.,y,None,,,,,,,,,0,5,5,5,0,3,3,3,,,,,,,,,,,,,,,,,,,,,,,,,,,,,,,,,,,,,,,,,,,,,,,,,,,,,,,,,,,,,,,,,,,,,1.6858,554.4942121,None,None,1,554.4942121,None,,P050,FENCOG,2,Pre,2022_Jun_09_1044,N-Back (New Version 2021),2021.1.4,120.0419667
,,,,Conditions/Version_1/zeroback(2)_v1.xlsx,New rule: Press 'space' when you see the letter 'x' or 'X'.,Y,None,,,,,,,,,0,5,5,5,0,4,4,4,,,,,,,,,,,,,,,,,,,,,,,,,,,,,,,,,,,,,,,,,,,,,,,,,,,,,,,,,,,,,,,,,,,,,1.7602,558.2597452,None,None,1,558.2597452,None,,P050,FENCOG,2,Pre,2022_Jun_09_1044,N-Back (New Version 2021),2021.1.4,120.0419667
,,,,Conditions/Version_1/zeroback(2)_v1.xlsx,New rule: Press 'space' when you see the letter 'x' or 'X'.,W,None,,,,,,,,,0,5,5,5,0,5,5,5,,,,,,,,,,,,,,,,,,,,,,,,,,,,,,,,,,,,,,,,,,,,,,,,,,,,,,,,,,,,,,,,,,,,,1.2704,561.5343335,None,None,1,561.5343335,None,,P050,FENCOG,2,Pre,2022_Jun_09_1044,N-Back (New Version 2021),2021.1.4,120.0419667
,,,,Conditions/Version_1/zeroback(2)_v1.xlsx,New rule: Press 'space' when you see the letter 'x' or 'X'.,x,space,,,,,,,,,0,5,5,5,0,6,6,6,,,,,,,,,,,,,,,,,,,,,,,,,,,,,,,,,,,,,,,,,,,,,,,,,,,,,,,,,,,,,,,,,,,,,1.32,564.8662034,None,space,1,564.8662034,None,0.4100788,P050,FENCOG,2,Pre,2022_Jun_09_1044,N-Back (New Version 2021),2021.1.4,120.0419667
,,,,Conditions/Version_1/zeroback(2)_v1.xlsx,New rule: Press 'space' when you see the letter 'x' or 'X'.,X,space,,,,,,,,,0,5,5,5,0,7,7,7,,,,,,,,,,,,,,,,,,,,,,,,,,,,,,,,,,,,,,,,,,,,,,,,,,,,,,,,,,,,,,,,,,,,,1.7168,568.582579,None,space,1,568.582579,None,0.3897911,P050,FENCOG,2,Pre,2022_Jun_09_1044,N-Back (New Version 2021),2021.1.4,120.0419667
,,,,Conditions/Version_1/zeroback(2)_v1.xlsx,New rule: Press 'space' when you see the letter 'x' or 'X'.,p,None,,,,,,,,,0,5,5,5,0,8,8,8,,,,,,,,,,,,,,,,,,,,,,,,,,,,,,,,,,,,,,,,,,,,,,,,,,,,,,,,,,,,,,,,,,,,,1.258,571.8474278,None,None,1,571.8474278,None,,P050,FENCOG,2,Pre,2022_Jun_09_1044,N-Back (New Version 2021),2021.1.4,120.0419667
,,,,Conditions/Version_1/zeroback(2)_v1.xlsx,New rule: Press 'space' when you see the letter 'x' or 'X'.,h,None,,,,,,,,,0,5,5,5,0,9,9,9,,,,,,,,,,,,,,,,,,,,,,,,,,,,,,,,,,,,,,,,,,,,,,,,,,,,,,,,,,,,,,,,,,,,,1.8098,575.6632095,None,None,1,575.6632095,None,,P050,FENCOG,2,Pre,2022_Jun_09_1044,N-Back (New Version 2021),2021.1.4,120.0419667
,,,,Conditions/Version_1/zeroback(2)_v1.xlsx,New rule: Press 'space' when you see the letter 'x' or 'X'.,,,,,,,,,,,0,5,5,5,,,,,,,,,,,,,,,,,,,,,,,,,,,,,,,,,,,,,,,,,,,,,,,,,,,,,,,,,,,,,,,,,,,,,,,,,,,,,,,,,P050,FENCOG,2,Pre,2022_Jun_09_1044,N-Back (New Version 2021),2021.1.4,120.0419667
,,,,Conditions/Version_1/threeback(2)_v1.xlsx,New rule: Press 'space' when you see 3-back (i.e. the same letter as the one that appeared 3 letters ago.),q,None,,,,,,,,,0,6,6,6,0,0,0,0,,,,,,,,,,,,,,,,,,,,,,,,,,,,,,,,,,,,,,,,,,,,,,,,,,,,,,,,,,,577.6851666,None,580.6723379,None,space,7.6040025,580.6723379,None,577.6851666,None,1.7602,590.0682196,None,None,1,590.0682196,None,,P050,FENCOG,2,Pre,2022_Jun_09_1044,N-Back (New Version 2021),2021.1.4,120.0419667
,,,,Conditions/Version_1/threeback(2)_v1.xlsx,New rule: Press 'space' when you see 3-back (i.e. the same letter as the one that appeared 3 letters ago.),Y,None,,,,,,,,,0,6,6,6,0,1,1,1,,,,,,,,,,,,,,,,,,,,,,,,,,,,,,,,,,,,,,,,,,,,,,,,,,,,,,,,,,,,,,,,,,,,,1.0596,593.1441279,None,None,1,593.1441279,None,,P050,FENCOG,2,Pre,2022_Jun_09_1044,N-Back (New Version 2021),2021.1.4,120.0419667
,,,,Conditions/Version_1/threeback(2)_v1.xlsx,New rule: Press 'space' when you see 3-back (i.e. the same letter as the one that appeared 3 letters ago.),p,None,,,,,,,,,0,6,6,6,0,2,2,2,,,,,,,,,,,,,,,,,,,,,,,,,,,,,,,,,,,,,,,,,,,,,,,,,,,,,,,,,,,,,,,,,,,,,1.0968,596.2488423,None,None,1,596.2488423,None,,P050,FENCOG,2,Pre,2022_Jun_09_1044,N-Back (New Version 2021),2021.1.4,120.0419667
,,,,Conditions/Version_1/threeback(2)_v1.xlsx,New rule: Press 'space' when you see 3-back (i.e. the same letter as the one that appeared 3 letters ago.),p,None,,,,,,,,,0,6,6,6,0,3,3,3,,,,,,,,,,,,,,,,,,,,,,,,,,,,,,,,,,,,,,,,,,,,,,,,,,,,,,,,,,,,,,,,,,,,,1.9834,600.231247,None,None,1,600.231247,None,,P050,FENCOG,2,Pre,2022_Jun_09_1044,N-Back (New Version 2021),2021.1.4,120.0419667
,,,,Conditions/Version_1/threeback(2)_v1.xlsx,New rule: Press 'space' when you see 3-back (i.e. the same letter as the one that appeared 3 letters ago.),y,space,,,,,,,,,0,6,6,6,0,4,4,4,,,,,,,,,,,,,,,,,,,,,,,,,,,,,,,,,,,,,,,,,,,,,,,,,,,,,,,,,,,,,,,,,,,,,1.4502,603.6799247,None,space,1,603.6799247,None,1.1245507,P050,FENCOG,2,Pre,2022_Jun_09_1044,N-Back (New Version 2021),2021.1.4,120.0419667
,,,,Conditions/Version_1/threeback(2)_v1.xlsx,New rule: Press 'space' when you see 3-back (i.e. the same letter as the one that appeared 3 letters ago.),u,None,,,,,,,,,0,6,6,6,0,5,5,5,,,,,,,,,,,,,,,,,,,,,,,,,,,,,,,,,,,,,,,,,,,,,,,,,,,,,,,,,,,,,,,,,,,,,1.9338,607.6120242,None,None,1,607.6120242,None,,P050,FENCOG,2,Pre,2022_Jun_09_1044,N-Back (New Version 2021),2021.1.4,120.0419667
,,,,Conditions/Version_1/threeback(2)_v1.xlsx,New rule: Press 'space' when you see 3-back (i.e. the same letter as the one that appeared 3 letters ago.),P,space,,,,,,,,,0,6,6,6,0,6,6,6,,,,,,,,,,,,,,,,,,,,,,,,,,,,,,,,,,,,,,,,,,,,,,,,,,,,,,,,,,,,,,,,,,,,,1.7168,611.3295289,None,space,1,611.3295289,None,0.8027808,P050,FENCOG,2,Pre,2022_Jun_09_1044,N-Back (New Version 2021),2021.1.4,120.0419667
,,,,Conditions/Version_1/threeback(2)_v1.xlsx,New rule: Press 'space' when you see 3-back (i.e. the same letter as the one that appeared 3 letters ago.),a,None,,,,,,,,,0,6,6,6,0,7,7,7,,,,,,,,,,,,,,,,,,,,,,,,,,,,,,,,,,,,,,,,,,,,,,,,,,,,,,,,,,,,,,,,,,,,,1.0286,614.3705092,None,None,1,614.3705092,None,,P050,FENCOG,2,Pre,2022_Jun_09_1044,N-Back (New Version 2021),2021.1.4,120.0419667
,,,,Conditions/Version_1/threeback(2)_v1.xlsx,New rule: Press 'space' when you see 3-back (i.e. the same letter as the one that appeared 3 letters ago.),U,space,,,,,,,,,0,6,6,6,0,8,8,8,,,,,,,,,,,,,,,,,,,,,,,,,,,,,,,,,,,,,,,,,,,,,,,,,,,,,,,,,,,,,,,,,,,,,1.1898,617.568609,None,space,1,617.568609,None,0.7638417,P050,FENCOG,2,Pre,2022_Jun_09_1044,N-Back (New Version 2021),2021.1.4,120.0419667
,,,,Conditions/Version_1/threeback(2)_v1.xlsx,New rule: Press 'space' when you see 3-back (i.e. the same letter as the one that appeared 3 letters ago.),q,None,,,,,,,,,0,6,6,6,0,9,9,9,,,,,,,,,,,,,,,,,,,,,,,,,,,,,,,,,,,,,,,,,,,,,,,,,,,,,,,,,,,,,,,,,,,,,1.2456,620.8268857,None,None,1,620.8268857,None,,P050,FENCOG,2,Pre,2022_Jun_09_1044,N-Back (New Version 2021),2021.1.4,120.0419667
,,,,Conditions/Version_1/threeback(2)_v1.xlsx,New rule: Press 'space' when you see 3-back (i.e. the same letter as the one that appeared 3 letters ago.),,,,,,,,,,,0,6,6,6,,,,,,,,,,,,,,,,,,,,,,,,,,,,,,,,,,,,,,,,,,,,,,,,,,,,,,,,,,,,,,,,,,,,,,,,,,,,,,,,,P050,FENCOG,2,Pre,2022_Jun_09_1044,N-Back (New Version 2021),2021.1.4,120.0419667
,,,,Conditions/Version_1/twoback(2)_v1.xlsx,New rule: Press 'space' when you see 2-back (i.e. the same letter as the one that appeared 2 letters ago.),q,None,,,,,,,,,0,7,7,7,0,0,0,0,,,,,,,,,,,,,,,,,,,,,,,,,,,,,,,,,,,,,,,,,,,,,,,,,,,,,,,,,,,622.8582011,None,625.8415223,None,space,3.0588439,625.8415223,None,622.8582011,None,1.6858,630.6221269,None,None,1,630.6221269,None,,P050,FENCOG,2,Pre,2022_Jun_09_1044,N-Back (New Version 2021),2021.1.4,120.0419667
,,,,Conditions/Version_1/twoback(2)_v1.xlsx,New rule: Press 'space' when you see 2-back (i.e. the same letter as the one that appeared 2 letters ago.),r,None,,,,,,,,,0,7,7,7,0,1,1,1,,,,,,,,,,,,,,,,,,,,,,,,,,,,,,,,,,,,,,,,,,,,,,,,,,,,,,,,,,,,,,,,,,,,,1.506,634.1291876,None,None,1,634.1291876,None,,P050,FENCOG,2,Pre,2022_Jun_09_1044,N-Back (New Version 2021),2021.1.4,120.0419667
,,,,Conditions/Version_1/twoback(2)_v1.xlsx,New rule: Press 'space' when you see 2-back (i.e. the same letter as the one that appeared 2 letters ago.),q,space,,,,,,,,,0,7,7,7,0,2,2,2,,,,,,,,,,,,,,,,,,,,,,,,,,,,,,,,,,,,,,,,,,,,,,,,,,,,,,,,,,,,,,,,,,,,,1.1774,637.3114039,None,space,1,637.3114039,None,0.4853965,P050,FENCOG,2,Pre,2022_Jun_09_1044,N-Back (New Version 2021),2021.1.4,120.0419667
,,,,Conditions/Version_1/twoback(2)_v1.xlsx,New rule: Press 'space' when you see 2-back (i.e. the same letter as the one that appeared 2 letters ago.),P,None,,,,,,,,,0,7,7,7,0,3,3,3,,,,,,,,,,,,,,,,,,,,,,,,,,,,,,,,,,,,,,,,,,,,,,,,,,,,,,,,,,,,,,,,,,,,,1.2642,640.5773312,None,None,1,640.5773312,None,,P050,FENCOG,2,Pre,2022_Jun_09_1044,N-Back (New Version 2021),2021.1.4,120.0419667
,,,,Conditions/Version_1/twoback(2)_v1.xlsx,New rule: Press 'space' when you see 2-back (i.e. the same letter as the one that appeared 2 letters ago.),p,None,,,,,,,,,0,7,7,7,0,4,4,4,,,,,,,,,,,,,,,,,,,,,,,,,,,,,,,,,,,,,,,,,,,,,,,,,,,,,,,,,,,,,,,,,,,,,1.6238,644.2012217,None,space,0,644.2012217,None,0.5793062,P050,FENCOG,2,Pre,2022_Jun_09_1044,N-Back (New Version 2021),2021.1.4,120.0419667
,,,,Conditions/Version_1/twoback(2)_v1.xlsx,New rule: Press 'space' when you see 2-back (i.e. the same letter as the one that appeared 2 letters ago.),H,None,,,,,,,,,0,7,7,7,0,5,5,5,,,,,,,,,,,,,,,,,,,,,,,,,,,,,,,,,,,,,,,,,,,,,,,,,,,,,,,,,,,,,,,,,,,,,1.444,647.6536602,None,None,1,647.6536602,None,,P050,FENCOG,2,Pre,2022_Jun_09_1044,N-Back (New Version 2021),2021.1.4,120.0419667
,,,,Conditions/Version_1/twoback(2)_v1.xlsx,New rule: Press 'space' when you see 2-back (i.e. the same letter as the one that appeared 2 letters ago.),g,None,,,,,,,,,0,7,7,7,0,6,6,6,,,,,,,,,,,,,,,,,,,,,,,,,,,,,,,,,,,,,,,,,,,,,,,,,,,,,,,,,,,,,,,,,,,,,1.8904,651.551168,None,None,1,651.551168,None,,P050,FENCOG,2,Pre,2022_Jun_09_1044,N-Back (New Version 2021),2021.1.4,120.0419667
,,,,Conditions/Version_1/twoback(2)_v1.xlsx,New rule: Press 'space' when you see 2-back (i.e. the same letter as the one that appeared 2 letters ago.),j,None,,,,,,,,,0,7,7,7,0,7,7,7,,,,,,,,,,,,,,,,,,,,,,,,,,,,,,,,,,,,,,,,,,,,,,,,,,,,,,,,,,,,,,,,,,,,,1.6672,655.2354099,None,None,1,655.2354099,None,,P050,FENCOG,2,Pre,2022_Jun_09_1044,N-Back (New Version 2021),2021.1.4,120.0419667
,,,,Conditions/Version_1/twoback(2)_v1.xlsx,New rule: Press 'space' when you see 2-back (i.e. the same letter as the one that appeared 2 letters ago.),g,space,,,,,,,,,0,7,7,7,0,8,8,8,,,,,,,,,,,,,,,,,,,,,,,,,,,,,,,,,,,,,,,,,,,,,,,,,,,,,,,,,,,,,,,,,,,,,1.9958,659.2386749,None,space,1,659.2386749,None,0.3897876,P050,FENCOG,2,Pre,2022_Jun_09_1044,N-Back (New Version 2021),2021.1.4,120.0419667
,,,,Conditions/Version_1/twoback(2)_v1.xlsx,New rule: Press 'space' when you see 2-back (i.e. the same letter as the one that appeared 2 letters ago.),G,None,,,,,,,,,0,7,7,7,0,9,9,9,,,,,,,,,,,,,,,,,,,,,,,,,,,,,,,,,,,,,,,,,,,,,,,,,,,,,,,,,,,,,,,,,,,,,1.8718,663.1164253,None,None,1,663.1164253,None,,P050,FENCOG,2,Pre,2022_Jun_09_1044,N-Back (New Version 2021),2021.1.4,120.0419667
,,,,Conditions/Version_1/twoback(2)_v1.xlsx,New rule: Press 'space' when you see 2-back (i.e. the same letter as the one that appeared 2 letters ago.),,,,,,,,,,,0,7,7,7,,,,,,,,,,,,,,,,,,,,,,,,,,,,,,,,,,,,,,,,,,,,,,,,,,,,,,,,,,,,,,,,,,,,,,,,,,,,,,,,,P050,FENCOG,2,Pre,2022_Jun_09_1044,N-Back (New Version 2021),2021.1.4,120.0419667
,,,,Conditions/Version_1/threeback(3)_v1.xlsx,New rule: Press 'space' when you see 3-back (i.e. the same letter as the one that appeared 3 letters ago.),w,None,,,,,,,,,0,8,8,8,0,0,0,0,,,,,,,,,,,,,,,,,,,,,,,,,,,,,,,,,,,,,,,,,,,,,,,,,,,,,,,,,,,665.1522998,None,668.1381613,None,space,1.8821814,668.1381613,None,665.1522998,None,1.8842,671.9442885,None,None,1,671.9442885,None,,P050,FENCOG,2,Pre,2022_Jun_09_1044,N-Back (New Version 2021),2021.1.4,120.0419667
,,,,Conditions/Version_1/threeback(3)_v1.xlsx,New rule: Press 'space' when you see 3-back (i.e. the same letter as the one that appeared 3 letters ago.),p,None,,,,,,,,,0,8,8,8,0,1,1,1,,,,,,,,,,,,,,,,,,,,,,,,,,,,,,,,,,,,,,,,,,,,,,,,,,,,,,,,,,,,,,,,,,,,,1.4874,675.4421968,None,None,1,675.4421968,None,,P050,FENCOG,2,Pre,2022_Jun_09_1044,N-Back (New Version 2021),2021.1.4,120.0419667
,,,,Conditions/Version_1/threeback(3)_v1.xlsx,New rule: Press 'space' when you see 3-back (i.e. the same letter as the one that appeared 3 letters ago.),P,None,,,,,,,,,0,8,8,8,0,2,2,2,,,,,,,,,,,,,,,,,,,,,,,,,,,,,,,,,,,,,,,,,,,,,,,,,,,,,,,,,,,,,,,,,,,,,1.4502,678.8910824,None,None,1,678.8910824,None,,P050,FENCOG,2,Pre,2022_Jun_09_1044,N-Back (New Version 2021),2021.1.4,120.0419667
,,,,Conditions/Version_1/threeback(3)_v1.xlsx,New rule: Press 'space' when you see 3-back (i.e. the same letter as the one that appeared 3 letters ago.),i,None,,,,,,,,,0,8,8,8,0,3,3,3,,,,,,,,,,,,,,,,,,,,,,,,,,,,,,,,,,,,,,,,,,,,,,,,,,,,,,,,,,,,,,,,,,,,,1.909,682.8075666,None,None,1,682.8075666,None,,P050,FENCOG,2,Pre,2022_Jun_09_1044,N-Back (New Version 2021),2021.1.4,120.0419667
,,,,Conditions/Version_1/threeback(3)_v1.xlsx,New rule: Press 'space' when you see 3-back (i.e. the same letter as the one that appeared 3 letters ago.),f,None,,,,,,,,,0,8,8,8,0,4,4,4,,,,,,,,,,,,,,,,,,,,,,,,,,,,,,,,,,,,,,,,,,,,,,,,,,,,,,,,,,,,,,,,,,,,,1.1526,685.9722592,None,None,1,685.9722592,None,,P050,FENCOG,2,Pre,2022_Jun_09_1044,N-Back (New Version 2021),2021.1.4,120.0419667
,,,,Conditions/Version_1/threeback(3)_v1.xlsx,New rule: Press 'space' when you see 3-back (i.e. the same letter as the one that appeared 3 letters ago.),o,None,,,,,,,,,0,8,8,8,0,5,5,5,,,,,,,,,,,,,,,,,,,,,,,,,,,,,,,,,,,,,,,,,,,,,,,,,,,,,,,,,,,,,,,,,,,,,1.4626,689.440746,None,None,1,689.440746,None,,P050,FENCOG,2,Pre,2022_Jun_09_1044,N-Back (New Version 2021),2021.1.4,120.0419667
,,,,Conditions/Version_1/threeback(3)_v1.xlsx,New rule: Press 'space' when you see 3-back (i.e. the same letter as the one that appeared 3 letters ago.),w,None,,,,,,,,,0,8,8,8,0,6,6,6,,,,,,,,,,,,,,,,,,,,,,,,,,,,,,,,,,,,,,,,,,,,,,,,,,,,,,,,,,,,,,,,,,,,,1.6486,693.1029213,None,None,1,693.1029213,None,,P050,FENCOG,2,Pre,2022_Jun_09_1044,N-Back (New Version 2021),2021.1.4,120.0419667
,,,,Conditions/Version_1/threeback(3)_v1.xlsx,New rule: Press 'space' when you see 3-back (i.e. the same letter as the one that appeared 3 letters ago.),F,space,,,,,,,,,0,8,8,8,0,7,7,7,,,,,,,,,,,,,,,,,,,,,,,,,,,,,,,,,,,,,,,,,,,,,,,,,,,,,,,,,,,,,,,,,,,,,1.3882,696.4953966,None,space,1,696.4953966,None,0.5888171,P050,FENCOG,2,Pre,2022_Jun_09_1044,N-Back (New Version 2021),2021.1.4,120.0419667
,,,,Conditions/Version_1/threeback(3)_v1.xlsx,New rule: Press 'space' when you see 3-back (i.e. the same letter as the one that appeared 3 letters ago.),p,None,,,,,,,,,0,8,8,8,0,8,8,8,,,,,,,,,,,,,,,,,,,,,,,,,,,,,,,,,,,,,,,,,,,,,,,,,,,,,,,,,,,,,,,,,,,,,1.3076,699.8099713,None,None,1,699.8099713,None,,P050,FENCOG,2,Pre,2022_Jun_09_1044,N-Back (New Version 2021),2021.1.4,120.0419667
,,,,Conditions/Version_1/threeback(3)_v1.xlsx,New rule: Press 'space' when you see 3-back (i.e. the same letter as the one that appeared 3 letters ago.),W,space,,,,,,,,,0,8,8,8,0,9,9,9,,,,,,,,,,,,,,,,,,,,,,,,,,,,,,,,,,,,,,,,,,,,,,,,,,,,,,,,,,,,,,,,,,,,,1.3386,703.1507481,None,space,1,703.1507481,None,0.7496304,P050,FENCOG,2,Pre,2022_Jun_09_1044,N-Back (New Version 2021),2021.1.4,120.0419667
,,,,Conditions/Version_1/threeback(3)_v1.xlsx,New rule: Press 'space' when you see 3-back (i.e. the same letter as the one that appeared 3 letters ago.),,,,,,,,,,,0,8,8,8,,,,,,,,,,,,,,,,,,,,,,,,,,,,,,,,,,,,,,,,,,,,,,,,,,,,,,,,,,,,,,,,,,,,,,,,,,,,,,,,,P050,FENCOG,2,Pre,2022_Jun_09_1044,N-Back (New Version 2021),2021.1.4,120.0419667
,,,,Conditions/Version_1/zeroback(3)_v1.xlsx,New rule: Press 'space' when you see the letter 'x' or 'X'.,X,space,,,,,,,,,0,9,9,9,0,0,0,0,,,,,,,,,,,,,,,,,,,,,,,,,,,,,,,,,,,,,,,,,,,,,,,,,,,,,,,,,,,705.1716317,None,708.1600048,None,space,1.0204534,708.1600048,None,705.1716317,None,1.289,710.4983783,None,space,1,710.4983783,None,0.4745549,P050,FENCOG,2,Pre,2022_Jun_09_1044,N-Back (New Version 2021),2021.1.4,120.0419667
,,,,Conditions/Version_1/zeroback(3)_v1.xlsx,New rule: Press 'space' when you see the letter 'x' or 'X'.,B,None,,,,,,,,,0,9,9,9,0,1,1,1,,,,,,,,,,,,,,,,,,,,,,,,,,,,,,,,,,,,,,,,,,,,,,,,,,,,,,,,,,,,,,,,,,,,,1.754,714.2662963,None,None,1,714.2662963,None,,P050,FENCOG,2,Pre,2022_Jun_09_1044,N-Back (New Version 2021),2021.1.4,120.0419667
,,,,Conditions/Version_1/zeroback(3)_v1.xlsx,New rule: Press 'space' when you see the letter 'x' or 'X'.,m,None,,,,,,,,,0,9,9,9,0,2,2,2,,,,,,,,,,,,,,,,,,,,,,,,,,,,,,,,,,,,,,,,,,,,,,,,,,,,,,,,,,,,,,,,,,,,,1.6362,717.90447,None,None,1,717.90447,None,,P050,FENCOG,2,Pre,2022_Jun_09_1044,N-Back (New Version 2021),2021.1.4,120.0419667
,,,,Conditions/Version_1/zeroback(3)_v1.xlsx,New rule: Press 'space' when you see the letter 'x' or 'X'.,m,None,,,,,,,,,0,9,9,9,0,3,3,3,,,,,,,,,,,,,,,,,,,,,,,,,,,,,,,,,,,,,,,,,,,,,,,,,,,,,,,,,,,,,,,,,,,,,1.196,721.1037967,None,None,1,721.1037967,None,,P050,FENCOG,2,Pre,2022_Jun_09_1044,N-Back (New Version 2021),2021.1.4,120.0419667
,,,,Conditions/Version_1/zeroback(3)_v1.xlsx,New rule: Press 'space' when you see the letter 'x' or 'X'.,o,None,,,,,,,,,0,9,9,9,0,4,4,4,,,,,,,,,,,,,,,,,,,,,,,,,,,,,,,,,,,,,,,,,,,,,,,,,,,,,,,,,,,,,,,,,,,,,1.8408,724.9526266,None,None,1,724.9526266,None,,P050,FENCOG,2,Pre,2022_Jun_09_1044,N-Back (New Version 2021),2021.1.4,120.0419667
,,,,Conditions/Version_1/zeroback(3)_v1.xlsx,New rule: Press 'space' when you see the letter 'x' or 'X'.,p,None,,,,,,,,,0,9,9,9,0,5,5,5,,,,,,,,,,,,,,,,,,,,,,,,,,,,,,,,,,,,,,,,,,,,,,,,,,,,,,,,,,,,,,,,,,,,,1.6052,728.5595569,None,None,1,728.5595569,None,,P050,FENCOG,2,Pre,2022_Jun_09_1044,N-Back (New Version 2021),2021.1.4,120.0419667
,,,,Conditions/Version_1/zeroback(3)_v1.xlsx,New rule: Press 'space' when you see the letter 'x' or 'X'.,G,None,,,,,,,,,0,9,9,9,0,6,6,6,,,,,,,,,,,,,,,,,,,,,,,,,,,,,,,,,,,,,,,,,,,,,,,,,,,,,,,,,,,,,,,,,,,,,1.134,731.7032336,None,None,1,731.7032336,None,,P050,FENCOG,2,Pre,2022_Jun_09_1044,N-Back (New Version 2021),2021.1.4,120.0419667
,,,,Conditions/Version_1/zeroback(3)_v1.xlsx,New rule: Press 'space' when you see the letter 'x' or 'X'.,X,space,,,,,,,,,0,9,9,9,0,7,7,7,,,,,,,,,,,,,,,,,,,,,,,,,,,,,,,,,,,,,,,,,,,,,,,,,,,,,,,,,,,,,,,,,,,,,1.6982,735.4076575,None,space,1,735.4076575,None,0.3648323,P050,FENCOG,2,Pre,2022_Jun_09_1044,N-Back (New Version 2021),2021.1.4,120.0419667
,,,,Conditions/Version_1/zeroback(3)_v1.xlsx,New rule: Press 'space' when you see the letter 'x' or 'X'.,p,None,,,,,,,,,0,9,9,9,0,8,8,8,,,,,,,,,,,,,,,,,,,,,,,,,,,,,,,,,,,,,,,,,,,,,,,,,,,,,,,,,,,,,,,,,,,,,1.7974,739.213142,None,None,1,739.213142,None,,P050,FENCOG,2,Pre,2022_Jun_09_1044,N-Back (New Version 2021),2021.1.4,120.0419667
,,,,Conditions/Version_1/zeroback(3)_v1.xlsx,New rule: Press 'space' when you see the letter 'x' or 'X'.,x,space,,,,,,,,,0,9,9,9,0,9,9,9,,,,,,,,,,,,,,,,,,,,,,,,,,,,,,,,,,,,,,,,,,,,,,,,,,,,,,,,,,,,,,,,,,,,,1.2952,742.5138345,None,space,1,742.5138345,None,0.3947457,P050,FENCOG,2,Pre,2022_Jun_09_1044,N-Back (New Version 2021),2021.1.4,120.0419667
,,,,Conditions/Version_1/zeroback(3)_v1.xlsx,New rule: Press 'space' when you see the letter 'x' or 'X'.,,,,,,,,,,,0,9,9,9,,,,,,,,,,,,,,,,,,,,,,,,,,,,,,,,,,,,,,,,,,,,,,,,,,,,,,,,,,,,,,,,,,,,,,,,,,,,,,,,,P050,FENCOG,2,Pre,2022_Jun_09_1044,N-Back (New Version 2021),2021.1.4,120.0419667
,,,,Conditions/Version_1/twoback(3)_v1.xlsx,New rule: Press 'space' when you see 2-back (i.e. the same letter as the one that appeared 2 letters ago.),e,None,,,,,,,,,0,10,10,10,0,0,0,0,,,,,,,,,,,,,,,,,,,,,,,,,,,,,,,,,,,,,,,,,,,,,,,,,,,,,,,,,,,744.5354367,None,747.5232935,None,space,0.9932676,747.5232935,None,744.5354367,None,1.5184,750.0701468,None,None,1,750.0701468,None,,P050,FENCOG,2,Pre,2022_Jun_09_1044,N-Back (New Version 2021),2021.1.4,120.0419667
,,,,Conditions/Version_1/twoback(3)_v1.xlsx,New rule: Press 'space' when you see 2-back (i.e. the same letter as the one that appeared 2 letters ago.),o,None,,,,,,,,,0,10,10,10,0,1,1,1,,,,,,,,,,,,,,,,,,,,,,,,,,,,,,,,,,,,,,,,,,,,,,,,,,,,,,,,,,,,,,,,,,,,,1.3758,753.4600358,None,None,1,753.4600358,None,,P050,FENCOG,2,Pre,2022_Jun_09_1044,N-Back (New Version 2021),2021.1.4,120.0419667
,,,,Conditions/Version_1/twoback(3)_v1.xlsx,New rule: Press 'space' when you see 2-back (i.e. the same letter as the one that appeared 2 letters ago.),P,None,,,,,,,,,0,10,10,10,0,2,2,2,,,,,,,,,,,,,,,,,,,,,,,,,,,,,,,,,,,,,,,,,,,,,,,,,,,,,,,,,,,,,,,,,,,,,1.1836,756.6491779,None,None,1,756.6491779,None,,P050,FENCOG,2,Pre,2022_Jun_09_1044,N-Back (New Version 2021),2021.1.4,120.0419667
,,,,Conditions/Version_1/twoback(3)_v1.xlsx,New rule: Press 'space' when you see 2-back (i.e. the same letter as the one that appeared 2 letters ago.),z,None,,,,,,,,,0,10,10,10,0,3,3,3,,,,,,,,,,,,,,,,,,,,,,,,,,,,,,,,,,,,,,,,,,,,,,,,,,,,,,,,,,,,,,,,,,,,,1.1774,759.836659,None,None,1,759.836659,None,,P050,FENCOG,2,Pre,2022_Jun_09_1044,N-Back (New Version 2021),2021.1.4,120.0419667
,,,,Conditions/Version_1/twoback(3)_v1.xlsx,New rule: Press 'space' when you see 2-back (i.e. the same letter as the one that appeared 2 letters ago.),X,None,,,,,,,,,0,10,10,10,0,4,4,4,,,,,,,,,,,,,,,,,,,,,,,,,,,,,,,,,,,,,,,,,,,,,,,,,,,,,,,,,,,,,,,,,,,,,1.599,763.4423742,None,None,1,763.4423742,None,,P050,FENCOG,2,Pre,2022_Jun_09_1044,N-Back (New Version 2021),2021.1.4,120.0419667
,,,,Conditions/Version_1/twoback(3)_v1.xlsx,New rule: Press 'space' when you see 2-back (i.e. the same letter as the one that appeared 2 letters ago.),z,space,,,,,,,,,0,10,10,10,0,5,5,5,,,,,,,,,,,,,,,,,,,,,,,,,,,,,,,,,,,,,,,,,,,,,,,,,,,,,,,,,,,,,,,,,,,,,1.8718,767.3232864,None,space,1,767.3232864,None,0.4253301,P050,FENCOG,2,Pre,2022_Jun_09_1044,N-Back (New Version 2021),2021.1.4,120.0419667
,,,,Conditions/Version_1/twoback(3)_v1.xlsx,New rule: Press 'space' when you see 2-back (i.e. the same letter as the one that appeared 2 letters ago.),x,space,,,,,,,,,0,10,10,10,0,6,6,6,,,,,,,,,,,,,,,,,,,,,,,,,,,,,,,,,,,,,,,,,,,,,,,,,,,,,,,,,,,,,,,,,,,,,1.7664,771.088862,None,space,1,771.088862,None,0.4757485,P050,FENCOG,2,Pre,2022_Jun_09_1044,N-Back (New Version 2021),2021.1.4,120.0419667
,,,,Conditions/Version_1/twoback(3)_v1.xlsx,New rule: Press 'space' when you see 2-back (i.e. the same letter as the one that appeared 2 letters ago.),c,None,,,,,,,,,0,10,10,10,0,7,7,7,,,,,,,,,,,,,,,,,,,,,,,,,,,,,,,,,,,,,,,,,,,,,,,,,,,,,,,,,,,,,,,,,,,,,1.5556,774.6462031,None,None,1,774.6462031,None,,P050,FENCOG,2,Pre,2022_Jun_09_1044,N-Back (New Version 2021),2021.1.4,120.0419667
,,,,Conditions/Version_1/twoback(3)_v1.xlsx,New rule: Press 'space' when you see 2-back (i.e. the same letter as the one that appeared 2 letters ago.),i,None,,,,,,,,,0,10,10,10,0,8,8,8,,,,,,,,,,,,,,,,,,,,,,,,,,,,,,,,,,,,,,,,,,,,,,,,,,,,,,,,,,,,,,,,,,,,,1.6858,778.3366898,None,None,1,778.3366898,None,,P050,FENCOG,2,Pre,2022_Jun_09_1044,N-Back (New Version 2021),2021.1.4,120.0419667
,,,,Conditions/Version_1/twoback(3)_v1.xlsx,New rule: Press 'space' when you see 2-back (i.e. the same letter as the one that appeared 2 letters ago.),C,space,,,,,,,,,0,10,10,10,0,9,9,9,,,,,,,,,,,,,,,,,,,,,,,,,,,,,,,,,,,,,,,,,,,,,,,,,,,,,,,,,,,,,,,,,,,,,1.661,782.0039755,None,space,1,782.0039755,None,0.3203636,P050,FENCOG,2,Pre,2022_Jun_09_1044,N-Back (New Version 2021),2021.1.4,120.0419667
,,,,Conditions/Version_1/twoback(3)_v1.xlsx,New rule: Press 'space' when you see 2-back (i.e. the same letter as the one that appeared 2 letters ago.),,,,,,,,,,,0,10,10,10,,,,,,,,,,,,,,,,,,,,,,,,,,,,,,,,,,,,,,,,,,,,,,,,,,,,,,,,,,,,,,,,,,,,,,,,,,,,,,,,,P050,FENCOG,2,Pre,2022_Jun_09_1044,N-Back (New Version 2021),2021.1.4,120.0419667
,,,,Conditions/Version_1/oneback(3)_v1.xlsx,New rule: Press 'space' when you see 1-back (i.e. the same letter as the one that appeared 1 letter ago.),o,None,,,,,,,,,0,11,11,11,0,0,0,0,,,,,,,,,,,,,,,,,,,,,,,,,,,,,,,,,,,,,,,,,,,,,,,,,,,,,,,,,,,784.0330054,None,787.0195157,None,space,0.6410527,787.0195157,None,784.0330054,None,1.2704,788.9624966,None,None,1,788.9624966,None,,P050,FENCOG,2,Pre,2022_Jun_09_1044,N-Back (New Version 2021),2021.1.4,120.0419667
,,,,Conditions/Version_1/oneback(3)_v1.xlsx,New rule: Press 'space' when you see 1-back (i.e. the same letter as the one that appeared 1 letter ago.),O,space,,,,,,,,,0,11,11,11,0,1,1,1,,,,,,,,,,,,,,,,,,,,,,,,,,,,,,,,,,,,,,,,,,,,,,,,,,,,,,,,,,,,,,,,,,,,,1.2642,792.2326288,None,space,1,792.2326288,None,0.3556316,P050,FENCOG,2,Pre,2022_Jun_09_1044,N-Back (New Version 2021),2021.1.4,120.0419667
,,,,Conditions/Version_1/oneback(3)_v1.xlsx,New rule: Press 'space' when you see 1-back (i.e. the same letter as the one that appeared 1 letter ago.),h,None,,,,,,,,,0,11,11,11,0,2,2,2,,,,,,,,,,,,,,,,,,,,,,,,,,,,,,,,,,,,,,,,,,,,,,,,,,,,,,,,,,,,,,,,,,,,,1.1402,795.381498,None,None,1,795.381498,None,,P050,FENCOG,2,Pre,2022_Jun_09_1044,N-Back (New Version 2021),2021.1.4,120.0419667
,,,,Conditions/Version_1/oneback(3)_v1.xlsx,New rule: Press 'space' when you see 1-back (i.e. the same letter as the one that appeared 1 letter ago.),g,None,,,,,,,,,0,11,11,11,0,3,3,3,,,,,,,,,,,,,,,,,,,,,,,,,,,,,,,,,,,,,,,,,,,,,,,,,,,,,,,,,,,,,,,,,,,,,1.4812,798.864112,None,None,1,798.864112,None,,P050,FENCOG,2,Pre,2022_Jun_09_1044,N-Back (New Version 2021),2021.1.4,120.0419667
,,,,Conditions/Version_1/oneback(3)_v1.xlsx,New rule: Press 'space' when you see 1-back (i.e. the same letter as the one that appeared 1 letter ago.),n,None,,,,,,,,,0,11,11,11,0,4,4,4,,,,,,,,,,,,,,,,,,,,,,,,,,,,,,,,,,,,,,,,,,,,,,,,,,,,,,,,,,,,,,,,,,,,,1.537,802.4044908,None,None,1,802.4044908,None,,P050,FENCOG,2,Pre,2022_Jun_09_1044,N-Back (New Version 2021),2021.1.4,120.0419667
,,,,Conditions/Version_1/oneback(3)_v1.xlsx,New rule: Press 'space' when you see 1-back (i.e. the same letter as the one that appeared 1 letter ago.),z,None,,,,,,,,,0,11,11,11,0,5,5,5,,,,,,,,,,,,,,,,,,,,,,,,,,,,,,,,,,,,,,,,,,,,,,,,,,,,,,,,,,,,,,,,,,,,,1.9648,806.3702213,None,None,1,806.3702213,None,,P050,FENCOG,2,Pre,2022_Jun_09_1044,N-Back (New Version 2021),2021.1.4,120.0419667
,,,,Conditions/Version_1/oneback(3)_v1.xlsx,New rule: Press 'space' when you see 1-back (i.e. the same letter as the one that appeared 1 letter ago.),X,None,,,,,,,,,0,11,11,11,0,6,6,6,,,,,,,,,,,,,,,,,,,,,,,,,,,,,,,,,,,,,,,,,,,,,,,,,,,,,,,,,,,,,,,,,,,,,1.3634,809.7368218,None,None,1,809.7368218,None,,P050,FENCOG,2,Pre,2022_Jun_09_1044,N-Back (New Version 2021),2021.1.4,120.0419667
,,,,Conditions/Version_1/oneback(3)_v1.xlsx,New rule: Press 'space' when you see 1-back (i.e. the same letter as the one that appeared 1 letter ago.),r,None,,,,,,,,,0,11,11,11,0,7,7,7,,,,,,,,,,,,,,,,,,,,,,,,,,,,,,,,,,,,,,,,,,,,,,,,,,,,,,,,,,,,,,,,,,,,,1.2084,812.9527932,None,None,1,812.9527932,None,,P050,FENCOG,2,Pre,2022_Jun_09_1044,N-Back (New Version 2021),2021.1.4,120.0419667
,,,,Conditions/Version_1/oneback(3)_v1.xlsx,New rule: Press 'space' when you see 1-back (i.e. the same letter as the one that appeared 1 letter ago.),r,space,,,,,,,,,0,11,11,11,0,8,8,8,,,,,,,,,,,,,,,,,,,,,,,,,,,,,,,,,,,,,,,,,,,,,,,,,,,,,,,,,,,,,,,,,,,,,1.7292,816.6922322,None,space,1,816.6922322,None,0.5358713,P050,FENCOG,2,Pre,2022_Jun_09_1044,N-Back (New Version 2021),2021.1.4,120.0419667
,,,,Conditions/Version_1/oneback(3)_v1.xlsx,New rule: Press 'space' when you see 1-back (i.e. the same letter as the one that appeared 1 letter ago.),P,None,,,,,,,,,0,11,11,11,0,9,9,9,,,,,,,,,,,,,,,,,,,,,,,,,,,,,,,,,,,,,,,,,,,,,,,,,,,,,,,,,,,,,,,,,,,,,1.3076,820.0389765,None,None,1,820.0389765,None,,P050,FENCOG,2,Pre,2022_Jun_09_1044,N-Back (New Version 2021),2021.1.4,120.0419667
,,,,Conditions/Version_1/oneback(3)_v1.xlsx,New rule: Press 'space' when you see 1-back (i.e. the same letter as the one that appeared 1 letter ago.),,,,,,,,,,,0,11,11,11,,,,,,,,,,,,,,,,,,,,,,,,,,,,,,,,,,,,,,,,,,,,,,,,,,,,,,,,,,,,,,,,,,,,,,,,,,,,,,,,,P050,FENCOG,2,Pre,2022_Jun_09_1044,N-Back (New Version 2021),2021.1.4,120.0419667
,,,,Conditions/Version_1/twoback(4)_v1.xlsx,New rule: Press 'space' when you see 2-back (i.e. the same letter as the one that appeared 2 letters ago.),r,None,,,,,,,,,0,12,12,12,0,0,0,0,,,,,,,,,,,,,,,,,,,,,,,,,,,,,,,,,,,,,,,,,,,,,,,,,,,,,,,,,,,822.0288637,None,825.0085135,None,space,1.5557589,825.0085135,None,822.0288637,None,1.8346,828.4303415,None,None,1,828.4303415,None,,P050,FENCOG,2,Pre,2022_Jun_09_1044,N-Back (New Version 2021),2021.1.4,120.0419667
,,,,Conditions/Version_1/twoback(4)_v1.xlsx,New rule: Press 'space' when you see 2-back (i.e. the same letter as the one that appeared 2 letters ago.),T,None,,,,,,,,,0,12,12,12,0,1,1,1,,,,,,,,,,,,,,,,,,,,,,,,,,,,,,,,,,,,,,,,,,,,,,,,,,,,,,,,,,,,,,,,,,,,,1.661,832.1086301,None,None,1,832.1086301,None,,P050,FENCOG,2,Pre,2022_Jun_09_1044,N-Back (New Version 2021),2021.1.4,120.0419667
,,,,Conditions/Version_1/twoback(4)_v1.xlsx,New rule: Press 'space' when you see 2-back (i.e. the same letter as the one that appeared 2 letters ago.),o,None,,,,,,,,,0,12,12,12,0,2,2,2,,,,,,,,,,,,,,,,,,,,,,,,,,,,,,,,,,,,,,,,,,,,,,,,,,,,,,,,,,,,,,,,,,,,,1.7292,835.8456799,None,None,1,835.8456799,None,,P050,FENCOG,2,Pre,2022_Jun_09_1044,N-Back (New Version 2021),2021.1.4,120.0419667
,,,,Conditions/Version_1/twoback(4)_v1.xlsx,New rule: Press 'space' when you see 2-back (i.e. the same letter as the one that appeared 2 letters ago.),p,None,,,,,,,,,0,12,12,12,0,3,3,3,,,,,,,,,,,,,,,,,,,,,,,,,,,,,,,,,,,,,,,,,,,,,,,,,,,,,,,,,,,,,,,,,,,,,1.537,839.3909592,None,None,1,839.3909592,None,,P050,FENCOG,2,Pre,2022_Jun_09_1044,N-Back (New Version 2021),2021.1.4,120.0419667
,,,,Conditions/Version_1/twoback(4)_v1.xlsx,New rule: Press 'space' when you see 2-back (i.e. the same letter as the one that appeared 2 letters ago.),p,None,,,,,,,,,0,12,12,12,0,4,4,4,,,,,,,,,,,,,,,,,,,,,,,,,,,,,,,,,,,,,,,,,,,,,,,,,,,,,,,,,,,,,,,,,,,,,1.7726,843.1676017,None,None,1,843.1676017,None,,P050,FENCOG,2,Pre,2022_Jun_09_1044,N-Back (New Version 2021),2021.1.4,120.0419667
,,,,Conditions/Version_1/twoback(4)_v1.xlsx,New rule: Press 'space' when you see 2-back (i.e. the same letter as the one that appeared 2 letters ago.),y,None,,,,,,,,,0,12,12,12,0,5,5,5,,,,,,,,,,,,,,,,,,,,,,,,,,,,,,,,,,,,,,,,,,,,,,,,,,,,,,,,,,,,,,,,,,,,,1.0658,846.2354773,None,None,1,846.2354773,None,,P050,FENCOG,2,Pre,2022_Jun_09_1044,N-Back (New Version 2021),2021.1.4,120.0419667
,,,,Conditions/Version_1/twoback(4)_v1.xlsx,New rule: Press 'space' when you see 2-back (i.e. the same letter as the one that appeared 2 letters ago.),P,space,,,,,,,,,0,12,12,12,0,6,6,6,,,,,,,,,,,,,,,,,,,,,,,,,,,,,,,,,,,,,,,,,,,,,,,,,,,,,,,,,,,,,,,,,,,,,1.4378,849.6739868,None,space,1,849.6739868,None,0.5466593,P050,FENCOG,2,Pre,2022_Jun_09_1044,N-Back (New Version 2021),2021.1.4,120.0419667
,,,,Conditions/Version_1/twoback(4)_v1.xlsx,New rule: Press 'space' when you see 2-back (i.e. the same letter as the one that appeared 2 letters ago.),y,None,,,,,,,,,0,12,12,12,0,7,7,7,,,,,,,,,,,,,,,,,,,,,,,,,,,,,,,,,,,,,,,,,,,,,,,,,,,,,,,,,,,,,,,,,,,,,1.5122,853.190047,None,space,0,853.190047,None,0.406341,P050,FENCOG,2,Pre,2022_Jun_09_1044,N-Back (New Version 2021),2021.1.4,120.0419667
,,,,Conditions/Version_1/twoback(4)_v1.xlsx,New rule: Press 'space' when you see 2-back (i.e. the same letter as the one that appeared 2 letters ago.),y,space,,,,,,,,,0,12,12,12,0,8,8,8,,,,,,,,,,,,,,,,,,,,,,,,,,,,,,,,,,,,,,,,,,,,,,,,,,,,,,,,,,,,,,,,,,,,,1.3696,856.5637255,None,None,0,856.5637255,None,,P050,FENCOG,2,Pre,2022_Jun_09_1044,N-Back (New Version 2021),2021.1.4,120.0419667
,,,,Conditions/Version_1/twoback(4)_v1.xlsx,New rule: Press 'space' when you see 2-back (i.e. the same letter as the one that appeared 2 letters ago.),,,,,,,,,,,0,12,12,12,,,,,,,,,,,,,,,,,,,,,,,,,,,,,,,,,,,,,,,,,,,,,,,,,,,,,,,,,,,,,,,,,,,,,,,,,,,,,,,,,P050,FENCOG,2,Pre,2022_Jun_09_1044,N-Back (New Version 2021),2021.1.4,120.0419667
,,,,Conditions/Version_1/zeroback(4)_v1.xlsx,New rule: Press 'space' when you see the letter 'x' or 'X'.,o,None,,,,,,,,,0,13,13,13,0,0,0,0,,,,,,,,,,,,,,,,,,,,,,,,,,,,,,,,,,,,,,,,,,,,,,,,,,,,,,,,,,,858.5807592,None,861.5645495,None,space,0.3597533,861.5645495,None,858.5807592,None,1.8532,863.8032036,None,None,1,863.8032036,None,,P050,FENCOG,2,Pre,2022_Jun_09_1044,N-Back (New Version 2021),2021.1.4,120.0419667
,,,,Conditions/Version_1/zeroback(4)_v1.xlsx,New rule: Press 'space' when you see the letter 'x' or 'X'.,X,space,,,,,,,,,0,13,13,13,0,1,1,1,,,,,,,,,,,,,,,,,,,,,,,,,,,,,,,,,,,,,,,,,,,,,,,,,,,,,,,,,,,,,,,,,,,,,1.8098,867.6194323,None,space,1,867.6194323,None,0.3613309,P050,FENCOG,2,Pre,2022_Jun_09_1044,N-Back (New Version 2021),2021.1.4,120.0419667
,,,,Conditions/Version_1/zeroback(4)_v1.xlsx,New rule: Press 'space' when you see the letter 'x' or 'X'.,p,None,,,,,,,,,0,13,13,13,0,2,2,2,,,,,,,,,,,,,,,,,,,,,,,,,,,,,,,,,,,,,,,,,,,,,,,,,,,,,,,,,,,,,,,,,,,,,1.196,870.8272639,None,None,1,870.8272639,None,,P050,FENCOG,2,Pre,2022_Jun_09_1044,N-Back (New Version 2021),2021.1.4,120.0419667
,,,,Conditions/Version_1/zeroback(4)_v1.xlsx,New rule: Press 'space' when you see the letter 'x' or 'X'.,m,None,,,,,,,,,0,13,13,13,0,3,3,3,,,,,,,,,,,,,,,,,,,,,,,,,,,,,,,,,,,,,,,,,,,,,,,,,,,,,,,,,,,,,,,,,,,,,1.1154,873.9518017,None,None,1,873.9518017,None,,P050,FENCOG,2,Pre,2022_Jun_09_1044,N-Back (New Version 2021),2021.1.4,120.0419667
,,,,Conditions/Version_1/zeroback(4)_v1.xlsx,New rule: Press 'space' when you see the letter 'x' or 'X'.,n,None,,,,,,,,,0,13,13,13,0,4,4,4,,,,,,,,,,,,,,,,,,,,,,,,,,,,,,,,,,,,,,,,,,,,,,,,,,,,,,,,,,,,,,,,,,,,,1.4936,877.4491866,None,None,1,877.4491866,None,,P050,FENCOG,2,Pre,2022_Jun_09_1044,N-Back (New Version 2021),2021.1.4,120.0419667
,,,,Conditions/Version_1/zeroback(4)_v1.xlsx,New rule: Press 'space' when you see the letter 'x' or 'X'.,m,None,,,,,,,,,0,13,13,13,0,5,5,5,,,,,,,,,,,,,,,,,,,,,,,,,,,,,,,,,,,,,,,,,,,,,,,,,,,,,,,,,,,,,,,,,,,,,1.9834,881.4422927,None,None,1,881.4422927,None,,P050,FENCOG,2,Pre,2022_Jun_09_1044,N-Back (New Version 2021),2021.1.4,120.0419667
,,,,Conditions/Version_1/zeroback(4)_v1.xlsx,New rule: Press 'space' when you see the letter 'x' or 'X'.,C,None,,,,,,,,,0,13,13,13,0,6,6,6,,,,,,,,,,,,,,,,,,,,,,,,,,,,,,,,,,,,,,,,,,,,,,,,,,,,,,,,,,,,,,,,,,,,,1.103,884.555417,None,None,1,884.555417,None,,P050,FENCOG,2,Pre,2022_Jun_09_1044,N-Back (New Version 2021),2021.1.4,120.0419667
,,,,Conditions/Version_1/zeroback(4)_v1.xlsx,New rule: Press 'space' when you see the letter 'x' or 'X'.,m,None,,,,,,,,,0,13,13,13,0,7,7,7,,,,,,,,,,,,,,,,,,,,,,,,,,,,,,,,,,,,,,,,,,,,,,,,,,,,,,,,,,,,,,,,,,,,,1.8346,888.395875,None,None,1,888.395875,None,,P050,FENCOG,2,Pre,2022_Jun_09_1044,N-Back (New Version 2021),2021.1.4,120.0419667
,,,,Conditions/Version_1/zeroback(4)_v1.xlsx,New rule: Press 'space' when you see the letter 'x' or 'X'.,p,None,,,,,,,,,0,13,13,13,0,8,8,8,,,,,,,,,,,,,,,,,,,,,,,,,,,,,,,,,,,,,,,,,,,,,,,,,,,,,,,,,,,,,,,,,,,,,1.9958,892.3949252,None,None,1,892.3949252,None,,P050,FENCOG,2,Pre,2022_Jun_09_1044,N-Back (New Version 2021),2021.1.4,120.0419667
,,,,Conditions/Version_1/zeroback(4)_v1.xlsx,New rule: Press 'space' when you see the letter 'x' or 'X'.,X,space,,,,,,,,,0,13,13,13,0,9,9,9,,,,,,,,,,,,,,,,,,,,,,,,,,,,,,,,,,,,,,,,,,,,,,,,,,,,,,,,,,,,,,,,,,,,,1.7664,896.168692,None,space,1,896.168692,None,0.3719631,P050,FENCOG,2,Pre,2022_Jun_09_1044,N-Back (New Version 2021),2021.1.4,120.0419667
,,,,Conditions/Version_1/zeroback(4)_v1.xlsx,New rule: Press 'space' when you see the letter 'x' or 'X'.,,,,,,,,,,,0,13,13,13,,,,,,,,,,,,,,,,,,,,,,,,,,,,,,,,,,,,,,,,,,,,,,,,,,,,,,,,,,,,,,,,,,,,,,,,,,,,,,,,,P050,FENCOG,2,Pre,2022_Jun_09_1044,N-Back (New Version 2021),2021.1.4,120.0419667
,,,,Conditions/Version_1/oneback(4)_v1.xlsx,New rule: Press 'space' when you see 1-back (i.e. the same letter as the one that appeared 1 letter ago.),w,None,,,,,,,,,0,14,14,14,0,0,0,0,,,,,,,,,,,,,,,,,,,,,,,,,,,,,,,,,,,,,,,,,,,,,,,,,,,,,,,,,,,898.1917619,None,901.1779588,None,space,0.266327,901.1779588,None,898.1917619,None,1.2146,902.6985337,None,None,1,902.6985337,None,,P050,FENCOG,2,Pre,2022_Jun_09_1044,N-Back (New Version 2021),2021.1.4,120.0419667
,,,,Conditions/Version_1/oneback(4)_v1.xlsx,New rule: Press 'space' when you see 1-back (i.e. the same letter as the one that appeared 1 letter ago.),q,None,,,,,,,,,0,14,14,14,0,1,1,1,,,,,,,,,,,,,,,,,,,,,,,,,,,,,,,,,,,,,,,,,,,,,,,,,,,,,,,,,,,,,,,,,,,,,1.506,906.2092697,None,None,1,906.2092697,None,,P050,FENCOG,2,Pre,2022_Jun_09_1044,N-Back (New Version 2021),2021.1.4,120.0419667
,,,,Conditions/Version_1/oneback(4)_v1.xlsx,New rule: Press 'space' when you see 1-back (i.e. the same letter as the one that appeared 1 letter ago.),i,None,,,,,,,,,0,14,14,14,0,2,2,2,,,,,,,,,,,,,,,,,,,,,,,,,,,,,,,,,,,,,,,,,,,,,,,,,,,,,,,,,,,,,,,,,,,,,1.7168,909.9314608,None,None,1,909.9314608,None,,P050,FENCOG,2,Pre,2022_Jun_09_1044,N-Back (New Version 2021),2021.1.4,120.0419667
,,,,Conditions/Version_1/oneback(4)_v1.xlsx,New rule: Press 'space' when you see 1-back (i.e. the same letter as the one that appeared 1 letter ago.),t,None,,,,,,,,,0,14,14,14,0,3,3,3,,,,,,,,,,,,,,,,,,,,,,,,,,,,,,,,,,,,,,,,,,,,,,,,,,,,,,,,,,,,,,,,,,,,,1.9214,913.8551808,None,None,1,913.8551808,None,,P050,FENCOG,2,Pre,2022_Jun_09_1044,N-Back (New Version 2021),2021.1.4,120.0419667
,,,,Conditions/Version_1/oneback(4)_v1.xlsx,New rule: Press 'space' when you see 1-back (i.e. the same letter as the one that appeared 1 letter ago.),v,None,,,,,,,,,0,14,14,14,0,4,4,4,,,,,,,,,,,,,,,,,,,,,,,,,,,,,,,,,,,,,,,,,,,,,,,,,,,,,,,,,,,,,,,,,,,,,1.723,917.5903257,None,None,1,917.5903257,None,,P050,FENCOG,2,Pre,2022_Jun_09_1044,N-Back (New Version 2021),2021.1.4,120.0419667
,,,,Conditions/Version_1/oneback(4)_v1.xlsx,New rule: Press 'space' when you see 1-back (i.e. the same letter as the one that appeared 1 letter ago.),V,space,,,,,,,,,0,14,14,14,0,5,5,5,,,,,,,,,,,,,,,,,,,,,,,,,,,,,,,,,,,,,,,,,,,,,,,,,,,,,,,,,,,,,,,,,,,,,1.0782,920.6831417,None,space,1,920.6831417,None,0.5530889,P050,FENCOG,2,Pre,2022_Jun_09_1044,N-Back (New Version 2021),2021.1.4,120.0419667
,,,,Conditions/Version_1/oneback(4)_v1.xlsx,New rule: Press 'space' when you see 1-back (i.e. the same letter as the one that appeared 1 letter ago.),v,space,,,,,,,,,0,14,14,14,0,6,6,6,,,,,,,,,,,,,,,,,,,,,,,,,,,,,,,,,,,,,,,,,,,,,,,,,,,,,,,,,,,,,,,,,,,,,1.599,924.2854383,None,space,1,924.2854383,None,0.4394225,P050,FENCOG,2,Pre,2022_Jun_09_1044,N-Back (New Version 2021),2021.1.4,120.0419667
,,,,Conditions/Version_1/oneback(4)_v1.xlsx,New rule: Press 'space' when you see 1-back (i.e. the same letter as the one that appeared 1 letter ago.),p,None,,,,,,,,,0,14,14,14,0,7,7,7,,,,,,,,,,,,,,,,,,,,,,,,,,,,,,,,,,,,,,,,,,,,,,,,,,,,,,,,,,,,,,,,,,,,,1.3138,927.6010367,None,None,1,927.6010367,None,,P050,FENCOG,2,Pre,2022_Jun_09_1044,N-Back (New Version 2021),2021.1.4,120.0419667
,,,,Conditions/Version_1/oneback(4)_v1.xlsx,New rule: Press 'space' when you see 1-back (i.e. the same letter as the one that appeared 1 letter ago.),w,None,,,,,,,,,0,14,14,14,0,8,8,8,,,,,,,,,,,,,,,,,,,,,,,,,,,,,,,,,,,,,,,,,,,,,,,,,,,,,,,,,,,,,,,,,,,,,1.3262,930.9345915,None,None,1,930.9345915,None,,P050,FENCOG,2,Pre,2022_Jun_09_1044,N-Back (New Version 2021),2021.1.4,120.0419667
,,,,Conditions/Version_1/oneback(4)_v1.xlsx,New rule: Press 'space' when you see 1-back (i.e. the same letter as the one that appeared 1 letter ago.),W,space,,,,,,,,,0,14,14,14,0,9,9,9,,,,,,,,,,,,,,,,,,,,,,,,,,,,,,,,,,,,,,,,,,,,,,,,,,,,,,,,,,,,,,,,,,,,,1.4936,934.4409124,None,space,1,934.4409124,None,0.3795298,P050,FENCOG,2,Pre,2022_Jun_09_1044,N-Back (New Version 2021),2021.1.4,120.0419667
,,,,Conditions/Version_1/oneback(4)_v1.xlsx,New rule: Press 'space' when you see 1-back (i.e. the same letter as the one that appeared 1 letter ago.),,,,,,,,,,,0,14,14,14,,,,,,,,,,,,,,,,,,,,,,,,,,,,,,,,,,,,,,,,,,,,,,,,,,,,,,,,,,,,,,,,,,,,,,,,,,,,,,,,,P050,FENCOG,2,Pre,2022_Jun_09_1044,N-Back (New Version 2021),2021.1.4,120.0419667
,,,,Conditions/Version_1/threeback(4)_v1.xlsx,New rule: Press 'space' when you see 3-back (i.e. the same letter as the one that appeared 3 letters ago.),A,None,,,,,,,,,0,15,15,15,0,0,0,0,,,,,,,,,,,,,,,,,,,,,,,,,,,,,,,,,,,,,,,,,,,,,,,,,,,,,,,,,,,936.4630358,None,939.4494616,None,space,0.0748731,939.4494616,None,936.4630358,None,1.4812,941.0418923,None,None,1,941.0418923,None,,P050,FENCOG,2,Pre,2022_Jun_09_1044,N-Back (New Version 2021),2021.1.4,120.0419667
,,,,Conditions/Version_1/threeback(4)_v1.xlsx,New rule: Press 'space' when you see 3-back (i.e. the same letter as the one that appeared 3 letters ago.),n,None,,,,,,,,,0,15,15,15,0,1,1,1,,,,,,,,,,,,,,,,,,,,,,,,,,,,,,,,,,,,,,,,,,,,,,,,,,,,,,,,,,,,,,,,,,,,,1.0348,944.0878286,None,None,1,944.0878286,None,,P050,FENCOG,2,Pre,2022_Jun_09_1044,N-Back (New Version 2021),2021.1.4,120.0419667
,,,,Conditions/Version_1/threeback(4)_v1.xlsx,New rule: Press 'space' when you see 3-back (i.e. the same letter as the one that appeared 3 letters ago.),g,None,,,,,,,,,0,15,15,15,0,2,2,2,,,,,,,,,,,,,,,,,,,,,,,,,,,,,,,,,,,,,,,,,,,,,,,,,,,,,,,,,,,,,,,,,,,,,1.0906,947.1788659,None,None,1,947.1788659,None,,P050,FENCOG,2,Pre,2022_Jun_09_1044,N-Back (New Version 2021),2021.1.4,120.0419667
,,,,Conditions/Version_1/threeback(4)_v1.xlsx,New rule: Press 'space' when you see 3-back (i.e. the same letter as the one that appeared 3 letters ago.),A,space,,,,,,,,,0,15,15,15,0,3,3,3,,,,,,,,,,,,,,,,,,,,,,,,,,,,,,,,,,,,,,,,,,,,,,,,,,,,,,,,,,,,,,,,,,,,,1.0224,950.2038604,None,space,1,950.2038604,None,0.3846077,P050,FENCOG,2,Pre,2022_Jun_09_1044,N-Back (New Version 2021),2021.1.4,120.0419667
,,,,Conditions/Version_1/threeback(4)_v1.xlsx,New rule: Press 'space' when you see 3-back (i.e. the same letter as the one that appeared 3 letters ago.),p,None,,,,,,,,,0,15,15,15,0,4,4,4,,,,,,,,,,,,,,,,,,,,,,,,,,,,,,,,,,,,,,,,,,,,,,,,,,,,,,,,,,,,,,,,,,,,,1.9214,954.1377439,None,None,1,954.1377439,None,,P050,FENCOG,2,Pre,2022_Jun_09_1044,N-Back (New Version 2021),2021.1.4,120.0419667
,,,,Conditions/Version_1/threeback(4)_v1.xlsx,New rule: Press 'space' when you see 3-back (i.e. the same letter as the one that appeared 3 letters ago.),O,None,,,,,,,,,0,15,15,15,0,5,5,5,,,,,,,,,,,,,,,,,,,,,,,,,,,,,,,,,,,,,,,,,,,,,,,,,,,,,,,,,,,,,,,,,,,,,1.2766,957.4172851,None,None,1,957.4172851,None,,P050,FENCOG,2,Pre,2022_Jun_09_1044,N-Back (New Version 2021),2021.1.4,120.0419667
,,,,Conditions/Version_1/threeback(4)_v1.xlsx,New rule: Press 'space' when you see 3-back (i.e. the same letter as the one that appeared 3 letters ago.),a,space,,,,,,,,,0,15,15,15,0,6,6,6,,,,,,,,,,,,,,,,,,,,,,,,,,,,,,,,,,,,,,,,,,,,,,,,,,,,,,,,,,,,,,,,,,,,,1.382,960.8115425,None,space,1,960.8115425,None,1.1528731,P050,FENCOG,2,Pre,2022_Jun_09_1044,N-Back (New Version 2021),2021.1.4,120.0419667
,,,,Conditions/Version_1/threeback(4)_v1.xlsx,New rule: Press 'space' when you see 3-back (i.e. the same letter as the one that appeared 3 letters ago.),p,space,,,,,,,,,0,15,15,15,0,7,7,7,,,,,,,,,,,,,,,,,,,,,,,,,,,,,,,,,,,,,,,,,,,,,,,,,,,,,,,,,,,,,,,,,,,,,1.6362,964.4568212,None,space,1,964.4568212,None,0.5076114,P050,FENCOG,2,Pre,2022_Jun_09_1044,N-Back (New Version 2021),2021.1.4,120.0419667
,,,,Conditions/Version_1/threeback(4)_v1.xlsx,New rule: Press 'space' when you see 3-back (i.e. the same letter as the one that appeared 3 letters ago.),x,None,,,,,,,,,0,15,15,15,0,8,8,8,,,,,,,,,,,,,,,,,,,,,,,,,,,,,,,,,,,,,,,,,,,,,,,,,,,,,,,,,,,,,,,,,,,,,1.1836,967.6393759,None,None,1,967.6393759,None,,P050,FENCOG,2,Pre,2022_Jun_09_1044,N-Back (New Version 2021),2021.1.4,120.0419667
,,,,Conditions/Version_1/threeback(4)_v1.xlsx,New rule: Press 'space' when you see 3-back (i.e. the same letter as the one that appeared 3 letters ago.),X,None,,,,,,,,,0,15,15,15,0,9,9,9,,,,,,,,,,,,,,,,,,,,,,,,,,,,,,,,,,,,,,,,,,,,,,,,,,,,,,,,,,,,,,,,,,,,,1.6548,971.298572,None,None,1,971.298572,None,,P050,FENCOG,2,Pre,2022_Jun_09_1044,N-Back (New Version 2021),2021.1.4,120.0419667
,,,,Conditions/Version_1/threeback(4)_v1.xlsx,New rule: Press 'space' when you see 3-back (i.e. the same letter as the one that appeared 3 letters ago.),,,,,,,,,,,0,15,15,15,,,,,,,,,,,,,,,,,,,,,,,,,,,,,,,,,,,,,,,,,,,,,,,,,,,,,,,,,,,,,,,,,,,,,,,,,,,,,,,,,P050,FENCOG,2,Pre,2022_Jun_09_1044,N-Back (New Version 2021),2021.1.4,120.0419667
