CondFileP,InstructionsP,LettersDisplayedP,CorrectnessP,CondFile,Instructions,LettersDisplayed,Correctness,practicetrials.thisRepN,practicetrials.thisTrialN,practicetrials.thisN,practicetrials.thisIndex,InnerLoopPractice.thisRepN,InnerLoopPractice.thisTrialN,InnerLoopPractice.thisN,InnerLoopPractice.thisIndex,trials.thisRepN,trials.thisTrialN,trials.thisN,trials.thisIndex,InnerLoop.thisRepN,InnerLoop.thisTrialN,InnerLoop.thisN,InnerLoop.thisIndex,TaskVersionText.started,TaskVersionText.stopped,InstrKey1.keys,InstrKey1.rt,InstrKey1.started,InstrKey1.stopped,text.started,text.stopped,key_resp_4.keys,key_resp_4.rt,key_resp_4.started,key_resp_4.stopped,text_2.started,text_2.stopped,key_resp_3.keys,key_resp_3.rt,key_resp_3.started,key_resp_3.stopped,text_3.started,text_3.stopped,key_resp_2.keys,key_resp_2.rt,key_resp_2.started,key_resp_2.stopped,PractIn1.started,PractIn1.stopped,PractIn2.started,PractIn2.stopped,PractInstructionPass.keys,PractInstructionPass.rt,PractInstructionPass.started,PractInstructionPass.stopped,PractBlock1.started,PractBlock1.stopped,ISIjitterPractice,ISI_Pract_Fixation.started,ISI_Pract_Fixation.stopped,N_backP.started,N_backP.stopped,KeyPractice.keys,KeyPractice.corr,KeyPractice.started,KeyPractice.stopped,text_4.started,text_4.stopped,KeyPractice.rt,TransitionText.started,TransitionText.stopped,key_resp_6.keys,key_resp_6.rt,key_resp_6.started,key_resp_6.stopped,text_5.started,text_5.stopped,key_resp_5.keys,key_resp_5.rt,key_resp_5.started,key_resp_5.stopped,MainInt1.started,MainInt1.stopped,MainInt2.started,MainInt2.stopped,InstructionPass.keys,InstructionPass.rt,InstructionPass.started,InstructionPass.stopped,Blocks1.started,Blocks1.stopped,ISIjitter,N_backD.started,N_backD.stopped,key_resp.keys,key_resp.corr,key_resp.started,key_resp.stopped,key_resp.rt,participant,Study Name,Task Version (required to run),PRE/POST,date,expName,psychopyVersion,frameRate
,,,,,,,,,,,,,,,,,,,,,,,,22.099567,None,space,16.42072,22.5887138,None,,,,,,,,,,,,,,,,,,,,,,,,,,,,,,,,,,,,,,,,,,,,,,,,,,,,,,,,,,,,,,,,,,,,,,,P051,fencog,1,Post,2022_Jun_17_1041,N-Back (New Version 2021),2021.1.4,119.8349633
,,,,,,,,,,,,,,,,,,,,,,,,,,,,,,39.0453973,None,space,7.499208,39.5425245,None,,,,,,,,,,,,,,,,,,,,,,,,,,,,,,,,,,,,,,,,,,,,,,,,,,,,,,,,,,,,,,,,,P051,fencog,1,Post,2022_Jun_17_1041,N-Back (New Version 2021),2021.1.4,119.8349633
,,,,,,,,,,,,,,,,,,,,,,,,,,,,,,,,,,,,47.0760881,None,space,17.6362464,47.5653897,None,,,,,,,,,,,,,,,,,,,,,,,,,,,,,,,,,,,,,,,,,,,,,,,,,,,,,,,,,,,P051,fencog,1,Post,2022_Jun_17_1041,N-Back (New Version 2021),2021.1.4,119.8349633
,,,,,,,,,,,,,,,,,,,,,,,,,,,,,,,,,,,,,,,,,,65.2269168,None,space,14.4275024,65.7181622,None,,,,,,,,,,,,,,,,,,,,,,,,,,,,,,,,,,,,,,,,,,,,,,,,,,,,,P051,fencog,1,Post,2022_Jun_17_1041,N-Back (New Version 2021),2021.1.4,119.8349633
Conditions/Version_1Pr/zeroback(1)_v1.xlsx,Rule: Press 'space' when you see the letter 'x' or 'X'.,Z,None,,,,,0,0,0,0,0,0,0,0,,,,,,,,,,,,,,,,,,,,,,,,,,,,,,,,,81.5488717,None,84.5386006,None,space,0.5188128,84.5386006,None,81.5488717,None,1.315,85.097393,None,86.4233089,None,None,1,86.4233089,None,88.4276306,None,,,,,,,,,,,,,,,,,,,,,,,,,,,,,,,,P051,fencog,1,Post,2022_Jun_17_1041,N-Back (New Version 2021),2021.1.4,119.8349633
Conditions/Version_1Pr/zeroback(1)_v1.xlsx,Rule: Press 'space' when you see the letter 'x' or 'X'.,r,None,,,,,0,0,0,0,0,1,1,1,,,,,,,,,,,,,,,,,,,,,,,,,,,,,,,,,,,,,,,,,,,1.84,89.9269915,None,91.7725254,None,None,1,91.7725254,None,93.7758535,None,,,,,,,,,,,,,,,,,,,,,,,,,,,,,,,,P051,fencog,1,Post,2022_Jun_17_1041,N-Back (New Version 2021),2021.1.4,119.8349633
Conditions/Version_1Pr/zeroback(1)_v1.xlsx,Rule: Press 'space' when you see the letter 'x' or 'X'.,X,space,,,,,0,0,0,0,0,2,2,2,,,,,,,,,,,,,,,,,,,,,,,,,,,,,,,,,,,,,,,,,,,1.59,95.275443,None,96.8692375,None,space,1,96.8692375,None,97.5747109,None,0.6921966,,,,,,,,,,,,,,,,,,,,,,,,,,,,,,,P051,fencog,1,Post,2022_Jun_17_1041,N-Back (New Version 2021),2021.1.4,119.8349633
Conditions/Version_1Pr/zeroback(1)_v1.xlsx,Rule: Press 'space' when you see the letter 'x' or 'X'.,p,None,,,,,0,0,0,0,0,3,3,3,,,,,,,,,,,,,,,,,,,,,,,,,,,,,,,,,,,,,,,,,,,2.015,99.0742712,None,101.090334,None,None,1,101.090334,None,103.0897047,None,,,,,,,,,,,,,,,,,,,,,,,,,,,,,,,,P051,fencog,1,Post,2022_Jun_17_1041,N-Back (New Version 2021),2021.1.4,119.8349633
Conditions/Version_1Pr/zeroback(1)_v1.xlsx,Rule: Press 'space' when you see the letter 'x' or 'X'.,w,None,,,,,0,0,0,0,0,4,4,4,,,,,,,,,,,,,,,,,,,,,,,,,,,,,,,,,,,,,,,,,,,1.465,104.5891802,None,106.0589321,None,None,1,106.0589321,None,108.0632475,None,,,,,,,,,,,,,,,,,,,,,,,,,,,,,,,,P051,fencog,1,Post,2022_Jun_17_1041,N-Back (New Version 2021),2021.1.4,119.8349633
Conditions/Version_1Pr/zeroback(1)_v1.xlsx,Rule: Press 'space' when you see the letter 'x' or 'X'.,e,None,,,,,0,0,0,0,0,5,5,5,,,,,,,,,,,,,,,,,,,,,,,,,,,,,,,,,,,,,,,,,,,1.715,109.5629082,None,111.2816176,None,None,1,111.2816176,None,113.2867665,None,,,,,,,,,,,,,,,,,,,,,,,,,,,,,,,,P051,fencog,1,Post,2022_Jun_17_1041,N-Back (New Version 2021),2021.1.4,119.8349633
Conditions/Version_1Pr/zeroback(1)_v1.xlsx,Rule: Press 'space' when you see the letter 'x' or 'X'.,X,space,,,,,0,0,0,0,0,6,6,6,,,,,,,,,,,,,,,,,,,,,,,,,,,,,,,,,,,,,,,,,,,1.565,114.7863076,None,116.352269,None,space,1,116.352269,None,117.4383759,None,1.0731968,,,,,,,,,,,,,,,,,,,,,,,,,,,,,,,P051,fencog,1,Post,2022_Jun_17_1041,N-Back (New Version 2021),2021.1.4,119.8349633
Conditions/Version_1Pr/zeroback(1)_v1.xlsx,Rule: Press 'space' when you see the letter 'x' or 'X'.,x,space,,,,,0,0,0,0,0,7,7,7,,,,,,,,,,,,,,,,,,,,,,,,,,,,,,,,,,,,,,,,,,,1.515,118.9433733,None,120.4641899,None,space,1,120.4641899,None,121.0611198,None,0.5852351,,,,,,,,,,,,,,,,,,,,,,,,,,,,,,,P051,fencog,1,Post,2022_Jun_17_1041,N-Back (New Version 2021),2021.1.4,119.8349633
Conditions/Version_1Pr/zeroback(1)_v1.xlsx,Rule: Press 'space' when you see the letter 'x' or 'X'.,p,None,,,,,0,0,0,0,0,8,8,8,,,,,,,,,,,,,,,,,,,,,,,,,,,,,,,,,,,,,,,,,,,1.965,122.5669101,None,124.5369181,None,None,1,124.5369181,None,126.5409964,None,,,,,,,,,,,,,,,,,,,,,,,,,,,,,,,,P051,fencog,1,Post,2022_Jun_17_1041,N-Back (New Version 2021),2021.1.4,119.8349633
Conditions/Version_1Pr/zeroback(1)_v1.xlsx,Rule: Press 'space' when you see the letter 'x' or 'X'.,r,None,,,,,0,0,0,0,0,9,9,9,,,,,,,,,,,,,,,,,,,,,,,,,,,,,,,,,,,,,,,,,,,1.165,128.0404769,None,129.2087503,None,None,1,129.2087503,None,131.2148904,None,,,,,,,,,,,,,,,,,,,,,,,,,,,,,,,,P051,fencog,1,Post,2022_Jun_17_1041,N-Back (New Version 2021),2021.1.4,119.8349633
Conditions/Version_1Pr/zeroback(1)_v1.xlsx,Rule: Press 'space' when you see the letter 'x' or 'X'.,,,,,,,0,0,0,0,,,,,,,,,,,,,,,,,,,,,,,,,,,,,,,,,,,,,,,,,,,,,,,,,,,,,,,,,,,,,,,,,,,,,,,,,,,,,,,,,,,,,,,,,P051,fencog,1,Post,2022_Jun_17_1041,N-Back (New Version 2021),2021.1.4,119.8349633
Conditions/Version_1Pr/oneback(1)_v1.xlsx,New rule: Press 'space' when you see 1-back (i.e. the same letter as the one that appeared 1 letter ago.),a,None,,,,,0,1,1,1,0,0,0,0,,,,,,,,,,,,,,,,,,,,,,,,,,,,,,,,,132.7413899,None,135.7236335,None,space,0.5499833,135.7236335,None,132.7413899,None,1.915,136.3059346,None,138.223742,None,None,1,138.223742,None,140.2287575,None,,,,,,,,,,,,,,,,,,,,,,,,,,,,,,,,P051,fencog,1,Post,2022_Jun_17_1041,N-Back (New Version 2021),2021.1.4,119.8349633
Conditions/Version_1Pr/oneback(1)_v1.xlsx,New rule: Press 'space' when you see 1-back (i.e. the same letter as the one that appeared 1 letter ago.),x,None,,,,,0,1,1,1,0,1,1,1,,,,,,,,,,,,,,,,,,,,,,,,,,,,,,,,,,,,,,,,,,,1.865,141.7283008,None,143.5951291,None,None,1,143.5951291,None,145.6021553,None,,,,,,,,,,,,,,,,,,,,,,,,,,,,,,,,P051,fencog,1,Post,2022_Jun_17_1041,N-Back (New Version 2021),2021.1.4,119.8349633
Conditions/Version_1Pr/oneback(1)_v1.xlsx,New rule: Press 'space' when you see 1-back (i.e. the same letter as the one that appeared 1 letter ago.),g,None,,,,,0,1,1,1,0,2,2,2,,,,,,,,,,,,,,,,,,,,,,,,,,,,,,,,,,,,,,,,,,,1.215,147.1017231,None,148.3195842,None,None,1,148.3195842,None,150.3229721,None,,,,,,,,,,,,,,,,,,,,,,,,,,,,,,,,P051,fencog,1,Post,2022_Jun_17_1041,N-Back (New Version 2021),2021.1.4,119.8349633
Conditions/Version_1Pr/oneback(1)_v1.xlsx,New rule: Press 'space' when you see 1-back (i.e. the same letter as the one that appeared 1 letter ago.),G,space,,,,,0,1,1,1,0,3,3,3,,,,,,,,,,,,,,,,,,,,,,,,,,,,,,,,,,,,,,,,,,,1.04,151.8253122,None,152.8682347,None,space,1,152.8682347,None,154.2271595,None,1.3414387,,,,,,,,,,,,,,,,,,,,,,,,,,,,,,,P051,fencog,1,Post,2022_Jun_17_1041,N-Back (New Version 2021),2021.1.4,119.8349633
Conditions/Version_1Pr/oneback(1)_v1.xlsx,New rule: Press 'space' when you see 1-back (i.e. the same letter as the one that appeared 1 letter ago.),u,None,,,,,0,1,1,1,0,4,4,4,,,,,,,,,,,,,,,,,,,,,,,,,,,,,,,,,,,,,,,,,,,1.64,155.732497,None,157.374051,None,None,1,157.374051,None,159.373094,None,,,,,,,,,,,,,,,,,,,,,,,,,,,,,,,,P051,fencog,1,Post,2022_Jun_17_1041,N-Back (New Version 2021),2021.1.4,119.8349633
Conditions/Version_1Pr/oneback(1)_v1.xlsx,New rule: Press 'space' when you see 1-back (i.e. the same letter as the one that appeared 1 letter ago.),y,None,,,,,0,1,1,1,0,5,5,5,,,,,,,,,,,,,,,,,,,,,,,,,,,,,,,,,,,,,,,,,,,1.415,160.8726388,None,162.2906416,None,None,1,162.2906416,None,164.296635,None,,,,,,,,,,,,,,,,,,,,,,,,,,,,,,,,P051,fencog,1,Post,2022_Jun_17_1041,N-Back (New Version 2021),2021.1.4,119.8349633
Conditions/Version_1Pr/oneback(1)_v1.xlsx,New rule: Press 'space' when you see 1-back (i.e. the same letter as the one that appeared 1 letter ago.),y,space,,,,,0,1,1,1,0,6,6,6,,,,,,,,,,,,,,,,,,,,,,,,,,,,,,,,,,,,,,,,,,,1.39,165.7959255,None,167.187281,None,space,1,167.187281,None,168.0794742,None,0.8782804,,,,,,,,,,,,,,,,,,,,,,,,,,,,,,,P051,fencog,1,Post,2022_Jun_17_1041,N-Back (New Version 2021),2021.1.4,119.8349633
Conditions/Version_1Pr/oneback(1)_v1.xlsx,New rule: Press 'space' when you see 1-back (i.e. the same letter as the one that appeared 1 letter ago.),k,None,,,,,0,1,1,1,0,7,7,7,,,,,,,,,,,,,,,,,,,,,,,,,,,,,,,,,,,,,,,,,,,1.34,169.5867346,None,170.9307487,None,None,1,170.9307487,None,172.9356029,None,,,,,,,,,,,,,,,,,,,,,,,,,,,,,,,,P051,fencog,1,Post,2022_Jun_17_1041,N-Back (New Version 2021),2021.1.4,119.8349633
Conditions/Version_1Pr/oneback(1)_v1.xlsx,New rule: Press 'space' when you see 1-back (i.e. the same letter as the one that appeared 1 letter ago.),c,None,,,,,0,1,1,1,0,8,8,8,,,,,,,,,,,,,,,,,,,,,,,,,,,,,,,,,,,,,,,,,,,1.365,174.4353086,None,175.8021478,None,None,1,175.8021478,None,177.8092398,None,,,,,,,,,,,,,,,,,,,,,,,,,,,,,,,,P051,fencog,1,Post,2022_Jun_17_1041,N-Back (New Version 2021),2021.1.4,119.8349633
Conditions/Version_1Pr/oneback(1)_v1.xlsx,New rule: Press 'space' when you see 1-back (i.e. the same letter as the one that appeared 1 letter ago.),r,None,,,,,0,1,1,1,0,9,9,9,,,,,,,,,,,,,,,,,,,,,,,,,,,,,,,,,,,,,,,,,,,1.74,179.308888,None,181.0497876,None,None,1,181.0497876,None,183.0494797,None,,,,,,,,,,,,,,,,,,,,,,,,,,,,,,,,P051,fencog,1,Post,2022_Jun_17_1041,N-Back (New Version 2021),2021.1.4,119.8349633
Conditions/Version_1Pr/oneback(1)_v1.xlsx,New rule: Press 'space' when you see 1-back (i.e. the same letter as the one that appeared 1 letter ago.),,,,,,,0,1,1,1,,,,,,,,,,,,,,,,,,,,,,,,,,,,,,,,,,,,,,,,,,,,,,,,,,,,,,,,,,,,,,,,,,,,,,,,,,,,,,,,,,,,,,,,,P051,fencog,1,Post,2022_Jun_17_1041,N-Back (New Version 2021),2021.1.4,119.8349633
Conditions/Version_1Pr/twoback(1)_v1.xlsx,New rule: Press 'space' when you see 2-back (i.e. the same letter as the one that appeared 2 letters ago.),E,None,,,,,0,2,2,2,0,0,0,0,,,,,,,,,,,,,,,,,,,,,,,,,,,,,,,,,184.572246,None,187.5576473,None,space,0.3161287,187.5576473,None,184.572246,None,1.99,187.9007766,None,189.8993,None,None,1,189.8993,None,191.905107,None,,,,,,,,,,,,,,,,,,,,,,,,,,,,,,,,P051,fencog,1,Post,2022_Jun_17_1041,N-Back (New Version 2021),2021.1.4,119.8349633
Conditions/Version_1Pr/twoback(1)_v1.xlsx,New rule: Press 'space' when you see 2-back (i.e. the same letter as the one that appeared 2 letters ago.),p,None,,,,,0,2,2,2,0,1,1,1,,,,,,,,,,,,,,,,,,,,,,,,,,,,,,,,,,,,,,,,,,,1.14,193.404738,None,194.546777,None,None,1,194.546777,None,196.5536101,None,,,,,,,,,,,,,,,,,,,,,,,,,,,,,,,,P051,fencog,1,Post,2022_Jun_17_1041,N-Back (New Version 2021),2021.1.4,119.8349633
Conditions/Version_1Pr/twoback(1)_v1.xlsx,New rule: Press 'space' when you see 2-back (i.e. the same letter as the one that appeared 2 letters ago.),e,space,,,,,0,2,2,2,0,2,2,2,,,,,,,,,,,,,,,,,,,,,,,,,,,,,,,,,,,,,,,,,,,1.59,198.0533626,None,199.6453166,None,space,1,199.6453166,None,200.0866416,None,0.4280631,,,,,,,,,,,,,,,,,,,,,,,,,,,,,,,P051,fencog,1,Post,2022_Jun_17_1041,N-Back (New Version 2021),2021.1.4,119.8349633
Conditions/Version_1Pr/twoback(1)_v1.xlsx,New rule: Press 'space' when you see 2-back (i.e. the same letter as the one that appeared 2 letters ago.),s,None,,,,,0,2,2,2,0,3,3,3,,,,,,,,,,,,,,,,,,,,,,,,,,,,,,,,,,,,,,,,,,,1.49,201.5856068,None,203.0785295,None,None,1,203.0785295,None,205.0846817,None,,,,,,,,,,,,,,,,,,,,,,,,,,,,,,,,P051,fencog,1,Post,2022_Jun_17_1041,N-Back (New Version 2021),2021.1.4,119.8349633
Conditions/Version_1Pr/twoback(1)_v1.xlsx,New rule: Press 'space' when you see 2-back (i.e. the same letter as the one that appeared 2 letters ago.),S,None,,,,,0,2,2,2,0,4,4,4,,,,,,,,,,,,,,,,,,,,,,,,,,,,,,,,,,,,,,,,,,,1.265,206.5841807,None,207.8533512,None,space,0,207.8533512,None,208.4681311,None,0.5963769,,,,,,,,,,,,,,,,,,,,,,,,,,,,,,,P051,fencog,1,Post,2022_Jun_17_1041,N-Back (New Version 2021),2021.1.4,119.8349633
Conditions/Version_1Pr/twoback(1)_v1.xlsx,New rule: Press 'space' when you see 2-back (i.e. the same letter as the one that appeared 2 letters ago.),s,space,,,,,0,2,2,2,0,5,5,5,,,,,,,,,,,,,,,,,,,,,,,,,,,,,,,,,,,,,,,,,,,1.215,209.9744555,None,211.1943751,None,space,1,211.1943751,None,213.1946659,None,1.9831269,,,,,,,,,,,,,,,,,,,,,,,,,,,,,,,P051,fencog,1,Post,2022_Jun_17_1041,N-Back (New Version 2021),2021.1.4,119.8349633
Conditions/Version_1Pr/twoback(1)_v1.xlsx,New rule: Press 'space' when you see 2-back (i.e. the same letter as the one that appeared 2 letters ago.),P,None,,,,,0,2,2,2,0,6,6,6,,,,,,,,,,,,,,,,,,,,,,,,,,,,,,,,,,,,,,,,,,,1.465,214.6980967,None,216.1645122,None,None,1,216.1645122,None,218.1636952,None,,,,,,,,,,,,,,,,,,,,,,,,,,,,,,,,P051,fencog,1,Post,2022_Jun_17_1041,N-Back (New Version 2021),2021.1.4,119.8349633
Conditions/Version_1Pr/twoback(1)_v1.xlsx,New rule: Press 'space' when you see 2-back (i.e. the same letter as the one that appeared 2 letters ago.),C,None,,,,,0,2,2,2,0,7,7,7,,,,,,,,,,,,,,,,,,,,,,,,,,,,,,,,,,,,,,,,,,,1.34,219.6631883,None,221.005014,None,None,1,221.005014,None,223.0122976,None,,,,,,,,,,,,,,,,,,,,,,,,,,,,,,,,P051,fencog,1,Post,2022_Jun_17_1041,N-Back (New Version 2021),2021.1.4,119.8349633
Conditions/Version_1Pr/twoback(1)_v1.xlsx,New rule: Press 'space' when you see 2-back (i.e. the same letter as the one that appeared 2 letters ago.),x,None,,,,,0,2,2,2,0,8,8,8,,,,,,,,,,,,,,,,,,,,,,,,,,,,,,,,,,,,,,,,,,,1.415,224.512192,None,225.9292322,None,None,1,225.9292322,None,227.9326306,None,,,,,,,,,,,,,,,,,,,,,,,,,,,,,,,,P051,fencog,1,Post,2022_Jun_17_1041,N-Back (New Version 2021),2021.1.4,119.8349633
Conditions/Version_1Pr/twoback(1)_v1.xlsx,New rule: Press 'space' when you see 2-back (i.e. the same letter as the one that appeared 2 letters ago.),Z,None,,,,,0,2,2,2,0,9,9,9,,,,,,,,,,,,,,,,,,,,,,,,,,,,,,,,,,,,,,,,,,,1.64,229.4356509,None,231.0778843,None,None,1,231.0778843,None,233.0846913,None,,,,,,,,,,,,,,,,,,,,,,,,,,,,,,,,P051,fencog,1,Post,2022_Jun_17_1041,N-Back (New Version 2021),2021.1.4,119.8349633
Conditions/Version_1Pr/twoback(1)_v1.xlsx,New rule: Press 'space' when you see 2-back (i.e. the same letter as the one that appeared 2 letters ago.),,,,,,,0,2,2,2,,,,,,,,,,,,,,,,,,,,,,,,,,,,,,,,,,,,,,,,,,,,,,,,,,,,,,,,,,,,,,,,,,,,,,,,,,,,,,,,,,,,,,,,,P051,fencog,1,Post,2022_Jun_17_1041,N-Back (New Version 2021),2021.1.4,119.8349633
Conditions/Version_1Pr/threeback(1)_v1.xlsx,New rule: Press 'space' when you see 3-back (i.e. the same letter as the one that appeared 3 letters ago.),r,None,,,,,0,3,3,3,0,0,0,0,,,,,,,,,,,,,,,,,,,,,,,,,,,,,,,,,234.6059555,None,237.5938199,None,space,1.2075099,237.5938199,None,234.6059555,None,1.89,238.8302231,None,240.7250146,None,None,1,240.7250146,None,242.7318294,None,,,,,,,,,,,,,,,,,,,,,,,,,,,,,,,,P051,fencog,1,Post,2022_Jun_17_1041,N-Back (New Version 2021),2021.1.4,119.8349633
Conditions/Version_1Pr/threeback(1)_v1.xlsx,New rule: Press 'space' when you see 3-back (i.e. the same letter as the one that appeared 3 letters ago.),a,None,,,,,0,3,3,3,0,1,1,1,,,,,,,,,,,,,,,,,,,,,,,,,,,,,,,,,,,,,,,,,,,1.815,244.2313904,None,246.0510456,None,None,1,246.0510456,None,248.0552684,None,,,,,,,,,,,,,,,,,,,,,,,,,,,,,,,,P051,fencog,1,Post,2022_Jun_17_1041,N-Back (New Version 2021),2021.1.4,119.8349633
Conditions/Version_1Pr/threeback(1)_v1.xlsx,New rule: Press 'space' when you see 3-back (i.e. the same letter as the one that appeared 3 letters ago.),t,None,,,,,0,3,3,3,0,2,2,2,,,,,,,,,,,,,,,,,,,,,,,,,,,,,,,,,,,,,,,,,,,1.865,249.5547884,None,251.4233541,None,None,1,251.4233541,None,253.4286547,None,,,,,,,,,,,,,,,,,,,,,,,,,,,,,,,,P051,fencog,1,Post,2022_Jun_17_1041,N-Back (New Version 2021),2021.1.4,119.8349633
Conditions/Version_1Pr/threeback(1)_v1.xlsx,New rule: Press 'space' when you see 3-back (i.e. the same letter as the one that appeared 3 letters ago.),r,space,,,,,0,3,3,3,0,3,3,3,,,,,,,,,,,,,,,,,,,,,,,,,,,,,,,,,,,,,,,,,,,2.015,254.9282079,None,256.945433,None,space,1,256.945433,None,258.2748058,None,1.3123892,,,,,,,,,,,,,,,,,,,,,,,,,,,,,,,P051,fencog,1,Post,2022_Jun_17_1041,N-Back (New Version 2021),2021.1.4,119.8349633
Conditions/Version_1Pr/threeback(1)_v1.xlsx,New rule: Press 'space' when you see 3-back (i.e. the same letter as the one that appeared 3 letters ago.),a,None,,,,,0,3,3,3,0,4,4,4,,,,,,,,,,,,,,,,,,,,,,,,,,,,,,,,,,,,,,,,,,,1.715,259.7767398,None,261.4937982,None,space,0,261.4937982,None,263.0867298,None,1.5797045,,,,,,,,,,,,,,,,,,,,,,,,,,,,,,,P051,fencog,1,Post,2022_Jun_17_1041,N-Back (New Version 2021),2021.1.4,119.8349633
Conditions/Version_1Pr/threeback(1)_v1.xlsx,New rule: Press 'space' when you see 3-back (i.e. the same letter as the one that appeared 3 letters ago.),Y,None,,,,,0,3,3,3,0,5,5,5,,,,,,,,,,,,,,,,,,,,,,,,,,,,,,,,,,,,,,,,,,,1.59,264.591947,None,266.1849638,None,None,1,266.1849638,None,268.1909842,None,,,,,,,,,,,,,,,,,,,,,,,,,,,,,,,,P051,fencog,1,Post,2022_Jun_17_1041,N-Back (New Version 2021),2021.1.4,119.8349633
Conditions/Version_1Pr/threeback(1)_v1.xlsx,New rule: Press 'space' when you see 3-back (i.e. the same letter as the one that appeared 3 letters ago.),q,None,,,,,0,3,3,3,0,6,6,6,,,,,,,,,,,,,,,,,,,,,,,,,,,,,,,,,,,,,,,,,,,1.14,269.6905658,None,270.8333099,None,None,1,270.8333099,None,272.8395668,None,,,,,,,,,,,,,,,,,,,,,,,,,,,,,,,,P051,fencog,1,Post,2022_Jun_17_1041,N-Back (New Version 2021),2021.1.4,119.8349633
Conditions/Version_1Pr/threeback(1)_v1.xlsx,New rule: Press 'space' when you see 3-back (i.e. the same letter as the one that appeared 3 letters ago.),A,space,,,,,0,3,3,3,0,7,7,7,,,,,,,,,,,,,,,,,,,,,,,,,,,,,,,,,,,,,,,,,,,1.79,274.3391716,None,276.1375145,None,None,0,276.1375145,None,278.1435971,None,,,,,,,,,,,,,,,,,,,,,,,,,,,,,,,,P051,fencog,1,Post,2022_Jun_17_1041,N-Back (New Version 2021),2021.1.4,119.8349633
Conditions/Version_1Pr/threeback(1)_v1.xlsx,New rule: Press 'space' when you see 3-back (i.e. the same letter as the one that appeared 3 letters ago.),y,None,,,,,0,3,3,3,0,8,8,8,,,,,,,,,,,,,,,,,,,,,,,,,,,,,,,,,,,,,,,,,,,1.44,279.6371854,None,281.0796254,None,None,1,281.0796254,None,283.0866494,None,,,,,,,,,,,,,,,,,,,,,,,,,,,,,,,,P051,fencog,1,Post,2022_Jun_17_1041,N-Back (New Version 2021),2021.1.4,119.8349633
Conditions/Version_1Pr/threeback(1)_v1.xlsx,New rule: Press 'space' when you see 3-back (i.e. the same letter as the one that appeared 3 letters ago.),r,None,,,,,0,3,3,3,0,9,9,9,,,,,,,,,,,,,,,,,,,,,,,,,,,,,,,,,,,,,,,,,,,1.54,284.5860593,None,286.1292234,None,None,1,286.1292234,None,288.1350753,None,,,,,,,,,,,,,,,,,,,,,,,,,,,,,,,,P051,fencog,1,Post,2022_Jun_17_1041,N-Back (New Version 2021),2021.1.4,119.8349633
Conditions/Version_1Pr/threeback(1)_v1.xlsx,New rule: Press 'space' when you see 3-back (i.e. the same letter as the one that appeared 3 letters ago.),,,,,,,0,3,3,3,,,,,,,,,,,,,,,,,,,,,,,,,,,,,,,,,,,,,,,,,,,,,,,,,,,,,,,,,,,,,,,,,,,,,,,,,,,,,,,,,,,,,,,,,P051,fencog,1,Post,2022_Jun_17_1041,N-Back (New Version 2021),2021.1.4,119.8349633
,,,,,,,,,,,,,,,,,,,,,,,,,,,,,,,,,,,,,,,,,,,,,,,,,,,,,,,,,,,,,,,,,,,,,,289.6437195,None,space,77.0108393,290.1347773,None,,,,,,,,,,,,,,,,,,,,,,,,,P051,fencog,1,Post,2022_Jun_17_1041,N-Back (New Version 2021),2021.1.4,119.8349633
,,,,,,,,,,,,,,,,,,,,,,,,,,,,,,,,,,,,,,,,,,,,,,,,,,,,,,,,,,,,,,,,,,,,,,,,,,,,367.1677329,None,space,19.955141,367.6621317,None,,,,,,,,,,,,,,,,,,,P051,fencog,1,Post,2022_Jun_17_1041,N-Back (New Version 2021),2021.1.4,119.8349633
,,,,Conditions/Version_1/zeroback(1)_v1.xlsx,Rule: Press 'space' when you see the letter 'x' or 'X'.,b,None,,,,,,,,,0,0,0,0,0,0,0,0,,,,,,,,,,,,,,,,,,,,,,,,,,,,,,,,,,,,,,,,,,,,,,,,,,,,,,,,,,,387.7374131,None,390.7224503,None,space,1.1187645,390.7224503,None,387.7374131,None,1.4564,393.3303756,None,None,1,393.3303756,None,,P051,fencog,1,Post,2022_Jun_17_1041,N-Back (New Version 2021),2021.1.4,119.8349633
,,,,Conditions/Version_1/zeroback(1)_v1.xlsx,Rule: Press 'space' when you see the letter 'x' or 'X'.,T,None,,,,,,,,,0,0,0,0,0,1,1,1,,,,,,,,,,,,,,,,,,,,,,,,,,,,,,,,,,,,,,,,,,,,,,,,,,,,,,,,,,,,,,,,,,,,,1.1588,396.5037253,None,None,1,396.5037253,None,,P051,fencog,1,Post,2022_Jun_17_1041,N-Back (New Version 2021),2021.1.4,119.8349633
,,,,Conditions/Version_1/zeroback(1)_v1.xlsx,Rule: Press 'space' when you see the letter 'x' or 'X'.,L,None,,,,,,,,,0,0,0,0,0,2,2,2,,,,,,,,,,,,,,,,,,,,,,,,,,,,,,,,,,,,,,,,,,,,,,,,,,,,,,,,,,,,,,,,,,,,,1.351,399.8705368,None,None,1,399.8705368,None,,P051,fencog,1,Post,2022_Jun_17_1041,N-Back (New Version 2021),2021.1.4,119.8349633
,,,,Conditions/Version_1/zeroback(1)_v1.xlsx,Rule: Press 'space' when you see the letter 'x' or 'X'.,x,space,,,,,,,,,0,0,0,0,0,3,3,3,,,,,,,,,,,,,,,,,,,,,,,,,,,,,,,,,,,,,,,,,,,,,,,,,,,,,,,,,,,,,,,,,,,,,1.4688,403.3508409,None,space,1,403.3508409,None,0.5944486,P051,fencog,1,Post,2022_Jun_17_1041,N-Back (New Version 2021),2021.1.4,119.8349633
,,,,Conditions/Version_1/zeroback(1)_v1.xlsx,Rule: Press 'space' when you see the letter 'x' or 'X'.,o,None,,,,,,,,,0,0,0,0,0,4,4,4,,,,,,,,,,,,,,,,,,,,,,,,,,,,,,,,,,,,,,,,,,,,,,,,,,,,,,,,,,,,,,,,,,,,,1.909,407.2682521,None,None,1,407.2682521,None,,P051,fencog,1,Post,2022_Jun_17_1041,N-Back (New Version 2021),2021.1.4,119.8349633
,,,,Conditions/Version_1/zeroback(1)_v1.xlsx,Rule: Press 'space' when you see the letter 'x' or 'X'.,P,None,,,,,,,,,0,0,0,0,0,5,5,5,,,,,,,,,,,,,,,,,,,,,,,,,,,,,,,,,,,,,,,,,,,,,,,,,,,,,,,,,,,,,,,,,,,,,1.6052,410.8819091,None,None,1,410.8819091,None,,P051,fencog,1,Post,2022_Jun_17_1041,N-Back (New Version 2021),2021.1.4,119.8349633
,,,,Conditions/Version_1/zeroback(1)_v1.xlsx,Rule: Press 'space' when you see the letter 'x' or 'X'.,X,space,,,,,,,,,0,0,0,0,0,6,6,6,,,,,,,,,,,,,,,,,,,,,,,,,,,,,,,,,,,,,,,,,,,,,,,,,,,,,,,,,,,,,,,,,,,,,1.7912,414.6736331,None,space,1,414.6736331,None,0.423674,P051,fencog,1,Post,2022_Jun_17_1041,N-Back (New Version 2021),2021.1.4,119.8349633
,,,,Conditions/Version_1/zeroback(1)_v1.xlsx,Rule: Press 'space' when you see the letter 'x' or 'X'.,n,None,,,,,,,,,0,0,0,0,0,7,7,7,,,,,,,,,,,,,,,,,,,,,,,,,,,,,,,,,,,,,,,,,,,,,,,,,,,,,,,,,,,,,,,,,,,,,1.2952,417.9819748,None,None,1,417.9819748,None,,P051,fencog,1,Post,2022_Jun_17_1041,N-Back (New Version 2021),2021.1.4,119.8349633
,,,,Conditions/Version_1/zeroback(1)_v1.xlsx,Rule: Press 'space' when you see the letter 'x' or 'X'.,M,None,,,,,,,,,0,0,0,0,0,8,8,8,,,,,,,,,,,,,,,,,,,,,,,,,,,,,,,,,,,,,,,,,,,,,,,,,,,,,,,,,,,,,,,,,,,,,1.103,421.0998463,None,None,1,421.0998463,None,,P051,fencog,1,Post,2022_Jun_17_1041,N-Back (New Version 2021),2021.1.4,119.8349633
,,,,Conditions/Version_1/zeroback(1)_v1.xlsx,Rule: Press 'space' when you see the letter 'x' or 'X'.,a,None,,,,,,,,,0,0,0,0,0,9,9,9,,,,,,,,,,,,,,,,,,,,,,,,,,,,,,,,,,,,,,,,,,,,,,,,,,,,,,,,,,,,,,,,,,,,,1.7416,424.8444071,None,None,1,424.8444071,None,,P051,fencog,1,Post,2022_Jun_17_1041,N-Back (New Version 2021),2021.1.4,119.8349633
,,,,Conditions/Version_1/zeroback(1)_v1.xlsx,Rule: Press 'space' when you see the letter 'x' or 'X'.,,,,,,,,,,,0,0,0,0,,,,,,,,,,,,,,,,,,,,,,,,,,,,,,,,,,,,,,,,,,,,,,,,,,,,,,,,,,,,,,,,,,,,,,,,,,,,,,,,,P051,fencog,1,Post,2022_Jun_17_1041,N-Back (New Version 2021),2021.1.4,119.8349633
,,,,Conditions/Version_1/oneback(1)_v1.xlsx,New rule: Press 'space' when you see 1-back (i.e. the same letter as the one that appeared 1 letter ago.),b,None,,,,,,,,,0,1,1,1,0,0,0,0,,,,,,,,,,,,,,,,,,,,,,,,,,,,,,,,,,,,,,,,,,,,,,,,,,,,,,,,,,,426.8711282,None,429.853961,None,space,2.4673718,429.853961,None,426.8711282,None,1.754,434.1187512,None,None,1,434.1187512,None,,P051,fencog,1,Post,2022_Jun_17_1041,N-Back (New Version 2021),2021.1.4,119.8349633
,,,,Conditions/Version_1/oneback(1)_v1.xlsx,New rule: Press 'space' when you see 1-back (i.e. the same letter as the one that appeared 1 letter ago.),p,None,,,,,,,,,0,1,1,1,0,1,1,1,,,,,,,,,,,,,,,,,,,,,,,,,,,,,,,,,,,,,,,,,,,,,,,,,,,,,,,,,,,,,,,,,,,,,1.4812,437.6095808,None,None,1,437.6095808,None,,P051,fencog,1,Post,2022_Jun_17_1041,N-Back (New Version 2021),2021.1.4,119.8349633
,,,,Conditions/Version_1/oneback(1)_v1.xlsx,New rule: Press 'space' when you see 1-back (i.e. the same letter as the one that appeared 1 letter ago.),M,None,,,,,,,,,0,1,1,1,0,2,2,2,,,,,,,,,,,,,,,,,,,,,,,,,,,,,,,,,,,,,,,,,,,,,,,,,,,,,,,,,,,,,,,,,,,,,1.7912,441.4062779,None,None,1,441.4062779,None,,P051,fencog,1,Post,2022_Jun_17_1041,N-Back (New Version 2021),2021.1.4,119.8349633
,,,,Conditions/Version_1/oneback(1)_v1.xlsx,New rule: Press 'space' when you see 1-back (i.e. the same letter as the one that appeared 1 letter ago.),M,space,,,,,,,,,0,1,1,1,0,3,3,3,,,,,,,,,,,,,,,,,,,,,,,,,,,,,,,,,,,,,,,,,,,,,,,,,,,,,,,,,,,,,,,,,,,,,1.8966,445.3052928,None,space,1,445.3052928,None,0.6479457,P051,fencog,1,Post,2022_Jun_17_1041,N-Back (New Version 2021),2021.1.4,119.8349633
,,,,Conditions/Version_1/oneback(1)_v1.xlsx,New rule: Press 'space' when you see 1-back (i.e. the same letter as the one that appeared 1 letter ago.),n,None,,,,,,,,,0,1,1,1,0,4,4,4,,,,,,,,,,,,,,,,,,,,,,,,,,,,,,,,,,,,,,,,,,,,,,,,,,,,,,,,,,,,,,,,,,,,,1.9152,449.2225058,None,None,1,449.2225058,None,,P051,fencog,1,Post,2022_Jun_17_1041,N-Back (New Version 2021),2021.1.4,119.8349633
,,,,Conditions/Version_1/oneback(1)_v1.xlsx,New rule: Press 'space' when you see 1-back (i.e. the same letter as the one that appeared 1 letter ago.),g,None,,,,,,,,,0,1,1,1,0,5,5,5,,,,,,,,,,,,,,,,,,,,,,,,,,,,,,,,,,,,,,,,,,,,,,,,,,,,,,,,,,,,,,,,,,,,,1.816,453.0466414,None,None,1,453.0466414,None,,P051,fencog,1,Post,2022_Jun_17_1041,N-Back (New Version 2021),2021.1.4,119.8349633
,,,,Conditions/Version_1/oneback(1)_v1.xlsx,New rule: Press 'space' when you see 1-back (i.e. the same letter as the one that appeared 1 letter ago.),P,None,,,,,,,,,0,1,1,1,0,6,6,6,,,,,,,,,,,,,,,,,,,,,,,,,,,,,,,,,,,,,,,,,,,,,,,,,,,,,,,,,,,,,,,,,,,,,1.258,456.3114348,None,None,1,456.3114348,None,,P051,fencog,1,Post,2022_Jun_17_1041,N-Back (New Version 2021),2021.1.4,119.8349633
,,,,Conditions/Version_1/oneback(1)_v1.xlsx,New rule: Press 'space' when you see 1-back (i.e. the same letter as the one that appeared 1 letter ago.),o,None,,,,,,,,,0,1,1,1,0,7,7,7,,,,,,,,,,,,,,,,,,,,,,,,,,,,,,,,,,,,,,,,,,,,,,,,,,,,,,,,,,,,,,,,,,,,,1.7354,460.0598894,None,None,1,460.0598894,None,,P051,fencog,1,Post,2022_Jun_17_1041,N-Back (New Version 2021),2021.1.4,119.8349633
,,,,Conditions/Version_1/oneback(1)_v1.xlsx,New rule: Press 'space' when you see 1-back (i.e. the same letter as the one that appeared 1 letter ago.),f,None,,,,,,,,,0,1,1,1,0,8,8,8,,,,,,,,,,,,,,,,,,,,,,,,,,,,,,,,,,,,,,,,,,,,,,,,,,,,,,,,,,,,,,,,,,,,,1.6176,463.6930909,None,None,1,463.6930909,None,,P051,fencog,1,Post,2022_Jun_17_1041,N-Back (New Version 2021),2021.1.4,119.8349633
,,,,Conditions/Version_1/oneback(1)_v1.xlsx,New rule: Press 'space' when you see 1-back (i.e. the same letter as the one that appeared 1 letter ago.),F,space,,,,,,,,,0,1,1,1,0,9,9,9,,,,,,,,,,,,,,,,,,,,,,,,,,,,,,,,,,,,,,,,,,,,,,,,,,,,,,,,,,,,,,,,,,,,,1.3138,467.0162909,None,space,1,467.0162909,None,0.5932428,P051,fencog,1,Post,2022_Jun_17_1041,N-Back (New Version 2021),2021.1.4,119.8349633
,,,,Conditions/Version_1/oneback(1)_v1.xlsx,New rule: Press 'space' when you see 1-back (i.e. the same letter as the one that appeared 1 letter ago.),,,,,,,,,,,0,1,1,1,,,,,,,,,,,,,,,,,,,,,,,,,,,,,,,,,,,,,,,,,,,,,,,,,,,,,,,,,,,,,,,,,,,,,,,,,,,,,,,,,P051,fencog,1,Post,2022_Jun_17_1041,N-Back (New Version 2021),2021.1.4,119.8349633
,,,,Conditions/Version_1/twoback(1)_v1.xlsx,New rule: Press 'space' when you see 2-back (i.e. the same letter as the one that appeared 2 letters ago.),b,None,,,,,,,,,0,2,2,2,0,0,0,0,,,,,,,,,,,,,,,,,,,,,,,,,,,,,,,,,,,,,,,,,,,,,,,,,,,,,,,,,,,469.0447162,None,472.0313922,None,space,15.1776663,472.0313922,None,469.0447162,None,1.5866,488.8350067,None,None,1,488.8350067,None,,P051,fencog,1,Post,2022_Jun_17_1041,N-Back (New Version 2021),2021.1.4,119.8349633
,,,,Conditions/Version_1/twoback(1)_v1.xlsx,New rule: Press 'space' when you see 2-back (i.e. the same letter as the one that appeared 2 letters ago.),h,None,,,,,,,,,0,2,2,2,0,1,1,1,,,,,,,,,,,,,,,,,,,,,,,,,,,,,,,,,,,,,,,,,,,,,,,,,,,,,,,,,,,,,,,,,,,,,1.9028,492.7512377,None,None,1,492.7512377,None,,P051,fencog,1,Post,2022_Jun_17_1041,N-Back (New Version 2021),2021.1.4,119.8349633
,,,,Conditions/Version_1/twoback(1)_v1.xlsx,New rule: Press 'space' when you see 2-back (i.e. the same letter as the one that appeared 2 letters ago.),j,None,,,,,,,,,0,2,2,2,0,2,2,2,,,,,,,,,,,,,,,,,,,,,,,,,,,,,,,,,,,,,,,,,,,,,,,,,,,,,,,,,,,,,,,,,,,,,1.1216,495.8832761,None,None,1,495.8832761,None,,P051,fencog,1,Post,2022_Jun_17_1041,N-Back (New Version 2021),2021.1.4,119.8349633
,,,,Conditions/Version_1/twoback(1)_v1.xlsx,New rule: Press 'space' when you see 2-back (i.e. the same letter as the one that appeared 2 letters ago.),H,space,,,,,,,,,0,2,2,2,0,3,3,3,,,,,,,,,,,,,,,,,,,,,,,,,,,,,,,,,,,,,,,,,,,,,,,,,,,,,,,,,,,,,,,,,,,,,1.6424,499.5430839,None,space,1,499.5430839,None,0.794001,P051,fencog,1,Post,2022_Jun_17_1041,N-Back (New Version 2021),2021.1.4,119.8349633
,,,,Conditions/Version_1/twoback(1)_v1.xlsx,New rule: Press 'space' when you see 2-back (i.e. the same letter as the one that appeared 2 letters ago.),p,None,,,,,,,,,0,2,2,2,0,4,4,4,,,,,,,,,,,,,,,,,,,,,,,,,,,,,,,,,,,,,,,,,,,,,,,,,,,,,,,,,,,,,,,,,,,,,1.1526,502.7047581,None,None,1,502.7047581,None,,P051,fencog,1,Post,2022_Jun_17_1041,N-Back (New Version 2021),2021.1.4,119.8349633
,,,,Conditions/Version_1/twoback(1)_v1.xlsx,New rule: Press 'space' when you see 2-back (i.e. the same letter as the one that appeared 2 letters ago.),p,None,,,,,,,,,0,2,2,2,0,5,5,5,,,,,,,,,,,,,,,,,,,,,,,,,,,,,,,,,,,,,,,,,,,,,,,,,,,,,,,,,,,,,,,,,,,,,1.2146,505.920553,None,None,1,505.920553,None,,P051,fencog,1,Post,2022_Jun_17_1041,N-Back (New Version 2021),2021.1.4,119.8349633
,,,,Conditions/Version_1/twoback(1)_v1.xlsx,New rule: Press 'space' when you see 2-back (i.e. the same letter as the one that appeared 2 letters ago.),w,None,,,,,,,,,0,2,2,2,0,6,6,6,,,,,,,,,,,,,,,,,,,,,,,,,,,,,,,,,,,,,,,,,,,,,,,,,,,,,,,,,,,,,,,,,,,,,1.7602,509.6865684,None,None,1,509.6865684,None,,P051,fencog,1,Post,2022_Jun_17_1041,N-Back (New Version 2021),2021.1.4,119.8349633
,,,,Conditions/Version_1/twoback(1)_v1.xlsx,New rule: Press 'space' when you see 2-back (i.e. the same letter as the one that appeared 2 letters ago.),R,None,,,,,,,,,0,2,2,2,0,7,7,7,,,,,,,,,,,,,,,,,,,,,,,,,,,,,,,,,,,,,,,,,,,,,,,,,,,,,,,,,,,,,,,,,,,,,1.8036,513.4954914,None,None,1,513.4954914,None,,P051,fencog,1,Post,2022_Jun_17_1041,N-Back (New Version 2021),2021.1.4,119.8349633
,,,,Conditions/Version_1/twoback(1)_v1.xlsx,New rule: Press 'space' when you see 2-back (i.e. the same letter as the one that appeared 2 letters ago.),a,None,,,,,,,,,0,2,2,2,0,8,8,8,,,,,,,,,,,,,,,,,,,,,,,,,,,,,,,,,,,,,,,,,,,,,,,,,,,,,,,,,,,,,,,,,,,,,1.413,516.9183392,None,None,1,516.9183392,None,,P051,fencog,1,Post,2022_Jun_17_1041,N-Back (New Version 2021),2021.1.4,119.8349633
,,,,Conditions/Version_1/twoback(1)_v1.xlsx,New rule: Press 'space' when you see 2-back (i.e. the same letter as the one that appeared 2 letters ago.),r,space,,,,,,,,,0,2,2,2,0,9,9,9,,,,,,,,,,,,,,,,,,,,,,,,,,,,,,,,,,,,,,,,,,,,,,,,,,,,,,,,,,,,,,,,,,,,,1.909,520.8415031,None,space,1,520.8415031,None,0.4476613,P051,fencog,1,Post,2022_Jun_17_1041,N-Back (New Version 2021),2021.1.4,119.8349633
,,,,Conditions/Version_1/twoback(1)_v1.xlsx,New rule: Press 'space' when you see 2-back (i.e. the same letter as the one that appeared 2 letters ago.),,,,,,,,,,,0,2,2,2,,,,,,,,,,,,,,,,,,,,,,,,,,,,,,,,,,,,,,,,,,,,,,,,,,,,,,,,,,,,,,,,,,,,,,,,,,,,,,,,,P051,fencog,1,Post,2022_Jun_17_1041,N-Back (New Version 2021),2021.1.4,119.8349633
,,,,Conditions/Version_1/threeback(1)_v1.xlsx,New rule: Press 'space' when you see 3-back (i.e. the same letter as the one that appeared 3 letters ago.),r,None,,,,,,,,,0,3,3,3,0,0,0,0,,,,,,,,,,,,,,,,,,,,,,,,,,,,,,,,,,,,,,,,,,,,,,,,,,,,,,,,,,,522.8645138,None,525.8502954,None,space,0.4467081,525.8502954,None,522.8645138,None,1.2456,527.5726429,None,None,1,527.5726429,None,,P051,fencog,1,Post,2022_Jun_17_1041,N-Back (New Version 2021),2021.1.4,119.8349633
,,,,Conditions/Version_1/threeback(1)_v1.xlsx,New rule: Press 'space' when you see 3-back (i.e. the same letter as the one that appeared 3 letters ago.),o,None,,,,,,,,,0,3,3,3,0,1,1,1,,,,,,,,,,,,,,,,,,,,,,,,,,,,,,,,,,,,,,,,,,,,,,,,,,,,,,,,,,,,,,,,,,,,,1.9462,531.5218772,None,None,1,531.5218772,None,,P051,fencog,1,Post,2022_Jun_17_1041,N-Back (New Version 2021),2021.1.4,119.8349633
,,,,Conditions/Version_1/threeback(1)_v1.xlsx,New rule: Press 'space' when you see 3-back (i.e. the same letter as the one that appeared 3 letters ago.),P,None,,,,,,,,,0,3,3,3,0,2,2,2,,,,,,,,,,,,,,,,,,,,,,,,,,,,,,,,,,,,,,,,,,,,,,,,,,,,,,,,,,,,,,,,,,,,,1.7292,535.2617987,None,None,1,535.2617987,None,,P051,fencog,1,Post,2022_Jun_17_1041,N-Back (New Version 2021),2021.1.4,119.8349633
,,,,Conditions/Version_1/threeback(1)_v1.xlsx,New rule: Press 'space' when you see 3-back (i.e. the same letter as the one that appeared 3 letters ago.),R,space,,,,,,,,,0,3,3,3,0,3,3,3,,,,,,,,,,,,,,,,,,,,,,,,,,,,,,,,,,,,,,,,,,,,,,,,,,,,,,,,,,,,,,,,,,,,,1.4502,538.7109005,None,space,1,538.7109005,None,0.5702542,P051,fencog,1,Post,2022_Jun_17_1041,N-Back (New Version 2021),2021.1.4,119.8349633
,,,,Conditions/Version_1/threeback(1)_v1.xlsx,New rule: Press 'space' when you see 3-back (i.e. the same letter as the one that appeared 3 letters ago.),p,None,,,,,,,,,0,3,3,3,0,4,4,4,,,,,,,,,,,,,,,,,,,,,,,,,,,,,,,,,,,,,,,,,,,,,,,,,,,,,,,,,,,,,,,,,,,,,1.165,541.8765145,None,None,1,541.8765145,None,,P051,fencog,1,Post,2022_Jun_17_1041,N-Back (New Version 2021),2021.1.4,119.8349633
,,,,Conditions/Version_1/threeback(1)_v1.xlsx,New rule: Press 'space' when you see 3-back (i.e. the same letter as the one that appeared 3 letters ago.),E,None,,,,,,,,,0,3,3,3,0,5,5,5,,,,,,,,,,,,,,,,,,,,,,,,,,,,,,,,,,,,,,,,,,,,,,,,,,,,,,,,,,,,,,,,,,,,,1.785,545.6694778,None,None,1,545.6694778,None,,P051,fencog,1,Post,2022_Jun_17_1041,N-Back (New Version 2021),2021.1.4,119.8349633
,,,,Conditions/Version_1/threeback(1)_v1.xlsx,New rule: Press 'space' when you see 3-back (i.e. the same letter as the one that appeared 3 letters ago.),e,None,,,,,,,,,0,3,3,3,0,6,6,6,,,,,,,,,,,,,,,,,,,,,,,,,,,,,,,,,,,,,,,,,,,,,,,,,,,,,,,,,,,,,,,,,,,,,1.6238,549.3002602,None,None,1,549.3002602,None,,P051,fencog,1,Post,2022_Jun_17_1041,N-Back (New Version 2021),2021.1.4,119.8349633
,,,,Conditions/Version_1/threeback(1)_v1.xlsx,New rule: Press 'space' when you see 3-back (i.e. the same letter as the one that appeared 3 letters ago.),m,None,,,,,,,,,0,3,3,3,0,7,7,7,,,,,,,,,,,,,,,,,,,,,,,,,,,,,,,,,,,,,,,,,,,,,,,,,,,,,,,,,,,,,,,,,,,,,1.9214,553.235624,None,None,1,553.235624,None,,P051,fencog,1,Post,2022_Jun_17_1041,N-Back (New Version 2021),2021.1.4,119.8349633
,,,,Conditions/Version_1/threeback(1)_v1.xlsx,New rule: Press 'space' when you see 3-back (i.e. the same letter as the one that appeared 3 letters ago.),n,None,,,,,,,,,0,3,3,3,0,8,8,8,,,,,,,,,,,,,,,,,,,,,,,,,,,,,,,,,,,,,,,,,,,,,,,,,,,,,,,,,,,,,,,,,,,,,1.444,556.6898748,None,None,1,556.6898748,None,,P051,fencog,1,Post,2022_Jun_17_1041,N-Back (New Version 2021),2021.1.4,119.8349633
,,,,Conditions/Version_1/threeback(1)_v1.xlsx,New rule: Press 'space' when you see 3-back (i.e. the same letter as the one that appeared 3 letters ago.),e,space,,,,,,,,,0,3,3,3,0,9,9,9,,,,,,,,,,,,,,,,,,,,,,,,,,,,,,,,,,,,,,,,,,,,,,,,,,,,,,,,,,,,,,,,,,,,,1.878,560.5793597,None,space,1,560.5793597,None,1.0376269,P051,fencog,1,Post,2022_Jun_17_1041,N-Back (New Version 2021),2021.1.4,119.8349633
,,,,Conditions/Version_1/threeback(1)_v1.xlsx,New rule: Press 'space' when you see 3-back (i.e. the same letter as the one that appeared 3 letters ago.),,,,,,,,,,,0,3,3,3,,,,,,,,,,,,,,,,,,,,,,,,,,,,,,,,,,,,,,,,,,,,,,,,,,,,,,,,,,,,,,,,,,,,,,,,,,,,,,,,,P051,fencog,1,Post,2022_Jun_17_1041,N-Back (New Version 2021),2021.1.4,119.8349633
,,,,Conditions/Version_1/oneback(2)_v1.xlsx,New rule: Press 'space' when you see 1-back (i.e. the same letter as the one that appeared 1 letter ago.),q,None,,,,,,,,,0,4,4,4,0,0,0,0,,,,,,,,,,,,,,,,,,,,,,,,,,,,,,,,,,,,,,,,,,,,,,,,,,,,,,,,,,,562.6124434,None,565.5887454,None,space,23.869213,565.5887454,None,562.6124434,None,1.7912,591.2890581,None,None,1,591.2890581,None,,P051,fencog,1,Post,2022_Jun_17_1041,N-Back (New Version 2021),2021.1.4,119.8349633
,,,,Conditions/Version_1/oneback(2)_v1.xlsx,New rule: Press 'space' when you see 1-back (i.e. the same letter as the one that appeared 1 letter ago.),Q,space,,,,,,,,,0,4,4,4,0,1,1,1,,,,,,,,,,,,,,,,,,,,,,,,,,,,,,,,,,,,,,,,,,,,,,,,,,,,,,,,,,,,,,,,,,,,,1.3138,594.6116595,None,space,1,594.6116595,None,0.4533434,P051,fencog,1,Post,2022_Jun_17_1041,N-Back (New Version 2021),2021.1.4,119.8349633
,,,,Conditions/Version_1/oneback(2)_v1.xlsx,New rule: Press 'space' when you see 1-back (i.e. the same letter as the one that appeared 1 letter ago.),P,None,,,,,,,,,0,4,4,4,0,2,2,2,,,,,,,,,,,,,,,,,,,,,,,,,,,,,,,,,,,,,,,,,,,,,,,,,,,,,,,,,,,,,,,,,,,,,1.2332,597.8516973,None,None,1,597.8516973,None,,P051,fencog,1,Post,2022_Jun_17_1041,N-Back (New Version 2021),2021.1.4,119.8349633
,,,,Conditions/Version_1/oneback(2)_v1.xlsx,New rule: Press 'space' when you see 1-back (i.e. the same letter as the one that appeared 1 letter ago.),o,None,,,,,,,,,0,4,4,4,0,3,3,3,,,,,,,,,,,,,,,,,,,,,,,,,,,,,,,,,,,,,,,,,,,,,,,,,,,,,,,,,,,,,,,,,,,,,1.6672,601.5174215,None,None,1,601.5174215,None,,P051,fencog,1,Post,2022_Jun_17_1041,N-Back (New Version 2021),2021.1.4,119.8349633
,,,,Conditions/Version_1/oneback(2)_v1.xlsx,New rule: Press 'space' when you see 1-back (i.e. the same letter as the one that appeared 1 letter ago.),m,None,,,,,,,,,0,4,4,4,0,4,4,4,,,,,,,,,,,,,,,,,,,,,,,,,,,,,,,,,,,,,,,,,,,,,,,,,,,,,,,,,,,,,,,,,,,,,1.4998,605.0174264,None,None,1,605.0174264,None,,P051,fencog,1,Post,2022_Jun_17_1041,N-Back (New Version 2021),2021.1.4,119.8349633
,,,,Conditions/Version_1/oneback(2)_v1.xlsx,New rule: Press 'space' when you see 1-back (i.e. the same letter as the one that appeared 1 letter ago.),Z,None,,,,,,,,,0,4,4,4,0,5,5,5,,,,,,,,,,,,,,,,,,,,,,,,,,,,,,,,,,,,,,,,,,,,,,,,,,,,,,,,,,,,,,,,,,,,,1.4316,608.4576793,None,None,1,608.4576793,None,,P051,fencog,1,Post,2022_Jun_17_1041,N-Back (New Version 2021),2021.1.4,119.8349633
,,,,Conditions/Version_1/oneback(2)_v1.xlsx,New rule: Press 'space' when you see 1-back (i.e. the same letter as the one that appeared 1 letter ago.),c,None,,,,,,,,,0,4,4,4,0,6,6,6,,,,,,,,,,,,,,,,,,,,,,,,,,,,,,,,,,,,,,,,,,,,,,,,,,,,,,,,,,,,,,,,,,,,,1.568,612.040252,None,None,1,612.040252,None,,P051,fencog,1,Post,2022_Jun_17_1041,N-Back (New Version 2021),2021.1.4,119.8349633
,,,,Conditions/Version_1/oneback(2)_v1.xlsx,New rule: Press 'space' when you see 1-back (i.e. the same letter as the one that appeared 1 letter ago.),c,space,,,,,,,,,0,4,4,4,0,7,7,7,,,,,,,,,,,,,,,,,,,,,,,,,,,,,,,,,,,,,,,,,,,,,,,,,,,,,,,,,,,,,,,,,,,,,1.6114,615.6631656,None,None,0,615.6631656,None,,P051,fencog,1,Post,2022_Jun_17_1041,N-Back (New Version 2021),2021.1.4,119.8349633
,,,,Conditions/Version_1/oneback(2)_v1.xlsx,New rule: Press 'space' when you see 1-back (i.e. the same letter as the one that appeared 1 letter ago.),P,None,,,,,,,,,0,4,4,4,0,8,8,8,,,,,,,,,,,,,,,,,,,,,,,,,,,,,,,,,,,,,,,,,,,,,,,,,,,,,,,,,,,,,,,,,,,,,1.6238,619.28787,None,None,1,619.28787,None,,P051,fencog,1,Post,2022_Jun_17_1041,N-Back (New Version 2021),2021.1.4,119.8349633
,,,,Conditions/Version_1/oneback(2)_v1.xlsx,New rule: Press 'space' when you see 1-back (i.e. the same letter as the one that appeared 1 letter ago.),p,space,,,,,,,,,0,4,4,4,0,9,9,9,,,,,,,,,,,,,,,,,,,,,,,,,,,,,,,,,,,,,,,,,,,,,,,,,,,,,,,,,,,,,,,,,,,,,1.227,622.5297586,None,space,1,622.5297586,None,0.6874083,P051,fencog,1,Post,2022_Jun_17_1041,N-Back (New Version 2021),2021.1.4,119.8349633
,,,,Conditions/Version_1/oneback(2)_v1.xlsx,New rule: Press 'space' when you see 1-back (i.e. the same letter as the one that appeared 1 letter ago.),,,,,,,,,,,0,4,4,4,,,,,,,,,,,,,,,,,,,,,,,,,,,,,,,,,,,,,,,,,,,,,,,,,,,,,,,,,,,,,,,,,,,,,,,,,,,,,,,,,P051,fencog,1,Post,2022_Jun_17_1041,N-Back (New Version 2021),2021.1.4,119.8349633
,,,,Conditions/Version_1/zeroback(2)_v1.xlsx,New rule: Press 'space' when you see the letter 'x' or 'X'.,p,None,,,,,,,,,0,5,5,5,0,0,0,0,,,,,,,,,,,,,,,,,,,,,,,,,,,,,,,,,,,,,,,,,,,,,,,,,,,,,,,,,,,624.5547069,None,627.5366388,None,space,0.2083175,627.5366388,None,624.5547069,None,1.6424,629.4172534,None,None,1,629.4172534,None,,P051,fencog,1,Post,2022_Jun_17_1041,N-Back (New Version 2021),2021.1.4,119.8349633
,,,,Conditions/Version_1/zeroback(2)_v1.xlsx,New rule: Press 'space' when you see the letter 'x' or 'X'.,L,None,,,,,,,,,0,5,5,5,0,1,1,1,,,,,,,,,,,,,,,,,,,,,,,,,,,,,,,,,,,,,,,,,,,,,,,,,,,,,,,,,,,,,,,,,,,,,1.1278,632.5497562,None,None,1,632.5497562,None,,P051,fencog,1,Post,2022_Jun_17_1041,N-Back (New Version 2021),2021.1.4,119.8349633
,,,,Conditions/Version_1/zeroback(2)_v1.xlsx,New rule: Press 'space' when you see the letter 'x' or 'X'.,G,None,,,,,,,,,0,5,5,5,0,2,2,2,,,,,,,,,,,,,,,,,,,,,,,,,,,,,,,,,,,,,,,,,,,,,,,,,,,,,,,,,,,,,,,,,,,,,1.6672,636.2240766,None,None,1,636.2240766,None,,P051,fencog,1,Post,2022_Jun_17_1041,N-Back (New Version 2021),2021.1.4,119.8349633
,,,,Conditions/Version_1/zeroback(2)_v1.xlsx,New rule: Press 'space' when you see the letter 'x' or 'X'.,y,None,,,,,,,,,0,5,5,5,0,3,3,3,,,,,,,,,,,,,,,,,,,,,,,,,,,,,,,,,,,,,,,,,,,,,,,,,,,,,,,,,,,,,,,,,,,,,1.2766,639.5061026,None,None,1,639.5061026,None,,P051,fencog,1,Post,2022_Jun_17_1041,N-Back (New Version 2021),2021.1.4,119.8349633
,,,,Conditions/Version_1/zeroback(2)_v1.xlsx,New rule: Press 'space' when you see the letter 'x' or 'X'.,Y,None,,,,,,,,,0,5,5,5,0,4,4,4,,,,,,,,,,,,,,,,,,,,,,,,,,,,,,,,,,,,,,,,,,,,,,,,,,,,,,,,,,,,,,,,,,,,,1.0844,642.5965787,None,None,1,642.5965787,None,,P051,fencog,1,Post,2022_Jun_17_1041,N-Back (New Version 2021),2021.1.4,119.8349633
,,,,Conditions/Version_1/zeroback(2)_v1.xlsx,New rule: Press 'space' when you see the letter 'x' or 'X'.,W,None,,,,,,,,,0,5,5,5,0,5,5,5,,,,,,,,,,,,,,,,,,,,,,,,,,,,,,,,,,,,,,,,,,,,,,,,,,,,,,,,,,,,,,,,,,,,,1.9524,646.5582801,None,None,1,646.5582801,None,,P051,fencog,1,Post,2022_Jun_17_1041,N-Back (New Version 2021),2021.1.4,119.8349633
,,,,Conditions/Version_1/zeroback(2)_v1.xlsx,New rule: Press 'space' when you see the letter 'x' or 'X'.,x,space,,,,,,,,,0,5,5,5,0,6,6,6,,,,,,,,,,,,,,,,,,,,,,,,,,,,,,,,,,,,,,,,,,,,,,,,,,,,,,,,,,,,,,,,,,,,,1.227,649.7958839,None,space,1,649.7958839,None,0.7252874,P051,fencog,1,Post,2022_Jun_17_1041,N-Back (New Version 2021),2021.1.4,119.8349633
,,,,Conditions/Version_1/zeroback(2)_v1.xlsx,New rule: Press 'space' when you see the letter 'x' or 'X'.,X,space,,,,,,,,,0,5,5,5,0,7,7,7,,,,,,,,,,,,,,,,,,,,,,,,,,,,,,,,,,,,,,,,,,,,,,,,,,,,,,,,,,,,,,,,,,,,,1.01,652.8221656,None,space,1,652.8221656,None,0.6668311,P051,fencog,1,Post,2022_Jun_17_1041,N-Back (New Version 2021),2021.1.4,119.8349633
,,,,Conditions/Version_1/zeroback(2)_v1.xlsx,New rule: Press 'space' when you see the letter 'x' or 'X'.,p,None,,,,,,,,,0,5,5,5,0,8,8,8,,,,,,,,,,,,,,,,,,,,,,,,,,,,,,,,,,,,,,,,,,,,,,,,,,,,,,,,,,,,,,,,,,,,,1.2394,656.0677429,None,None,1,656.0677429,None,,P051,fencog,1,Post,2022_Jun_17_1041,N-Back (New Version 2021),2021.1.4,119.8349633
,,,,Conditions/Version_1/zeroback(2)_v1.xlsx,New rule: Press 'space' when you see the letter 'x' or 'X'.,h,None,,,,,,,,,0,5,5,5,0,9,9,9,,,,,,,,,,,,,,,,,,,,,,,,,,,,,,,,,,,,,,,,,,,,,,,,,,,,,,,,,,,,,,,,,,,,,1.041,659.1097118,None,None,1,659.1097118,None,,P051,fencog,1,Post,2022_Jun_17_1041,N-Back (New Version 2021),2021.1.4,119.8349633
,,,,Conditions/Version_1/zeroback(2)_v1.xlsx,New rule: Press 'space' when you see the letter 'x' or 'X'.,,,,,,,,,,,0,5,5,5,,,,,,,,,,,,,,,,,,,,,,,,,,,,,,,,,,,,,,,,,,,,,,,,,,,,,,,,,,,,,,,,,,,,,,,,,,,,,,,,,P051,fencog,1,Post,2022_Jun_17_1041,N-Back (New Version 2021),2021.1.4,119.8349633
,,,,Conditions/Version_1/threeback(2)_v1.xlsx,New rule: Press 'space' when you see 3-back (i.e. the same letter as the one that appeared 3 letters ago.),q,None,,,,,,,,,0,6,6,6,0,0,0,0,,,,,,,,,,,,,,,,,,,,,,,,,,,,,,,,,,,,,,,,,,,,,,,,,,,,,,,,,,,661.1401767,None,664.1260976,None,space,7.5309333,664.1260976,None,661.1401767,None,1.3572,673.0461561,None,None,1,673.0461561,None,,P051,fencog,1,Post,2022_Jun_17_1041,N-Back (New Version 2021),2021.1.4,119.8349633
,,,,Conditions/Version_1/threeback(2)_v1.xlsx,New rule: Press 'space' when you see 3-back (i.e. the same letter as the one that appeared 3 letters ago.),Y,None,,,,,,,,,0,6,6,6,0,1,1,1,,,,,,,,,,,,,,,,,,,,,,,,,,,,,,,,,,,,,,,,,,,,,,,,,,,,,,,,,,,,,,,,,,,,,1.6672,676.7237666,None,None,1,676.7237666,None,,P051,fencog,1,Post,2022_Jun_17_1041,N-Back (New Version 2021),2021.1.4,119.8349633
,,,,Conditions/Version_1/threeback(2)_v1.xlsx,New rule: Press 'space' when you see 3-back (i.e. the same letter as the one that appeared 3 letters ago.),p,None,,,,,,,,,0,6,6,6,0,2,2,2,,,,,,,,,,,,,,,,,,,,,,,,,,,,,,,,,,,,,,,,,,,,,,,,,,,,,,,,,,,,,,,,,,,,,1.8098,680.543971,None,None,1,680.543971,None,,P051,fencog,1,Post,2022_Jun_17_1041,N-Back (New Version 2021),2021.1.4,119.8349633
,,,,Conditions/Version_1/threeback(2)_v1.xlsx,New rule: Press 'space' when you see 3-back (i.e. the same letter as the one that appeared 3 letters ago.),p,None,,,,,,,,,0,6,6,6,0,3,3,3,,,,,,,,,,,,,,,,,,,,,,,,,,,,,,,,,,,,,,,,,,,,,,,,,,,,,,,,,,,,,,,,,,,,,1.878,684.4261328,None,None,1,684.4261328,None,,P051,fencog,1,Post,2022_Jun_17_1041,N-Back (New Version 2021),2021.1.4,119.8349633
,,,,Conditions/Version_1/threeback(2)_v1.xlsx,New rule: Press 'space' when you see 3-back (i.e. the same letter as the one that appeared 3 letters ago.),y,space,,,,,,,,,0,6,6,6,0,4,4,4,,,,,,,,,,,,,,,,,,,,,,,,,,,,,,,,,,,,,,,,,,,,,,,,,,,,,,,,,,,,,,,,,,,,,1.8842,688.317755,None,space,1,688.317755,None,0.5554421,P051,fencog,1,Post,2022_Jun_17_1041,N-Back (New Version 2021),2021.1.4,119.8349633
,,,,Conditions/Version_1/threeback(2)_v1.xlsx,New rule: Press 'space' when you see 3-back (i.e. the same letter as the one that appeared 3 letters ago.),u,None,,,,,,,,,0,6,6,6,0,5,5,5,,,,,,,,,,,,,,,,,,,,,,,,,,,,,,,,,,,,,,,,,,,,,,,,,,,,,,,,,,,,,,,,,,,,,1.5804,691.8998344,None,None,1,691.8998344,None,,P051,fencog,1,Post,2022_Jun_17_1041,N-Back (New Version 2021),2021.1.4,119.8349633
,,,,Conditions/Version_1/threeback(2)_v1.xlsx,New rule: Press 'space' when you see 3-back (i.e. the same letter as the one that appeared 3 letters ago.),P,space,,,,,,,,,0,6,6,6,0,6,6,6,,,,,,,,,,,,,,,,,,,,,,,,,,,,,,,,,,,,,,,,,,,,,,,,,,,,,,,,,,,,,,,,,,,,,1.0472,694.9563603,None,None,0,694.9563603,None,,P051,fencog,1,Post,2022_Jun_17_1041,N-Back (New Version 2021),2021.1.4,119.8349633
,,,,Conditions/Version_1/threeback(2)_v1.xlsx,New rule: Press 'space' when you see 3-back (i.e. the same letter as the one that appeared 3 letters ago.),a,None,,,,,,,,,0,6,6,6,0,7,7,7,,,,,,,,,,,,,,,,,,,,,,,,,,,,,,,,,,,,,,,,,,,,,,,,,,,,,,,,,,,,,,,,,,,,,1.0162,697.9729682,None,None,1,697.9729682,None,,P051,fencog,1,Post,2022_Jun_17_1041,N-Back (New Version 2021),2021.1.4,119.8349633
,,,,Conditions/Version_1/threeback(2)_v1.xlsx,New rule: Press 'space' when you see 3-back (i.e. the same letter as the one that appeared 3 letters ago.),U,space,,,,,,,,,0,6,6,6,0,8,8,8,,,,,,,,,,,,,,,,,,,,,,,,,,,,,,,,,,,,,,,,,,,,,,,,,,,,,,,,,,,,,,,,,,,,,1.5618,701.5483238,None,None,0,701.5483238,None,,P051,fencog,1,Post,2022_Jun_17_1041,N-Back (New Version 2021),2021.1.4,119.8349633
,,,,Conditions/Version_1/threeback(2)_v1.xlsx,New rule: Press 'space' when you see 3-back (i.e. the same letter as the one that appeared 3 letters ago.),q,None,,,,,,,,,0,6,6,6,0,9,9,9,,,,,,,,,,,,,,,,,,,,,,,,,,,,,,,,,,,,,,,,,,,,,,,,,,,,,,,,,,,,,,,,,,,,,1.0224,704.5808079,None,None,1,704.5808079,None,,P051,fencog,1,Post,2022_Jun_17_1041,N-Back (New Version 2021),2021.1.4,119.8349633
,,,,Conditions/Version_1/threeback(2)_v1.xlsx,New rule: Press 'space' when you see 3-back (i.e. the same letter as the one that appeared 3 letters ago.),,,,,,,,,,,0,6,6,6,,,,,,,,,,,,,,,,,,,,,,,,,,,,,,,,,,,,,,,,,,,,,,,,,,,,,,,,,,,,,,,,,,,,,,,,,,,,,,,,,P051,fencog,1,Post,2022_Jun_17_1041,N-Back (New Version 2021),2021.1.4,119.8349633
,,,,Conditions/Version_1/twoback(2)_v1.xlsx,New rule: Press 'space' when you see 2-back (i.e. the same letter as the one that appeared 2 letters ago.),q,None,,,,,,,,,0,7,7,7,0,0,0,0,,,,,,,,,,,,,,,,,,,,,,,,,,,,,,,,,,,,,,,,,,,,,,,,,,,,,,,,,,,706.6080124,None,709.5959256,None,space,35.0451269,709.5959256,None,706.6080124,None,1.0472,745.7164832,None,None,1,745.7164832,None,,P051,fencog,1,Post,2022_Jun_17_1041,N-Back (New Version 2021),2021.1.4,119.8349633
,,,,Conditions/Version_1/twoback(2)_v1.xlsx,New rule: Press 'space' when you see 2-back (i.e. the same letter as the one that appeared 2 letters ago.),r,None,,,,,,,,,0,7,7,7,0,1,1,1,,,,,,,,,,,,,,,,,,,,,,,,,,,,,,,,,,,,,,,,,,,,,,,,,,,,,,,,,,,,,,,,,,,,,1.8408,749.5568062,None,None,1,749.5568062,None,,P051,fencog,1,Post,2022_Jun_17_1041,N-Back (New Version 2021),2021.1.4,119.8349633
,,,,Conditions/Version_1/twoback(2)_v1.xlsx,New rule: Press 'space' when you see 2-back (i.e. the same letter as the one that appeared 2 letters ago.),q,space,,,,,,,,,0,7,7,7,0,2,2,2,,,,,,,,,,,,,,,,,,,,,,,,,,,,,,,,,,,,,,,,,,,,,,,,,,,,,,,,,,,,,,,,,,,,,1.8284,753.3894015,None,space,1,753.3894015,None,0.5877434,P051,fencog,1,Post,2022_Jun_17_1041,N-Back (New Version 2021),2021.1.4,119.8349633
,,,,Conditions/Version_1/twoback(2)_v1.xlsx,New rule: Press 'space' when you see 2-back (i.e. the same letter as the one that appeared 2 letters ago.),P,None,,,,,,,,,0,7,7,7,0,3,3,3,,,,,,,,,,,,,,,,,,,,,,,,,,,,,,,,,,,,,,,,,,,,,,,,,,,,,,,,,,,,,,,,,,,,,1.041,756.4344643,None,None,1,756.4344643,None,,P051,fencog,1,Post,2022_Jun_17_1041,N-Back (New Version 2021),2021.1.4,119.8349633
,,,,Conditions/Version_1/twoback(2)_v1.xlsx,New rule: Press 'space' when you see 2-back (i.e. the same letter as the one that appeared 2 letters ago.),p,None,,,,,,,,,0,7,7,7,0,4,4,4,,,,,,,,,,,,,,,,,,,,,,,,,,,,,,,,,,,,,,,,,,,,,,,,,,,,,,,,,,,,,,,,,,,,,1.7788,760.2238239,None,None,1,760.2238239,None,,P051,fencog,1,Post,2022_Jun_17_1041,N-Back (New Version 2021),2021.1.4,119.8349633
,,,,Conditions/Version_1/twoback(2)_v1.xlsx,New rule: Press 'space' when you see 2-back (i.e. the same letter as the one that appeared 2 letters ago.),H,None,,,,,,,,,0,7,7,7,0,5,5,5,,,,,,,,,,,,,,,,,,,,,,,,,,,,,,,,,,,,,,,,,,,,,,,,,,,,,,,,,,,,,,,,,,,,,1.1898,763.4202966,None,None,1,763.4202966,None,,P051,fencog,1,Post,2022_Jun_17_1041,N-Back (New Version 2021),2021.1.4,119.8349633
,,,,Conditions/Version_1/twoback(2)_v1.xlsx,New rule: Press 'space' when you see 2-back (i.e. the same letter as the one that appeared 2 letters ago.),g,None,,,,,,,,,0,7,7,7,0,6,6,6,,,,,,,,,,,,,,,,,,,,,,,,,,,,,,,,,,,,,,,,,,,,,,,,,,,,,,,,,,,,,,,,,,,,,1.63,767.0600668,None,None,1,767.0600668,None,,P051,fencog,1,Post,2022_Jun_17_1041,N-Back (New Version 2021),2021.1.4,119.8349633
,,,,Conditions/Version_1/twoback(2)_v1.xlsx,New rule: Press 'space' when you see 2-back (i.e. the same letter as the one that appeared 2 letters ago.),j,None,,,,,,,,,0,7,7,7,0,7,7,7,,,,,,,,,,,,,,,,,,,,,,,,,,,,,,,,,,,,,,,,,,,,,,,,,,,,,,,,,,,,,,,,,,,,,1.351,770.4195904,None,None,1,770.4195904,None,,P051,fencog,1,Post,2022_Jun_17_1041,N-Back (New Version 2021),2021.1.4,119.8349633
,,,,Conditions/Version_1/twoback(2)_v1.xlsx,New rule: Press 'space' when you see 2-back (i.e. the same letter as the one that appeared 2 letters ago.),g,space,,,,,,,,,0,7,7,7,0,8,8,8,,,,,,,,,,,,,,,,,,,,,,,,,,,,,,,,,,,,,,,,,,,,,,,,,,,,,,,,,,,,,,,,,,,,,1.9152,774.3422189,None,space,1,774.3422189,None,0.5709967,P051,fencog,1,Post,2022_Jun_17_1041,N-Back (New Version 2021),2021.1.4,119.8349633
,,,,Conditions/Version_1/twoback(2)_v1.xlsx,New rule: Press 'space' when you see 2-back (i.e. the same letter as the one that appeared 2 letters ago.),G,None,,,,,,,,,0,7,7,7,0,9,9,9,,,,,,,,,,,,,,,,,,,,,,,,,,,,,,,,,,,,,,,,,,,,,,,,,,,,,,,,,,,,,,,,,,,,,1.9586,778.3078459,None,None,1,778.3078459,None,,P051,fencog,1,Post,2022_Jun_17_1041,N-Back (New Version 2021),2021.1.4,119.8349633
,,,,Conditions/Version_1/twoback(2)_v1.xlsx,New rule: Press 'space' when you see 2-back (i.e. the same letter as the one that appeared 2 letters ago.),,,,,,,,,,,0,7,7,7,,,,,,,,,,,,,,,,,,,,,,,,,,,,,,,,,,,,,,,,,,,,,,,,,,,,,,,,,,,,,,,,,,,,,,,,,,,,,,,,,P051,fencog,1,Post,2022_Jun_17_1041,N-Back (New Version 2021),2021.1.4,119.8349633
,,,,Conditions/Version_1/threeback(3)_v1.xlsx,New rule: Press 'space' when you see 3-back (i.e. the same letter as the one that appeared 3 letters ago.),w,None,,,,,,,,,0,8,8,8,0,0,0,0,,,,,,,,,,,,,,,,,,,,,,,,,,,,,,,,,,,,,,,,,,,,,,,,,,,,,,,,,,,780.3375493,None,783.3241917,None,space,0.332477,783.3241917,None,780.3375493,None,1.8966,785.5890654,None,None,1,785.5890654,None,,P051,fencog,1,Post,2022_Jun_17_1041,N-Back (New Version 2021),2021.1.4,119.8349633
,,,,Conditions/Version_1/threeback(3)_v1.xlsx,New rule: Press 'space' when you see 3-back (i.e. the same letter as the one that appeared 3 letters ago.),p,None,,,,,,,,,0,8,8,8,0,1,1,1,,,,,,,,,,,,,,,,,,,,,,,,,,,,,,,,,,,,,,,,,,,,,,,,,,,,,,,,,,,,,,,,,,,,,1.4688,789.0743683,None,None,1,789.0743683,None,,P051,fencog,1,Post,2022_Jun_17_1041,N-Back (New Version 2021),2021.1.4,119.8349633
,,,,Conditions/Version_1/threeback(3)_v1.xlsx,New rule: Press 'space' when you see 3-back (i.e. the same letter as the one that appeared 3 letters ago.),P,None,,,,,,,,,0,8,8,8,0,2,2,2,,,,,,,,,,,,,,,,,,,,,,,,,,,,,,,,,,,,,,,,,,,,,,,,,,,,,,,,,,,,,,,,,,,,,1.258,792.3442375,None,None,1,792.3442375,None,,P051,fencog,1,Post,2022_Jun_17_1041,N-Back (New Version 2021),2021.1.4,119.8349633
,,,,Conditions/Version_1/threeback(3)_v1.xlsx,New rule: Press 'space' when you see 3-back (i.e. the same letter as the one that appeared 3 letters ago.),i,None,,,,,,,,,0,8,8,8,0,3,3,3,,,,,,,,,,,,,,,,,,,,,,,,,,,,,,,,,,,,,,,,,,,,,,,,,,,,,,,,,,,,,,,,,,,,,1.6672,796.0134978,None,None,1,796.0134978,None,,P051,fencog,1,Post,2022_Jun_17_1041,N-Back (New Version 2021),2021.1.4,119.8349633
,,,,Conditions/Version_1/threeback(3)_v1.xlsx,New rule: Press 'space' when you see 3-back (i.e. the same letter as the one that appeared 3 letters ago.),f,None,,,,,,,,,0,8,8,8,0,4,4,4,,,,,,,,,,,,,,,,,,,,,,,,,,,,,,,,,,,,,,,,,,,,,,,,,,,,,,,,,,,,,,,,,,,,,1.7044,799.7272573,None,None,1,799.7272573,None,,P051,fencog,1,Post,2022_Jun_17_1041,N-Back (New Version 2021),2021.1.4,119.8349633
,,,,Conditions/Version_1/threeback(3)_v1.xlsx,New rule: Press 'space' when you see 3-back (i.e. the same letter as the one that appeared 3 letters ago.),o,None,,,,,,,,,0,8,8,8,0,5,5,5,,,,,,,,,,,,,,,,,,,,,,,,,,,,,,,,,,,,,,,,,,,,,,,,,,,,,,,,,,,,,,,,,,,,,1.351,803.0909631,None,None,1,803.0909631,None,,P051,fencog,1,Post,2022_Jun_17_1041,N-Back (New Version 2021),2021.1.4,119.8349633
,,,,Conditions/Version_1/threeback(3)_v1.xlsx,New rule: Press 'space' when you see 3-back (i.e. the same letter as the one that appeared 3 letters ago.),w,None,,,,,,,,,0,8,8,8,0,6,6,6,,,,,,,,,,,,,,,,,,,,,,,,,,,,,,,,,,,,,,,,,,,,,,,,,,,,,,,,,,,,,,,,,,,,,1.6176,806.7163785,None,None,1,806.7163785,None,,P051,fencog,1,Post,2022_Jun_17_1041,N-Back (New Version 2021),2021.1.4,119.8349633
,,,,Conditions/Version_1/threeback(3)_v1.xlsx,New rule: Press 'space' when you see 3-back (i.e. the same letter as the one that appeared 3 letters ago.),F,space,,,,,,,,,0,8,8,8,0,7,7,7,,,,,,,,,,,,,,,,,,,,,,,,,,,,,,,,,,,,,,,,,,,,,,,,,,,,,,,,,,,,,,,,,,,,,1.1526,809.8806811,None,space,1,809.8806811,None,0.9843605,P051,fencog,1,Post,2022_Jun_17_1041,N-Back (New Version 2021),2021.1.4,119.8349633
,,,,Conditions/Version_1/threeback(3)_v1.xlsx,New rule: Press 'space' when you see 3-back (i.e. the same letter as the one that appeared 3 letters ago.),p,None,,,,,,,,,0,8,8,8,0,8,8,8,,,,,,,,,,,,,,,,,,,,,,,,,,,,,,,,,,,,,,,,,,,,,,,,,,,,,,,,,,,,,,,,,,,,,1.8408,813.7222388,None,None,1,813.7222388,None,,P051,fencog,1,Post,2022_Jun_17_1041,N-Back (New Version 2021),2021.1.4,119.8349633
,,,,Conditions/Version_1/threeback(3)_v1.xlsx,New rule: Press 'space' when you see 3-back (i.e. the same letter as the one that appeared 3 letters ago.),W,space,,,,,,,,,0,8,8,8,0,9,9,9,,,,,,,,,,,,,,,,,,,,,,,,,,,,,,,,,,,,,,,,,,,,,,,,,,,,,,,,,,,,,,,,,,,,,1.6362,817.3712355,None,None,0,817.3712355,None,,P051,fencog,1,Post,2022_Jun_17_1041,N-Back (New Version 2021),2021.1.4,119.8349633
,,,,Conditions/Version_1/threeback(3)_v1.xlsx,New rule: Press 'space' when you see 3-back (i.e. the same letter as the one that appeared 3 letters ago.),,,,,,,,,,,0,8,8,8,,,,,,,,,,,,,,,,,,,,,,,,,,,,,,,,,,,,,,,,,,,,,,,,,,,,,,,,,,,,,,,,,,,,,,,,,,,,,,,,,P051,fencog,1,Post,2022_Jun_17_1041,N-Back (New Version 2021),2021.1.4,119.8349633
,,,,Conditions/Version_1/zeroback(3)_v1.xlsx,New rule: Press 'space' when you see the letter 'x' or 'X'.,X,space,,,,,,,,,0,9,9,9,0,0,0,0,,,,,,,,,,,,,,,,,,,,,,,,,,,,,,,,,,,,,,,,,,,,,,,,,,,,,,,,,,,819.4000126,None,822.3875337,None,space,5.9572246,822.3875337,None,819.4000126,None,1.9896,830.3684624,None,None,0,830.3684624,None,,P051,fencog,1,Post,2022_Jun_17_1041,N-Back (New Version 2021),2021.1.4,119.8349633
,,,,Conditions/Version_1/zeroback(3)_v1.xlsx,New rule: Press 'space' when you see the letter 'x' or 'X'.,B,None,,,,,,,,,0,9,9,9,0,1,1,1,,,,,,,,,,,,,,,,,,,,,,,,,,,,,,,,,,,,,,,,,,,,,,,,,,,,,,,,,,,,,,,,,,,,,1.3696,833.7507573,None,None,1,833.7507573,None,,P051,fencog,1,Post,2022_Jun_17_1041,N-Back (New Version 2021),2021.1.4,119.8349633
,,,,Conditions/Version_1/zeroback(3)_v1.xlsx,New rule: Press 'space' when you see the letter 'x' or 'X'.,m,None,,,,,,,,,0,9,9,9,0,2,2,2,,,,,,,,,,,,,,,,,,,,,,,,,,,,,,,,,,,,,,,,,,,,,,,,,,,,,,,,,,,,,,,,,,,,,1.7168,837.4745962,None,None,1,837.4745962,None,,P051,fencog,1,Post,2022_Jun_17_1041,N-Back (New Version 2021),2021.1.4,119.8349633
,,,,Conditions/Version_1/zeroback(3)_v1.xlsx,New rule: Press 'space' when you see the letter 'x' or 'X'.,m,None,,,,,,,,,0,9,9,9,0,3,3,3,,,,,,,,,,,,,,,,,,,,,,,,,,,,,,,,,,,,,,,,,,,,,,,,,,,,,,,,,,,,,,,,,,,,,1.7354,841.2216017,None,space,0,841.2216017,None,1.2993573,P051,fencog,1,Post,2022_Jun_17_1041,N-Back (New Version 2021),2021.1.4,119.8349633
,,,,Conditions/Version_1/zeroback(3)_v1.xlsx,New rule: Press 'space' when you see the letter 'x' or 'X'.,o,None,,,,,,,,,0,9,9,9,0,4,4,4,,,,,,,,,,,,,,,,,,,,,,,,,,,,,,,,,,,,,,,,,,,,,,,,,,,,,,,,,,,,,,,,,,,,,1.7974,845.0215641,None,None,1,845.0215641,None,,P051,fencog,1,Post,2022_Jun_17_1041,N-Back (New Version 2021),2021.1.4,119.8349633
,,,,Conditions/Version_1/zeroback(3)_v1.xlsx,New rule: Press 'space' when you see the letter 'x' or 'X'.,p,None,,,,,,,,,0,9,9,9,0,5,5,5,,,,,,,,,,,,,,,,,,,,,,,,,,,,,,,,,,,,,,,,,,,,,,,,,,,,,,,,,,,,,,,,,,,,,1.692,848.7319234,None,None,1,848.7319234,None,,P051,fencog,1,Post,2022_Jun_17_1041,N-Back (New Version 2021),2021.1.4,119.8349633
,,,,Conditions/Version_1/zeroback(3)_v1.xlsx,New rule: Press 'space' when you see the letter 'x' or 'X'.,G,None,,,,,,,,,0,9,9,9,0,6,6,6,,,,,,,,,,,,,,,,,,,,,,,,,,,,,,,,,,,,,,,,,,,,,,,,,,,,,,,,,,,,,,,,,,,,,1.8842,852.627745,None,None,1,852.627745,None,,P051,fencog,1,Post,2022_Jun_17_1041,N-Back (New Version 2021),2021.1.4,119.8349633
,,,,Conditions/Version_1/zeroback(3)_v1.xlsx,New rule: Press 'space' when you see the letter 'x' or 'X'.,X,space,,,,,,,,,0,9,9,9,0,7,7,7,,,,,,,,,,,,,,,,,,,,,,,,,,,,,,,,,,,,,,,,,,,,,,,,,,,,,,,,,,,,,,,,,,,,,1.3014,855.9420244,None,None,0,855.9420244,None,,P051,fencog,1,Post,2022_Jun_17_1041,N-Back (New Version 2021),2021.1.4,119.8349633
,,,,Conditions/Version_1/zeroback(3)_v1.xlsx,New rule: Press 'space' when you see the letter 'x' or 'X'.,p,None,,,,,,,,,0,9,9,9,0,8,8,8,,,,,,,,,,,,,,,,,,,,,,,,,,,,,,,,,,,,,,,,,,,,,,,,,,,,,,,,,,,,,,,,,,,,,1.7912,859.7325684,None,None,1,859.7325684,None,,P051,fencog,1,Post,2022_Jun_17_1041,N-Back (New Version 2021),2021.1.4,119.8349633
,,,,Conditions/Version_1/zeroback(3)_v1.xlsx,New rule: Press 'space' when you see the letter 'x' or 'X'.,x,space,,,,,,,,,0,9,9,9,0,9,9,9,,,,,,,,,,,,,,,,,,,,,,,,,,,,,,,,,,,,,,,,,,,,,,,,,,,,,,,,,,,,,,,,,,,,,1.5804,863.3194759,None,None,0,863.3194759,None,,P051,fencog,1,Post,2022_Jun_17_1041,N-Back (New Version 2021),2021.1.4,119.8349633
,,,,Conditions/Version_1/zeroback(3)_v1.xlsx,New rule: Press 'space' when you see the letter 'x' or 'X'.,,,,,,,,,,,0,9,9,9,,,,,,,,,,,,,,,,,,,,,,,,,,,,,,,,,,,,,,,,,,,,,,,,,,,,,,,,,,,,,,,,,,,,,,,,,,,,,,,,,P051,fencog,1,Post,2022_Jun_17_1041,N-Back (New Version 2021),2021.1.4,119.8349633
,,,,Conditions/Version_1/twoback(3)_v1.xlsx,New rule: Press 'space' when you see 2-back (i.e. the same letter as the one that appeared 2 letters ago.),e,None,,,,,,,,,0,10,10,10,0,0,0,0,,,,,,,,,,,,,,,,,,,,,,,,,,,,,,,,,,,,,,,,,,,,,,,,,,,,,,,,,,,865.3460306,None,868.3323349,None,space,0.556359,868.3323349,None,865.3460306,None,1.8408,870.7625274,None,None,1,870.7625274,None,,P051,fencog,1,Post,2022_Jun_17_1041,N-Back (New Version 2021),2021.1.4,119.8349633
,,,,Conditions/Version_1/twoback(3)_v1.xlsx,New rule: Press 'space' when you see 2-back (i.e. the same letter as the one that appeared 2 letters ago.),o,None,,,,,,,,,0,10,10,10,0,1,1,1,,,,,,,,,,,,,,,,,,,,,,,,,,,,,,,,,,,,,,,,,,,,,,,,,,,,,,,,,,,,,,,,,,,,,1.0348,873.8034391,None,None,1,873.8034391,None,,P051,fencog,1,Post,2022_Jun_17_1041,N-Back (New Version 2021),2021.1.4,119.8349633
,,,,Conditions/Version_1/twoback(3)_v1.xlsx,New rule: Press 'space' when you see 2-back (i.e. the same letter as the one that appeared 2 letters ago.),P,None,,,,,,,,,0,10,10,10,0,2,2,2,,,,,,,,,,,,,,,,,,,,,,,,,,,,,,,,,,,,,,,,,,,,,,,,,,,,,,,,,,,,,,,,,,,,,1.1588,876.9711671,None,None,1,876.9711671,None,,P051,fencog,1,Post,2022_Jun_17_1041,N-Back (New Version 2021),2021.1.4,119.8349633
,,,,Conditions/Version_1/twoback(3)_v1.xlsx,New rule: Press 'space' when you see 2-back (i.e. the same letter as the one that appeared 2 letters ago.),z,None,,,,,,,,,0,10,10,10,0,3,3,3,,,,,,,,,,,,,,,,,,,,,,,,,,,,,,,,,,,,,,,,,,,,,,,,,,,,,,,,,,,,,,,,,,,,,1.599,880.5789284,None,None,1,880.5789284,None,,P051,fencog,1,Post,2022_Jun_17_1041,N-Back (New Version 2021),2021.1.4,119.8349633
,,,,Conditions/Version_1/twoback(3)_v1.xlsx,New rule: Press 'space' when you see 2-back (i.e. the same letter as the one that appeared 2 letters ago.),X,None,,,,,,,,,0,10,10,10,0,4,4,4,,,,,,,,,,,,,,,,,,,,,,,,,,,,,,,,,,,,,,,,,,,,,,,,,,,,,,,,,,,,,,,,,,,,,1.2022,883.7922608,None,None,1,883.7922608,None,,P051,fencog,1,Post,2022_Jun_17_1041,N-Back (New Version 2021),2021.1.4,119.8349633
,,,,Conditions/Version_1/twoback(3)_v1.xlsx,New rule: Press 'space' when you see 2-back (i.e. the same letter as the one that appeared 2 letters ago.),z,space,,,,,,,,,0,10,10,10,0,5,5,5,,,,,,,,,,,,,,,,,,,,,,,,,,,,,,,,,,,,,,,,,,,,,,,,,,,,,,,,,,,,,,,,,,,,,1.4378,887.232818,None,space,1,887.232818,None,1.0719407,P051,fencog,1,Post,2022_Jun_17_1041,N-Back (New Version 2021),2021.1.4,119.8349633
,,,,Conditions/Version_1/twoback(3)_v1.xlsx,New rule: Press 'space' when you see 2-back (i.e. the same letter as the one that appeared 2 letters ago.),x,space,,,,,,,,,0,10,10,10,0,6,6,6,,,,,,,,,,,,,,,,,,,,,,,,,,,,,,,,,,,,,,,,,,,,,,,,,,,,,,,,,,,,,,,,,,,,,1.0906,890.327842,None,space,1,890.327842,None,1.0730533,P051,fencog,1,Post,2022_Jun_17_1041,N-Back (New Version 2021),2021.1.4,119.8349633
,,,,Conditions/Version_1/twoback(3)_v1.xlsx,New rule: Press 'space' when you see 2-back (i.e. the same letter as the one that appeared 2 letters ago.),c,None,,,,,,,,,0,10,10,10,0,7,7,7,,,,,,,,,,,,,,,,,,,,,,,,,,,,,,,,,,,,,,,,,,,,,,,,,,,,,,,,,,,,,,,,,,,,,1.3262,893.6651988,None,None,1,893.6651988,None,,P051,fencog,1,Post,2022_Jun_17_1041,N-Back (New Version 2021),2021.1.4,119.8349633
,,,,Conditions/Version_1/twoback(3)_v1.xlsx,New rule: Press 'space' when you see 2-back (i.e. the same letter as the one that appeared 2 letters ago.),i,None,,,,,,,,,0,10,10,10,0,8,8,8,,,,,,,,,,,,,,,,,,,,,,,,,,,,,,,,,,,,,,,,,,,,,,,,,,,,,,,,,,,,,,,,,,,,,1.5866,897.2632626,None,None,1,897.2632626,None,,P051,fencog,1,Post,2022_Jun_17_1041,N-Back (New Version 2021),2021.1.4,119.8349633
,,,,Conditions/Version_1/twoback(3)_v1.xlsx,New rule: Press 'space' when you see 2-back (i.e. the same letter as the one that appeared 2 letters ago.),C,space,,,,,,,,,0,10,10,10,0,9,9,9,,,,,,,,,,,,,,,,,,,,,,,,,,,,,,,,,,,,,,,,,,,,,,,,,,,,,,,,,,,,,,,,,,,,,1.754,901.0204086,None,space,1,901.0204086,None,1.0202659,P051,fencog,1,Post,2022_Jun_17_1041,N-Back (New Version 2021),2021.1.4,119.8349633
,,,,Conditions/Version_1/twoback(3)_v1.xlsx,New rule: Press 'space' when you see 2-back (i.e. the same letter as the one that appeared 2 letters ago.),,,,,,,,,,,0,10,10,10,,,,,,,,,,,,,,,,,,,,,,,,,,,,,,,,,,,,,,,,,,,,,,,,,,,,,,,,,,,,,,,,,,,,,,,,,,,,,,,,,P051,fencog,1,Post,2022_Jun_17_1041,N-Back (New Version 2021),2021.1.4,119.8349633
,,,,Conditions/Version_1/oneback(3)_v1.xlsx,New rule: Press 'space' when you see 1-back (i.e. the same letter as the one that appeared 1 letter ago.),o,None,,,,,,,,,0,11,11,11,0,0,0,0,,,,,,,,,,,,,,,,,,,,,,,,,,,,,,,,,,,,,,,,,,,,,,,,,,,,,,,,,,,903.0442669,None,906.0210626,None,space,0.8438164,906.0210626,None,903.0442669,None,1.3572,908.2599011,None,None,1,908.2599011,None,,P051,fencog,1,Post,2022_Jun_17_1041,N-Back (New Version 2021),2021.1.4,119.8349633
,,,,Conditions/Version_1/oneback(3)_v1.xlsx,New rule: Press 'space' when you see 1-back (i.e. the same letter as the one that appeared 1 letter ago.),O,space,,,,,,,,,0,11,11,11,0,1,1,1,,,,,,,,,,,,,,,,,,,,,,,,,,,,,,,,,,,,,,,,,,,,,,,,,,,,,,,,,,,,,,,,,,,,,1.1278,911.3951581,None,space,1,911.3951581,None,0.5017877,P051,fencog,1,Post,2022_Jun_17_1041,N-Back (New Version 2021),2021.1.4,119.8349633
,,,,Conditions/Version_1/oneback(3)_v1.xlsx,New rule: Press 'space' when you see 1-back (i.e. the same letter as the one that appeared 1 letter ago.),h,None,,,,,,,,,0,11,11,11,0,2,2,2,,,,,,,,,,,,,,,,,,,,,,,,,,,,,,,,,,,,,,,,,,,,,,,,,,,,,,,,,,,,,,,,,,,,,1.4068,914.8085967,None,None,1,914.8085967,None,,P051,fencog,1,Post,2022_Jun_17_1041,N-Back (New Version 2021),2021.1.4,119.8349633
,,,,Conditions/Version_1/oneback(3)_v1.xlsx,New rule: Press 'space' when you see 1-back (i.e. the same letter as the one that appeared 1 letter ago.),g,None,,,,,,,,,0,11,11,11,0,3,3,3,,,,,,,,,,,,,,,,,,,,,,,,,,,,,,,,,,,,,,,,,,,,,,,,,,,,,,,,,,,,,,,,,,,,,1.4998,918.3163628,None,None,1,918.3163628,None,,P051,fencog,1,Post,2022_Jun_17_1041,N-Back (New Version 2021),2021.1.4,119.8349633
,,,,Conditions/Version_1/oneback(3)_v1.xlsx,New rule: Press 'space' when you see 1-back (i.e. the same letter as the one that appeared 1 letter ago.),n,None,,,,,,,,,0,11,11,11,0,4,4,4,,,,,,,,,,,,,,,,,,,,,,,,,,,,,,,,,,,,,,,,,,,,,,,,,,,,,,,,,,,,,,,,,,,,,1.103,921.4307809,None,None,1,921.4307809,None,,P051,fencog,1,Post,2022_Jun_17_1041,N-Back (New Version 2021),2021.1.4,119.8349633
,,,,Conditions/Version_1/oneback(3)_v1.xlsx,New rule: Press 'space' when you see 1-back (i.e. the same letter as the one that appeared 1 letter ago.),z,None,,,,,,,,,0,11,11,11,0,5,5,5,,,,,,,,,,,,,,,,,,,,,,,,,,,,,,,,,,,,,,,,,,,,,,,,,,,,,,,,,,,,,,,,,,,,,1.6176,925.0548171,None,None,1,925.0548171,None,,P051,fencog,1,Post,2022_Jun_17_1041,N-Back (New Version 2021),2021.1.4,119.8349633
,,,,Conditions/Version_1/oneback(3)_v1.xlsx,New rule: Press 'space' when you see 1-back (i.e. the same letter as the one that appeared 1 letter ago.),X,None,,,,,,,,,0,11,11,11,0,6,6,6,,,,,,,,,,,,,,,,,,,,,,,,,,,,,,,,,,,,,,,,,,,,,,,,,,,,,,,,,,,,,,,,,,,,,1.2022,928.2622346,None,None,1,928.2622346,None,,P051,fencog,1,Post,2022_Jun_17_1041,N-Back (New Version 2021),2021.1.4,119.8349633
,,,,Conditions/Version_1/oneback(3)_v1.xlsx,New rule: Press 'space' when you see 1-back (i.e. the same letter as the one that appeared 1 letter ago.),r,None,,,,,,,,,0,11,11,11,0,7,7,7,,,,,,,,,,,,,,,,,,,,,,,,,,,,,,,,,,,,,,,,,,,,,,,,,,,,,,,,,,,,,,,,,,,,,1.4192,931.6861525,None,None,1,931.6861525,None,,P051,fencog,1,Post,2022_Jun_17_1041,N-Back (New Version 2021),2021.1.4,119.8349633
,,,,Conditions/Version_1/oneback(3)_v1.xlsx,New rule: Press 'space' when you see 1-back (i.e. the same letter as the one that appeared 1 letter ago.),r,space,,,,,,,,,0,11,11,11,0,8,8,8,,,,,,,,,,,,,,,,,,,,,,,,,,,,,,,,,,,,,,,,,,,,,,,,,,,,,,,,,,,,,,,,,,,,,1.6238,935.3100125,None,space,1,935.3100125,None,0.562429,P051,fencog,1,Post,2022_Jun_17_1041,N-Back (New Version 2021),2021.1.4,119.8349633
,,,,Conditions/Version_1/oneback(3)_v1.xlsx,New rule: Press 'space' when you see 1-back (i.e. the same letter as the one that appeared 1 letter ago.),P,None,,,,,,,,,0,11,11,11,0,9,9,9,,,,,,,,,,,,,,,,,,,,,,,,,,,,,,,,,,,,,,,,,,,,,,,,,,,,,,,,,,,,,,,,,,,,,1.8222,939.1697196,None,None,1,939.1697196,None,,P051,fencog,1,Post,2022_Jun_17_1041,N-Back (New Version 2021),2021.1.4,119.8349633
,,,,Conditions/Version_1/oneback(3)_v1.xlsx,New rule: Press 'space' when you see 1-back (i.e. the same letter as the one that appeared 1 letter ago.),,,,,,,,,,,0,11,11,11,,,,,,,,,,,,,,,,,,,,,,,,,,,,,,,,,,,,,,,,,,,,,,,,,,,,,,,,,,,,,,,,,,,,,,,,,,,,,,,,,P051,fencog,1,Post,2022_Jun_17_1041,N-Back (New Version 2021),2021.1.4,119.8349633
,,,,Conditions/Version_1/twoback(4)_v1.xlsx,New rule: Press 'space' when you see 2-back (i.e. the same letter as the one that appeared 2 letters ago.),r,None,,,,,,,,,0,12,12,12,0,0,0,0,,,,,,,,,,,,,,,,,,,,,,,,,,,,,,,,,,,,,,,,,,,,,,,,,,,,,,,,,,,941.1594399,None,944.1423378,None,space,27.1541787,944.1423378,None,941.1594399,None,1.2518,972.5823947,None,None,1,972.5823947,None,,P051,fencog,1,Post,2022_Jun_17_1041,N-Back (New Version 2021),2021.1.4,119.8349633
,,,,Conditions/Version_1/twoback(4)_v1.xlsx,New rule: Press 'space' when you see 2-back (i.e. the same letter as the one that appeared 2 letters ago.),T,None,,,,,,,,,0,12,12,12,0,1,1,1,,,,,,,,,,,,,,,,,,,,,,,,,,,,,,,,,,,,,,,,,,,,,,,,,,,,,,,,,,,,,,,,,,,,,1.5928,976.1813342,None,None,1,976.1813342,None,,P051,fencog,1,Post,2022_Jun_17_1041,N-Back (New Version 2021),2021.1.4,119.8349633
,,,,Conditions/Version_1/twoback(4)_v1.xlsx,New rule: Press 'space' when you see 2-back (i.e. the same letter as the one that appeared 2 letters ago.),o,None,,,,,,,,,0,12,12,12,0,2,2,2,,,,,,,,,,,,,,,,,,,,,,,,,,,,,,,,,,,,,,,,,,,,,,,,,,,,,,,,,,,,,,,,,,,,,1.5308,979.7138714,None,None,1,979.7138714,None,,P051,fencog,1,Post,2022_Jun_17_1041,N-Back (New Version 2021),2021.1.4,119.8349633
,,,,Conditions/Version_1/twoback(4)_v1.xlsx,New rule: Press 'space' when you see 2-back (i.e. the same letter as the one that appeared 2 letters ago.),p,None,,,,,,,,,0,12,12,12,0,3,3,3,,,,,,,,,,,,,,,,,,,,,,,,,,,,,,,,,,,,,,,,,,,,,,,,,,,,,,,,,,,,,,,,,,,,,1.165,982.8793142,None,None,1,982.8793142,None,,P051,fencog,1,Post,2022_Jun_17_1041,N-Back (New Version 2021),2021.1.4,119.8349633
,,,,Conditions/Version_1/twoback(4)_v1.xlsx,New rule: Press 'space' when you see 2-back (i.e. the same letter as the one that appeared 2 letters ago.),p,None,,,,,,,,,0,12,12,12,0,4,4,4,,,,,,,,,,,,,,,,,,,,,,,,,,,,,,,,,,,,,,,,,,,,,,,,,,,,,,,,,,,,,,,,,,,,,1.2642,986.1450224,None,None,1,986.1450224,None,,P051,fencog,1,Post,2022_Jun_17_1041,N-Back (New Version 2021),2021.1.4,119.8349633
,,,,Conditions/Version_1/twoback(4)_v1.xlsx,New rule: Press 'space' when you see 2-back (i.e. the same letter as the one that appeared 2 letters ago.),y,None,,,,,,,,,0,12,12,12,0,5,5,5,,,,,,,,,,,,,,,,,,,,,,,,,,,,,,,,,,,,,,,,,,,,,,,,,,,,,,,,,,,,,,,,,,,,,1.2022,989.3524076,None,None,1,989.3524076,None,,P051,fencog,1,Post,2022_Jun_17_1041,N-Back (New Version 2021),2021.1.4,119.8349633
,,,,Conditions/Version_1/twoback(4)_v1.xlsx,New rule: Press 'space' when you see 2-back (i.e. the same letter as the one that appeared 2 letters ago.),P,space,,,,,,,,,0,12,12,12,0,6,6,6,,,,,,,,,,,,,,,,,,,,,,,,,,,,,,,,,,,,,,,,,,,,,,,,,,,,,,,,,,,,,,,,,,,,,1.3076,992.6600874,None,space,1,992.6600874,None,0.5644496,P051,fencog,1,Post,2022_Jun_17_1041,N-Back (New Version 2021),2021.1.4,119.8349633
,,,,Conditions/Version_1/twoback(4)_v1.xlsx,New rule: Press 'space' when you see 2-back (i.e. the same letter as the one that appeared 2 letters ago.),y,None,,,,,,,,,0,12,12,12,0,7,7,7,,,,,,,,,,,,,,,,,,,,,,,,,,,,,,,,,,,,,,,,,,,,,,,,,,,,,,,,,,,,,,,,,,,,,1.971,996.6336233,None,space,0,996.6336233,None,0.5669893,P051,fencog,1,Post,2022_Jun_17_1041,N-Back (New Version 2021),2021.1.4,119.8349633
,,,,Conditions/Version_1/twoback(4)_v1.xlsx,New rule: Press 'space' when you see 2-back (i.e. the same letter as the one that appeared 2 letters ago.),y,space,,,,,,,,,0,12,12,12,0,8,8,8,,,,,,,,,,,,,,,,,,,,,,,,,,,,,,,,,,,,,,,,,,,,,,,,,,,,,,,,,,,,,,,,,,,,,1.7354,1000.374163,None,None,0,1000.374163,None,,P051,fencog,1,Post,2022_Jun_17_1041,N-Back (New Version 2021),2021.1.4,119.8349633
,,,,Conditions/Version_1/twoback(4)_v1.xlsx,New rule: Press 'space' when you see 2-back (i.e. the same letter as the one that appeared 2 letters ago.),,,,,,,,,,,0,12,12,12,,,,,,,,,,,,,,,,,,,,,,,,,,,,,,,,,,,,,,,,,,,,,,,,,,,,,,,,,,,,,,,,,,,,,,,,,,,,,,,,,P051,fencog,1,Post,2022_Jun_17_1041,N-Back (New Version 2021),2021.1.4,119.8349633
,,,,Conditions/Version_1/zeroback(4)_v1.xlsx,New rule: Press 'space' when you see the letter 'x' or 'X'.,o,None,,,,,,,,,0,13,13,13,0,0,0,0,,,,,,,,,,,,,,,,,,,,,,,,,,,,,,,,,,,,,,,,,,,,,,,,,,,,,,,,,,,1002.389374,None,1005.375248,None,space,0.4571029,1005.375248,None,1002.389374,None,1.382,1007.239895,None,None,1,1007.239895,None,,P051,fencog,1,Post,2022_Jun_17_1041,N-Back (New Version 2021),2021.1.4,119.8349633
,,,,Conditions/Version_1/zeroback(4)_v1.xlsx,New rule: Press 'space' when you see the letter 'x' or 'X'.,X,space,,,,,,,,,0,13,13,13,0,1,1,1,,,,,,,,,,,,,,,,,,,,,,,,,,,,,,,,,,,,,,,,,,,,,,,,,,,,,,,,,,,,,,,,,,,,,1.0782,1010.329738,None,space,1,1010.329738,None,0.4630877,P051,fencog,1,Post,2022_Jun_17_1041,N-Back (New Version 2021),2021.1.4,119.8349633
,,,,Conditions/Version_1/zeroback(4)_v1.xlsx,New rule: Press 'space' when you see the letter 'x' or 'X'.,p,None,,,,,,,,,0,13,13,13,0,2,2,2,,,,,,,,,,,,,,,,,,,,,,,,,,,,,,,,,,,,,,,,,,,,,,,,,,,,,,,,,,,,,,,,,,,,,1.8408,1014.171262,None,None,1,1014.171262,None,,P051,fencog,1,Post,2022_Jun_17_1041,N-Back (New Version 2021),2021.1.4,119.8349633
,,,,Conditions/Version_1/zeroback(4)_v1.xlsx,New rule: Press 'space' when you see the letter 'x' or 'X'.,m,None,,,,,,,,,0,13,13,13,0,3,3,3,,,,,,,,,,,,,,,,,,,,,,,,,,,,,,,,,,,,,,,,,,,,,,,,,,,,,,,,,,,,,,,,,,,,,1.1092,1017.29447,None,None,1,1017.29447,None,,P051,fencog,1,Post,2022_Jun_17_1041,N-Back (New Version 2021),2021.1.4,119.8349633
,,,,Conditions/Version_1/zeroback(4)_v1.xlsx,New rule: Press 'space' when you see the letter 'x' or 'X'.,n,None,,,,,,,,,0,13,13,13,0,4,4,4,,,,,,,,,,,,,,,,,,,,,,,,,,,,,,,,,,,,,,,,,,,,,,,,,,,,,,,,,,,,,,,,,,,,,1.8098,1021.112439,None,None,1,1021.112439,None,,P051,fencog,1,Post,2022_Jun_17_1041,N-Back (New Version 2021),2021.1.4,119.8349633
,,,,Conditions/Version_1/zeroback(4)_v1.xlsx,New rule: Press 'space' when you see the letter 'x' or 'X'.,m,None,,,,,,,,,0,13,13,13,0,5,5,5,,,,,,,,,,,,,,,,,,,,,,,,,,,,,,,,,,,,,,,,,,,,,,,,,,,,,,,,,,,,,,,,,,,,,1.4688,1024.594147,None,None,1,1024.594147,None,,P051,fencog,1,Post,2022_Jun_17_1041,N-Back (New Version 2021),2021.1.4,119.8349633
,,,,Conditions/Version_1/zeroback(4)_v1.xlsx,New rule: Press 'space' when you see the letter 'x' or 'X'.,C,None,,,,,,,,,0,13,13,13,0,6,6,6,,,,,,,,,,,,,,,,,,,,,,,,,,,,,,,,,,,,,,,,,,,,,,,,,,,,,,,,,,,,,,,,,,,,,1.5246,1028.126941,None,None,1,1028.126941,None,,P051,fencog,1,Post,2022_Jun_17_1041,N-Back (New Version 2021),2021.1.4,119.8349633
,,,,Conditions/Version_1/zeroback(4)_v1.xlsx,New rule: Press 'space' when you see the letter 'x' or 'X'.,m,None,,,,,,,,,0,13,13,13,0,7,7,7,,,,,,,,,,,,,,,,,,,,,,,,,,,,,,,,,,,,,,,,,,,,,,,,,,,,,,,,,,,,,,,,,,,,,1.6982,1031.832743,None,None,1,1031.832743,None,,P051,fencog,1,Post,2022_Jun_17_1041,N-Back (New Version 2021),2021.1.4,119.8349633
,,,,Conditions/Version_1/zeroback(4)_v1.xlsx,New rule: Press 'space' when you see the letter 'x' or 'X'.,p,None,,,,,,,,,0,13,13,13,0,8,8,8,,,,,,,,,,,,,,,,,,,,,,,,,,,,,,,,,,,,,,,,,,,,,,,,,,,,,,,,,,,,,,,,,,,,,1.3138,1035.156538,None,None,1,1035.156538,None,,P051,fencog,1,Post,2022_Jun_17_1041,N-Back (New Version 2021),2021.1.4,119.8349633
,,,,Conditions/Version_1/zeroback(4)_v1.xlsx,New rule: Press 'space' when you see the letter 'x' or 'X'.,X,space,,,,,,,,,0,13,13,13,0,9,9,9,,,,,,,,,,,,,,,,,,,,,,,,,,,,,,,,,,,,,,,,,,,,,,,,,,,,,,,,,,,,,,,,,,,,,1.8284,1038.996916,None,space,1,1038.996916,None,0.5158185,P051,fencog,1,Post,2022_Jun_17_1041,N-Back (New Version 2021),2021.1.4,119.8349633
,,,,Conditions/Version_1/zeroback(4)_v1.xlsx,New rule: Press 'space' when you see the letter 'x' or 'X'.,,,,,,,,,,,0,13,13,13,,,,,,,,,,,,,,,,,,,,,,,,,,,,,,,,,,,,,,,,,,,,,,,,,,,,,,,,,,,,,,,,,,,,,,,,,,,,,,,,,P051,fencog,1,Post,2022_Jun_17_1041,N-Back (New Version 2021),2021.1.4,119.8349633
,,,,Conditions/Version_1/oneback(4)_v1.xlsx,New rule: Press 'space' when you see 1-back (i.e. the same letter as the one that appeared 1 letter ago.),w,None,,,,,,,,,0,14,14,14,0,0,0,0,,,,,,,,,,,,,,,,,,,,,,,,,,,,,,,,,,,,,,,,,,,,,,,,,,,,,,,,,,,1041.01766,None,1044.005748,None,space,0.7388105,1044.005748,None,1041.01766,None,1.8966,1046.679477,None,None,1,1046.679477,None,,P051,fencog,1,Post,2022_Jun_17_1041,N-Back (New Version 2021),2021.1.4,119.8349633
,,,,Conditions/Version_1/oneback(4)_v1.xlsx,New rule: Press 'space' when you see 1-back (i.e. the same letter as the one that appeared 1 letter ago.),q,None,,,,,,,,,0,14,14,14,0,1,1,1,,,,,,,,,,,,,,,,,,,,,,,,,,,,,,,,,,,,,,,,,,,,,,,,,,,,,,,,,,,,,,,,,,,,,1.9338,1050.617928,None,None,1,1050.617928,None,,P051,fencog,1,Post,2022_Jun_17_1041,N-Back (New Version 2021),2021.1.4,119.8349633
,,,,Conditions/Version_1/oneback(4)_v1.xlsx,New rule: Press 'space' when you see 1-back (i.e. the same letter as the one that appeared 1 letter ago.),i,None,,,,,,,,,0,14,14,14,0,2,2,2,,,,,,,,,,,,,,,,,,,,,,,,,,,,,,,,,,,,,,,,,,,,,,,,,,,,,,,,,,,,,,,,,,,,,1.8284,1054.450351,None,None,1,1054.450351,None,,P051,fencog,1,Post,2022_Jun_17_1041,N-Back (New Version 2021),2021.1.4,119.8349633
,,,,Conditions/Version_1/oneback(4)_v1.xlsx,New rule: Press 'space' when you see 1-back (i.e. the same letter as the one that appeared 1 letter ago.),t,None,,,,,,,,,0,14,14,14,0,3,3,3,,,,,,,,,,,,,,,,,,,,,,,,,,,,,,,,,,,,,,,,,,,,,,,,,,,,,,,,,,,,,,,,,,,,,1.5742,1058.025373,None,None,1,1058.025373,None,,P051,fencog,1,Post,2022_Jun_17_1041,N-Back (New Version 2021),2021.1.4,119.8349633
,,,,Conditions/Version_1/oneback(4)_v1.xlsx,New rule: Press 'space' when you see 1-back (i.e. the same letter as the one that appeared 1 letter ago.),v,None,,,,,,,,,0,14,14,14,0,4,4,4,,,,,,,,,,,,,,,,,,,,,,,,,,,,,,,,,,,,,,,,,,,,,,,,,,,,,,,,,,,,,,,,,,,,,1.4502,1061.483104,None,None,1,1061.483104,None,,P051,fencog,1,Post,2022_Jun_17_1041,N-Back (New Version 2021),2021.1.4,119.8349633
,,,,Conditions/Version_1/oneback(4)_v1.xlsx,New rule: Press 'space' when you see 1-back (i.e. the same letter as the one that appeared 1 letter ago.),V,space,,,,,,,,,0,14,14,14,0,5,5,5,,,,,,,,,,,,,,,,,,,,,,,,,,,,,,,,,,,,,,,,,,,,,,,,,,,,,,,,,,,,,,,,,,,,,1.909,1065.409402,None,space,1,1065.409402,None,0.3752098,P051,fencog,1,Post,2022_Jun_17_1041,N-Back (New Version 2021),2021.1.4,119.8349633
,,,,Conditions/Version_1/oneback(4)_v1.xlsx,New rule: Press 'space' when you see 1-back (i.e. the same letter as the one that appeared 1 letter ago.),v,space,,,,,,,,,0,14,14,14,0,6,6,6,,,,,,,,,,,,,,,,,,,,,,,,,,,,,,,,,,,,,,,,,,,,,,,,,,,,,,,,,,,,,,,,,,,,,1.1154,1068.530525,None,space,1,1068.530525,None,0.486009,P051,fencog,1,Post,2022_Jun_17_1041,N-Back (New Version 2021),2021.1.4,119.8349633
,,,,Conditions/Version_1/oneback(4)_v1.xlsx,New rule: Press 'space' when you see 1-back (i.e. the same letter as the one that appeared 1 letter ago.),p,None,,,,,,,,,0,14,14,14,0,7,7,7,,,,,,,,,,,,,,,,,,,,,,,,,,,,,,,,,,,,,,,,,,,,,,,,,,,,,,,,,,,,,,,,,,,,,1.9214,1072.461485,None,None,1,1072.461485,None,,P051,fencog,1,Post,2022_Jun_17_1041,N-Back (New Version 2021),2021.1.4,119.8349633
,,,,Conditions/Version_1/oneback(4)_v1.xlsx,New rule: Press 'space' when you see 1-back (i.e. the same letter as the one that appeared 1 letter ago.),w,None,,,,,,,,,0,14,14,14,0,8,8,8,,,,,,,,,,,,,,,,,,,,,,,,,,,,,,,,,,,,,,,,,,,,,,,,,,,,,,,,,,,,,,,,,,,,,1.382,1075.84371,None,None,1,1075.84371,None,,P051,fencog,1,Post,2022_Jun_17_1041,N-Back (New Version 2021),2021.1.4,119.8349633
,,,,Conditions/Version_1/oneback(4)_v1.xlsx,New rule: Press 'space' when you see 1-back (i.e. the same letter as the one that appeared 1 letter ago.),W,space,,,,,,,,,0,14,14,14,0,9,9,9,,,,,,,,,,,,,,,,,,,,,,,,,,,,,,,,,,,,,,,,,,,,,,,,,,,,,,,,,,,,,,,,,,,,,1.2394,1079.084463,None,space,1,1079.084463,None,0.516242,P051,fencog,1,Post,2022_Jun_17_1041,N-Back (New Version 2021),2021.1.4,119.8349633
,,,,Conditions/Version_1/oneback(4)_v1.xlsx,New rule: Press 'space' when you see 1-back (i.e. the same letter as the one that appeared 1 letter ago.),,,,,,,,,,,0,14,14,14,,,,,,,,,,,,,,,,,,,,,,,,,,,,,,,,,,,,,,,,,,,,,,,,,,,,,,,,,,,,,,,,,,,,,,,,,,,,,,,,,P051,fencog,1,Post,2022_Jun_17_1041,N-Back (New Version 2021),2021.1.4,119.8349633
,,,,Conditions/Version_1/threeback(4)_v1.xlsx,New rule: Press 'space' when you see 3-back (i.e. the same letter as the one that appeared 3 letters ago.),A,None,,,,,,,,,0,15,15,15,0,0,0,0,,,,,,,,,,,,,,,,,,,,,,,,,,,,,,,,,,,,,,,,,,,,,,,,,,,,,,,,,,,1081.106399,None,1084.093012,None,space,0.6595781,1084.093012,None,1081.106399,None,1.8904,1086.673834,None,None,1,1086.673834,None,,P051,fencog,1,Post,2022_Jun_17_1041,N-Back (New Version 2021),2021.1.4,119.8349633
,,,,Conditions/Version_1/threeback(4)_v1.xlsx,New rule: Press 'space' when you see 3-back (i.e. the same letter as the one that appeared 3 letters ago.),n,None,,,,,,,,,0,15,15,15,0,1,1,1,,,,,,,,,,,,,,,,,,,,,,,,,,,,,,,,,,,,,,,,,,,,,,,,,,,,,,,,,,,,,,,,,,,,,1.2518,1089.931553,None,None,1,1089.931553,None,,P051,fencog,1,Post,2022_Jun_17_1041,N-Back (New Version 2021),2021.1.4,119.8349633
,,,,Conditions/Version_1/threeback(4)_v1.xlsx,New rule: Press 'space' when you see 3-back (i.e. the same letter as the one that appeared 3 letters ago.),g,None,,,,,,,,,0,15,15,15,0,2,2,2,,,,,,,,,,,,,,,,,,,,,,,,,,,,,,,,,,,,,,,,,,,,,,,,,,,,,,,,,,,,,,,,,,,,,1.6052,1093.540565,None,None,1,1093.540565,None,,P051,fencog,1,Post,2022_Jun_17_1041,N-Back (New Version 2021),2021.1.4,119.8349633
,,,,Conditions/Version_1/threeback(4)_v1.xlsx,New rule: Press 'space' when you see 3-back (i.e. the same letter as the one that appeared 3 letters ago.),A,space,,,,,,,,,0,15,15,15,0,3,3,3,,,,,,,,,,,,,,,,,,,,,,,,,,,,,,,,,,,,,,,,,,,,,,,,,,,,,,,,,,,,,,,,,,,,,1.5494,1097.096075,None,space,1,1097.096075,None,0.7204629,P051,fencog,1,Post,2022_Jun_17_1041,N-Back (New Version 2021),2021.1.4,119.8349633
,,,,Conditions/Version_1/threeback(4)_v1.xlsx,New rule: Press 'space' when you see 3-back (i.e. the same letter as the one that appeared 3 letters ago.),p,None,,,,,,,,,0,15,15,15,0,4,4,4,,,,,,,,,,,,,,,,,,,,,,,,,,,,,,,,,,,,,,,,,,,,,,,,,,,,,,,,,,,,,,,,,,,,,1.506,1100.613701,None,None,1,1100.613701,None,,P051,fencog,1,Post,2022_Jun_17_1041,N-Back (New Version 2021),2021.1.4,119.8349633
,,,,Conditions/Version_1/threeback(4)_v1.xlsx,New rule: Press 'space' when you see 3-back (i.e. the same letter as the one that appeared 3 letters ago.),O,None,,,,,,,,,0,15,15,15,0,5,5,5,,,,,,,,,,,,,,,,,,,,,,,,,,,,,,,,,,,,,,,,,,,,,,,,,,,,,,,,,,,,,,,,,,,,,1.7292,1104.351931,None,None,1,1104.351931,None,,P051,fencog,1,Post,2022_Jun_17_1041,N-Back (New Version 2021),2021.1.4,119.8349633
,,,,Conditions/Version_1/threeback(4)_v1.xlsx,New rule: Press 'space' when you see 3-back (i.e. the same letter as the one that appeared 3 letters ago.),a,space,,,,,,,,,0,15,15,15,0,6,6,6,,,,,,,,,,,,,,,,,,,,,,,,,,,,,,,,,,,,,,,,,,,,,,,,,,,,,,,,,,,,,,,,,,,,,1.6672,1108.027007,None,space,1,1108.027007,None,0.589607,P051,fencog,1,Post,2022_Jun_17_1041,N-Back (New Version 2021),2021.1.4,119.8349633
,,,,Conditions/Version_1/threeback(4)_v1.xlsx,New rule: Press 'space' when you see 3-back (i.e. the same letter as the one that appeared 3 letters ago.),p,space,,,,,,,,,0,15,15,15,0,7,7,7,,,,,,,,,,,,,,,,,,,,,,,,,,,,,,,,,,,,,,,,,,,,,,,,,,,,,,,,,,,,,,,,,,,,,1.6114,1111.651733,None,space,1,1111.651733,None,0.7728914,P051,fencog,1,Post,2022_Jun_17_1041,N-Back (New Version 2021),2021.1.4,119.8349633
,,,,Conditions/Version_1/threeback(4)_v1.xlsx,New rule: Press 'space' when you see 3-back (i.e. the same letter as the one that appeared 3 letters ago.),x,None,,,,,,,,,0,15,15,15,0,8,8,8,,,,,,,,,,,,,,,,,,,,,,,,,,,,,,,,,,,,,,,,,,,,,,,,,,,,,,,,,,,,,,,,,,,,,1.289,1114.948675,None,None,1,1114.948675,None,,P051,fencog,1,Post,2022_Jun_17_1041,N-Back (New Version 2021),2021.1.4,119.8349633
,,,,Conditions/Version_1/threeback(4)_v1.xlsx,New rule: Press 'space' when you see 3-back (i.e. the same letter as the one that appeared 3 letters ago.),X,None,,,,,,,,,0,15,15,15,0,9,9,9,,,,,,,,,,,,,,,,,,,,,,,,,,,,,,,,,,,,,,,,,,,,,,,,,,,,,,,,,,,,,,,,,,,,,1.537,1118.489464,None,None,1,1118.489464,None,,P051,fencog,1,Post,2022_Jun_17_1041,N-Back (New Version 2021),2021.1.4,119.8349633
,,,,Conditions/Version_1/threeback(4)_v1.xlsx,New rule: Press 'space' when you see 3-back (i.e. the same letter as the one that appeared 3 letters ago.),,,,,,,,,,,0,15,15,15,,,,,,,,,,,,,,,,,,,,,,,,,,,,,,,,,,,,,,,,,,,,,,,,,,,,,,,,,,,,,,,,,,,,,,,,,,,,,,,,,P051,fencog,1,Post,2022_Jun_17_1041,N-Back (New Version 2021),2021.1.4,119.8349633
