CondFileP,InstructionsP,LettersDisplayedP,CorrectnessP,CondFile,Instructions,LettersDisplayed,Correctness,practicetrials.thisRepN,practicetrials.thisTrialN,practicetrials.thisN,practicetrials.thisIndex,InnerLoopPractice.thisRepN,InnerLoopPractice.thisTrialN,InnerLoopPractice.thisN,InnerLoopPractice.thisIndex,trials.thisRepN,trials.thisTrialN,trials.thisN,trials.thisIndex,InnerLoop.thisRepN,InnerLoop.thisTrialN,InnerLoop.thisN,InnerLoop.thisIndex,TaskVersionText.started,TaskVersionText.stopped,InstrKey1.keys,InstrKey1.rt,InstrKey1.started,InstrKey1.stopped,text.started,text.stopped,key_resp_4.keys,key_resp_4.rt,key_resp_4.started,key_resp_4.stopped,text_2.started,text_2.stopped,key_resp_3.keys,key_resp_3.rt,key_resp_3.started,key_resp_3.stopped,text_3.started,text_3.stopped,key_resp_2.keys,key_resp_2.rt,key_resp_2.started,key_resp_2.stopped,PractIn1.started,PractIn1.stopped,PractIn2.started,PractIn2.stopped,PractInstructionPass.keys,PractInstructionPass.rt,PractInstructionPass.started,PractInstructionPass.stopped,PractBlock1.started,PractBlock1.stopped,ISIjitterPractice,ISI_Pract_Fixation.started,ISI_Pract_Fixation.stopped,N_backP.started,N_backP.stopped,KeyPractice.keys,KeyPractice.corr,KeyPractice.rt,KeyPractice.started,KeyPractice.stopped,text_4.started,text_4.stopped,TransitionText.started,TransitionText.stopped,key_resp_6.keys,key_resp_6.rt,key_resp_6.started,key_resp_6.stopped,text_5.started,text_5.stopped,key_resp_5.keys,key_resp_5.rt,key_resp_5.started,key_resp_5.stopped,MainInt1.started,MainInt1.stopped,MainInt2.started,MainInt2.stopped,InstructionPass.keys,InstructionPass.rt,InstructionPass.started,InstructionPass.stopped,Blocks1.started,Blocks1.stopped,ISIjitter,N_backD.started,N_backD.stopped,key_resp.keys,key_resp.corr,key_resp.started,key_resp.stopped,key_resp.rt,participant,Study Name,Task Version (required to run),PRE/POST,date,expName,psychopyVersion,frameRate
,,,,,,,,,,,,,,,,,,,,,,,,59.5533271,None,space,76.8170495,60.0444996,None,,,,,,,,,,,,,,,,,,,,,,,,,,,,,,,,,,,,,,,,,,,,,,,,,,,,,,,,,,,,,,,,,,,,,,,P051,FENCOG,2,Pre,2022_Jun_10_1103,N-Back (New Version 2021),2021.1.4,120.0578198
,,,,,,,,,,,,,,,,,,,,,,,,,,,,,,136.8926431,None,space,18.2808389,137.3887774,None,,,,,,,,,,,,,,,,,,,,,,,,,,,,,,,,,,,,,,,,,,,,,,,,,,,,,,,,,,,,,,,,,P051,FENCOG,2,Pre,2022_Jun_10_1103,N-Back (New Version 2021),2021.1.4,120.0578198
,,,,,,,,,,,,,,,,,,,,,,,,,,,,,,,,,,,,155.7077356,None,space,17.3652424,156.2002131,None,,,,,,,,,,,,,,,,,,,,,,,,,,,,,,,,,,,,,,,,,,,,,,,,,,,,,,,,,,,P051,FENCOG,2,Pre,2022_Jun_10_1103,N-Back (New Version 2021),2021.1.4,120.0578198
,,,,,,,,,,,,,,,,,,,,,,,,,,,,,,,,,,,,,,,,,,173.5974006,None,space,11.4553179,174.0864476,None,,,,,,,,,,,,,,,,,,,,,,,,,,,,,,,,,,,,,,,,,,,,,,,,,,,,,P051,FENCOG,2,Pre,2022_Jun_10_1103,N-Back (New Version 2021),2021.1.4,120.0578198
Conditions/Version_2Pr/zeroback(1)_v2.xlsx,Rule: Press 'space' when you see the letter 'x' or 'X'.,x,space,,,,,0,0,0,0,0,0,0,0,,,,,,,,,,,,,,,,,,,,,,,,,,,,,,,,,186.9225648,None,189.8995154,None,space,2.2020626,189.8995154,None,186.9225648,None,1.84,192.1318521,None,193.9759017,None,space,1,0.4294901,193.9759017,None,194.4253991,None,,,,,,,,,,,,,,,,,,,,,,,,,,,,,,,P051,FENCOG,2,Pre,2022_Jun_10_1103,N-Back (New Version 2021),2021.1.4,120.0578198
Conditions/Version_2Pr/zeroback(1)_v2.xlsx,Rule: Press 'space' when you see the letter 'x' or 'X'.,R,None,,,,,0,0,0,0,0,1,1,1,,,,,,,,,,,,,,,,,,,,,,,,,,,,,,,,,,,,,,,,,,,1.14,195.9289331,None,197.0734242,None,None,1,,197.0734242,None,199.0789489,None,,,,,,,,,,,,,,,,,,,,,,,,,,,,,,,P051,FENCOG,2,Pre,2022_Jun_10_1103,N-Back (New Version 2021),2021.1.4,120.0578198
Conditions/Version_2Pr/zeroback(1)_v2.xlsx,Rule: Press 'space' when you see the letter 'x' or 'X'.,p,None,,,,,0,0,0,0,0,2,2,2,,,,,,,,,,,,,,,,,,,,,,,,,,,,,,,,,,,,,,,,,,,1.615,200.5778038,None,202.1944223,None,None,1,,202.1944223,None,204.201438,None,,,,,,,,,,,,,,,,,,,,,,,,,,,,,,,P051,FENCOG,2,Pre,2022_Jun_10_1103,N-Back (New Version 2021),2021.1.4,120.0578198
Conditions/Version_2Pr/zeroback(1)_v2.xlsx,Rule: Press 'space' when you see the letter 'x' or 'X'.,O,None,,,,,0,0,0,0,0,3,3,3,,,,,,,,,,,,,,,,,,,,,,,,,,,,,,,,,,,,,,,,,,,1.065,205.7012573,None,206.7693656,None,None,1,,206.7693656,None,208.7753733,None,,,,,,,,,,,,,,,,,,,,,,,,,,,,,,,P051,FENCOG,2,Pre,2022_Jun_10_1103,N-Back (New Version 2021),2021.1.4,120.0578198
Conditions/Version_2Pr/zeroback(1)_v2.xlsx,Rule: Press 'space' when you see the letter 'x' or 'X'.,i,None,,,,,0,0,0,0,0,4,4,4,,,,,,,,,,,,,,,,,,,,,,,,,,,,,,,,,,,,,,,,,,,1.24,210.2749464,None,211.5188099,None,None,1,,211.5188099,None,213.5238932,None,,,,,,,,,,,,,,,,,,,,,,,,,,,,,,,P051,FENCOG,2,Pre,2022_Jun_10_1103,N-Back (New Version 2021),2021.1.4,120.0578198
Conditions/Version_2Pr/zeroback(1)_v2.xlsx,Rule: Press 'space' when you see the letter 'x' or 'X'.,U,None,,,,,0,0,0,0,0,5,5,5,,,,,,,,,,,,,,,,,,,,,,,,,,,,,,,,,,,,,,,,,,,1.465,215.0235087,None,216.4926573,None,None,1,,216.4926573,None,218.497341,None,,,,,,,,,,,,,,,,,,,,,,,,,,,,,,,P051,FENCOG,2,Pre,2022_Jun_10_1103,N-Back (New Version 2021),2021.1.4,120.0578198
Conditions/Version_2Pr/zeroback(1)_v2.xlsx,Rule: Press 'space' when you see the letter 'x' or 'X'.,N,None,,,,,0,0,0,0,0,6,6,6,,,,,,,,,,,,,,,,,,,,,,,,,,,,,,,,,,,,,,,,,,,1.215,219.9970197,None,221.2157959,None,None,1,,221.2157959,None,223.2211891,None,,,,,,,,,,,,,,,,,,,,,,,,,,,,,,,P051,FENCOG,2,Pre,2022_Jun_10_1103,N-Back (New Version 2021),2021.1.4,120.0578198
Conditions/Version_2Pr/zeroback(1)_v2.xlsx,Rule: Press 'space' when you see the letter 'x' or 'X'.,m,None,,,,,0,0,0,0,0,7,7,7,,,,,,,,,,,,,,,,,,,,,,,,,,,,,,,,,,,,,,,,,,,1.365,224.7206657,None,226.0875082,None,None,1,,226.0875082,None,228.0947335,None,,,,,,,,,,,,,,,,,,,,,,,,,,,,,,,P051,FENCOG,2,Pre,2022_Jun_10_1103,N-Back (New Version 2021),2021.1.4,120.0578198
Conditions/Version_2Pr/zeroback(1)_v2.xlsx,Rule: Press 'space' when you see the letter 'x' or 'X'.,x,space,,,,,0,0,0,0,0,8,8,8,,,,,,,,,,,,,,,,,,,,,,,,,,,,,,,,,,,,,,,,,,,1.04,229.5942606,None,230.6365227,None,space,1,0.473096,230.6365227,None,231.1203244,None,,,,,,,,,,,,,,,,,,,,,,,,,,,,,,,P051,FENCOG,2,Pre,2022_Jun_10_1103,N-Back (New Version 2021),2021.1.4,120.0578198
Conditions/Version_2Pr/zeroback(1)_v2.xlsx,Rule: Press 'space' when you see the letter 'x' or 'X'.,X,space,,,,,0,0,0,0,0,9,9,9,,,,,,,,,,,,,,,,,,,,,,,,,,,,,,,,,,,,,,,,,,,1.89,232.6273288,None,234.5208883,None,space,1,0.5085728,234.5208883,None,235.0440011,None,,,,,,,,,,,,,,,,,,,,,,,,,,,,,,,P051,FENCOG,2,Pre,2022_Jun_10_1103,N-Back (New Version 2021),2021.1.4,120.0578198
Conditions/Version_2Pr/zeroback(1)_v2.xlsx,Rule: Press 'space' when you see the letter 'x' or 'X'.,,,,,,,0,0,0,0,,,,,,,,,,,,,,,,,,,,,,,,,,,,,,,,,,,,,,,,,,,,,,,,,,,,,,,,,,,,,,,,,,,,,,,,,,,,,,,,,,,,,,,,,P051,FENCOG,2,Pre,2022_Jun_10_1103,N-Back (New Version 2021),2021.1.4,120.0578198
Conditions/Version_2Pr/oneback(1)_v2.xlsx,New rule: Press 'space' when you see 1-back (i.e. the same letter as the one that appeared 1 letter ago.),r,None,,,,,0,1,1,1,0,0,0,0,,,,,,,,,,,,,,,,,,,,,,,,,,,,,,,,,236.573813,None,239.5601526,None,space,5.5012787,239.5601526,None,236.573813,None,1.315,245.0874808,None,246.4061111,None,None,1,,246.4061111,None,248.4052844,None,,,,,,,,,,,,,,,,,,,,,,,,,,,,,,,P051,FENCOG,2,Pre,2022_Jun_10_1103,N-Back (New Version 2021),2021.1.4,120.0578198
Conditions/Version_2Pr/oneback(1)_v2.xlsx,New rule: Press 'space' when you see 1-back (i.e. the same letter as the one that appeared 1 letter ago.),t,None,,,,,0,1,1,1,0,1,1,1,,,,,,,,,,,,,,,,,,,,,,,,,,,,,,,,,,,,,,,,,,,1.34,249.9049052,None,251.2464207,None,None,1,,251.2464207,None,253.245602,None,,,,,,,,,,,,,,,,,,,,,,,,,,,,,,,P051,FENCOG,2,Pre,2022_Jun_10_1103,N-Back (New Version 2021),2021.1.4,120.0578198
Conditions/Version_2Pr/oneback(1)_v2.xlsx,New rule: Press 'space' when you see 1-back (i.e. the same letter as the one that appeared 1 letter ago.),Y,None,,,,,0,1,1,1,0,2,2,2,,,,,,,,,,,,,,,,,,,,,,,,,,,,,,,,,,,,,,,,,,,1.265,254.7447803,None,256.0121305,None,None,1,,256.0121305,None,258.0173674,None,,,,,,,,,,,,,,,,,,,,,,,,,,,,,,,P051,FENCOG,2,Pre,2022_Jun_10_1103,N-Back (New Version 2021),2021.1.4,120.0578198
Conditions/Version_2Pr/oneback(1)_v2.xlsx,New rule: Press 'space' when you see 1-back (i.e. the same letter as the one that appeared 1 letter ago.),y,space,,,,,0,1,1,1,0,3,3,3,,,,,,,,,,,,,,,,,,,,,,,,,,,,,,,,,,,,,,,,,,,1.29,259.5187712,None,260.8130443,None,space,1,0.6003941,260.8130443,None,261.4289677,None,,,,,,,,,,,,,,,,,,,,,,,,,,,,,,,P051,FENCOG,2,Pre,2022_Jun_10_1103,N-Back (New Version 2021),2021.1.4,120.0578198
Conditions/Version_2Pr/oneback(1)_v2.xlsx,New rule: Press 'space' when you see 1-back (i.e. the same letter as the one that appeared 1 letter ago.),p,None,,,,,0,1,1,1,0,4,4,4,,,,,,,,,,,,,,,,,,,,,,,,,,,,,,,,,,,,,,,,,,,1.84,262.9342074,None,264.7763278,None,None,1,,264.7763278,None,266.7833016,None,,,,,,,,,,,,,,,,,,,,,,,,,,,,,,,P051,FENCOG,2,Pre,2022_Jun_10_1103,N-Back (New Version 2021),2021.1.4,120.0578198
Conditions/Version_2Pr/oneback(1)_v2.xlsx,New rule: Press 'space' when you see 1-back (i.e. the same letter as the one that appeared 1 letter ago.),P,space,,,,,0,1,1,1,0,5,5,5,,,,,,,,,,,,,,,,,,,,,,,,,,,,,,,,,,,,,,,,,,,1.465,268.2837176,None,269.7508419,None,space,1,0.382801,269.7508419,None,270.1436539,None,,,,,,,,,,,,,,,,,,,,,,,,,,,,,,,P051,FENCOG,2,Pre,2022_Jun_10_1103,N-Back (New Version 2021),2021.1.4,120.0578198
Conditions/Version_2Pr/oneback(1)_v2.xlsx,New rule: Press 'space' when you see 1-back (i.e. the same letter as the one that appeared 1 letter ago.),e,None,,,,,0,1,1,1,0,6,6,6,,,,,,,,,,,,,,,,,,,,,,,,,,,,,,,,,,,,,,,,,,,1.39,271.6483027,None,273.0415317,None,None,1,,273.0415317,None,275.0475387,None,,,,,,,,,,,,,,,,,,,,,,,,,,,,,,,P051,FENCOG,2,Pre,2022_Jun_10_1103,N-Back (New Version 2021),2021.1.4,120.0578198
Conditions/Version_2Pr/oneback(1)_v2.xlsx,New rule: Press 'space' when you see 1-back (i.e. the same letter as the one that appeared 1 letter ago.),r,None,,,,,0,1,1,1,0,7,7,7,,,,,,,,,,,,,,,,,,,,,,,,,,,,,,,,,,,,,,,,,,,1.615,276.5466207,None,278.1650009,None,None,1,,278.1650009,None,280.1710393,None,,,,,,,,,,,,,,,,,,,,,,,,,,,,,,,P051,FENCOG,2,Pre,2022_Jun_10_1103,N-Back (New Version 2021),2021.1.4,120.0578198
Conditions/Version_2Pr/oneback(1)_v2.xlsx,New rule: Press 'space' when you see 1-back (i.e. the same letter as the one that appeared 1 letter ago.),R,space,,,,,0,1,1,1,0,8,8,8,,,,,,,,,,,,,,,,,,,,,,,,,,,,,,,,,,,,,,,,,,,1.59,281.6704674,None,283.2626106,None,space,1,0.3268309,283.2626106,None,283.6038224,None,,,,,,,,,,,,,,,,,,,,,,,,,,,,,,,P051,FENCOG,2,Pre,2022_Jun_10_1103,N-Back (New Version 2021),2021.1.4,120.0578198
Conditions/Version_2Pr/oneback(1)_v2.xlsx,New rule: Press 'space' when you see 1-back (i.e. the same letter as the one that appeared 1 letter ago.),p,None,,,,,0,1,1,1,0,9,9,9,,,,,,,,,,,,,,,,,,,,,,,,,,,,,,,,,,,,,,,,,,,1.815,285.1029223,None,286.9197507,None,None,1,,286.9197507,None,288.9267246,None,,,,,,,,,,,,,,,,,,,,,,,,,,,,,,,P051,FENCOG,2,Pre,2022_Jun_10_1103,N-Back (New Version 2021),2021.1.4,120.0578198
Conditions/Version_2Pr/oneback(1)_v2.xlsx,New rule: Press 'space' when you see 1-back (i.e. the same letter as the one that appeared 1 letter ago.),,,,,,,0,1,1,1,,,,,,,,,,,,,,,,,,,,,,,,,,,,,,,,,,,,,,,,,,,,,,,,,,,,,,,,,,,,,,,,,,,,,,,,,,,,,,,,,,,,,,,,,P051,FENCOG,2,Pre,2022_Jun_10_1103,N-Back (New Version 2021),2021.1.4,120.0578198
Conditions/Version_2Pr/twoback(1)_v2.xlsx,New rule: Press 'space' when you see 2-back (i.e. the same letter as the one that appeared 2 letters ago.),r,None,,,,,0,2,2,2,0,0,0,0,,,,,,,,,,,,,,,,,,,,,,,,,,,,,,,,,290.4521267,None,293.4359488,None,space,4.0495222,293.4359488,None,290.4521267,None,1.715,297.512691,None,299.2328114,None,None,1,,299.2328114,None,301.2397189,None,,,,,,,,,,,,,,,,,,,,,,,,,,,,,,,P051,FENCOG,2,Pre,2022_Jun_10_1103,N-Back (New Version 2021),2021.1.4,120.0578198
Conditions/Version_2Pr/twoback(1)_v2.xlsx,New rule: Press 'space' when you see 2-back (i.e. the same letter as the one that appeared 2 letters ago.),P,None,,,,,0,2,2,2,0,1,1,1,,,,,,,,,,,,,,,,,,,,,,,,,,,,,,,,,,,,,,,,,,,1.915,302.7393342,None,304.6565766,None,None,1,,304.6565766,None,306.6632177,None,,,,,,,,,,,,,,,,,,,,,,,,,,,,,,,P051,FENCOG,2,Pre,2022_Jun_10_1103,N-Back (New Version 2021),2021.1.4,120.0578198
Conditions/Version_2Pr/twoback(1)_v2.xlsx,New rule: Press 'space' when you see 2-back (i.e. the same letter as the one that appeared 2 letters ago.),o,None,,,,,0,2,2,2,0,2,2,2,,,,,,,,,,,,,,,,,,,,,,,,,,,,,,,,,,,,,,,,,,,1.865,308.162755,None,310.0317798,None,None,1,,310.0317798,None,312.0366543,None,,,,,,,,,,,,,,,,,,,,,,,,,,,,,,,P051,FENCOG,2,Pre,2022_Jun_10_1103,N-Back (New Version 2021),2021.1.4,120.0578198
Conditions/Version_2Pr/twoback(1)_v2.xlsx,New rule: Press 'space' when you see 2-back (i.e. the same letter as the one that appeared 2 letters ago.),p,space,,,,,0,2,2,2,0,3,3,3,,,,,,,,,,,,,,,,,,,,,,,,,,,,,,,,,,,,,,,,,,,1.115,313.5359483,None,314.6523462,None,space,1,0.384965,314.6523462,None,315.0529041,None,,,,,,,,,,,,,,,,,,,,,,,,,,,,,,,P051,FENCOG,2,Pre,2022_Jun_10_1103,N-Back (New Version 2021),2021.1.4,120.0578198
Conditions/Version_2Pr/twoback(1)_v2.xlsx,New rule: Press 'space' when you see 2-back (i.e. the same letter as the one that appeared 2 letters ago.),Y,None,,,,,0,2,2,2,0,4,4,4,,,,,,,,,,,,,,,,,,,,,,,,,,,,,,,,,,,,,,,,,,,1.94,316.5519258,None,318.4928048,None,None,1,,318.4928048,None,320.4921715,None,,,,,,,,,,,,,,,,,,,,,,,,,,,,,,,P051,FENCOG,2,Pre,2022_Jun_10_1103,N-Back (New Version 2021),2021.1.4,120.0578198
Conditions/Version_2Pr/twoback(1)_v2.xlsx,New rule: Press 'space' when you see 2-back (i.e. the same letter as the one that appeared 2 letters ago.),q,None,,,,,0,2,2,2,0,5,5,5,,,,,,,,,,,,,,,,,,,,,,,,,,,,,,,,,,,,,,,,,,,1.49,321.9920165,None,323.4922621,None,None,1,,323.4922621,None,325.4910076,None,,,,,,,,,,,,,,,,,,,,,,,,,,,,,,,P051,FENCOG,2,Pre,2022_Jun_10_1103,N-Back (New Version 2021),2021.1.4,120.0578198
Conditions/Version_2Pr/twoback(1)_v2.xlsx,New rule: Press 'space' when you see 2-back (i.e. the same letter as the one that appeared 2 letters ago.),m,None,,,,,0,2,2,2,0,6,6,6,,,,,,,,,,,,,,,,,,,,,,,,,,,,,,,,,,,,,,,,,,,1.14,326.9905627,None,328.1316895,None,None,1,,328.1316895,None,330.1312846,None,,,,,,,,,,,,,,,,,,,,,,,,,,,,,,,P051,FENCOG,2,Pre,2022_Jun_10_1103,N-Back (New Version 2021),2021.1.4,120.0578198
Conditions/Version_2Pr/twoback(1)_v2.xlsx,New rule: Press 'space' when you see 2-back (i.e. the same letter as the one that appeared 2 letters ago.),Q,space,,,,,0,2,2,2,0,7,7,7,,,,,,,,,,,,,,,,,,,,,,,,,,,,,,,,,,,,,,,,,,,1.29,331.6308221,None,332.9235513,None,space,1,0.5298087,332.9235513,None,333.4643162,None,,,,,,,,,,,,,,,,,,,,,,,,,,,,,,,P051,FENCOG,2,Pre,2022_Jun_10_1103,N-Back (New Version 2021),2021.1.4,120.0578198
Conditions/Version_2Pr/twoback(1)_v2.xlsx,New rule: Press 'space' when you see 2-back (i.e. the same letter as the one that appeared 2 letters ago.),L,None,,,,,0,2,2,2,0,8,8,8,,,,,,,,,,,,,,,,,,,,,,,,,,,,,,,,,,,,,,,,,,,1.59,334.9715368,None,336.5649017,None,None,1,,336.5649017,None,338.5704231,None,,,,,,,,,,,,,,,,,,,,,,,,,,,,,,,P051,FENCOG,2,Pre,2022_Jun_10_1103,N-Back (New Version 2021),2021.1.4,120.0578198
Conditions/Version_2Pr/twoback(1)_v2.xlsx,New rule: Press 'space' when you see 2-back (i.e. the same letter as the one that appeared 2 letters ago.),q,space,,,,,0,2,2,2,0,9,9,9,,,,,,,,,,,,,,,,,,,,,,,,,,,,,,,,,,,,,,,,,,,1.765,340.0700216,None,341.8357151,None,None,0,,341.8357151,None,343.8415303,None,,,,,,,,,,,,,,,,,,,,,,,,,,,,,,,P051,FENCOG,2,Pre,2022_Jun_10_1103,N-Back (New Version 2021),2021.1.4,120.0578198
Conditions/Version_2Pr/twoback(1)_v2.xlsx,New rule: Press 'space' when you see 2-back (i.e. the same letter as the one that appeared 2 letters ago.),,,,,,,0,2,2,2,,,,,,,,,,,,,,,,,,,,,,,,,,,,,,,,,,,,,,,,,,,,,,,,,,,,,,,,,,,,,,,,,,,,,,,,,,,,,,,,,,,,,,,,,P051,FENCOG,2,Pre,2022_Jun_10_1103,N-Back (New Version 2021),2021.1.4,120.0578198
Conditions/Version_2Pr/threeback(1)_v2.xlsx,New rule: Press 'space' when you see 3-back (i.e. the same letter as the one that appeared 3 letters ago.),u,None,,,,,0,3,3,3,0,0,0,0,,,,,,,,,,,,,,,,,,,,,,,,,,,,,,,,,345.3661861,None,348.3534668,None,space,4.9638903,348.3534668,None,345.3661861,None,1.14,353.349375,None,354.4945642,None,None,1,,354.4945642,None,356.4985726,None,,,,,,,,,,,,,,,,,,,,,,,,,,,,,,,P051,FENCOG,2,Pre,2022_Jun_10_1103,N-Back (New Version 2021),2021.1.4,120.0578198
Conditions/Version_2Pr/threeback(1)_v2.xlsx,New rule: Press 'space' when you see 3-back (i.e. the same letter as the one that appeared 3 letters ago.),U,None,,,,,0,3,3,3,0,1,1,1,,,,,,,,,,,,,,,,,,,,,,,,,,,,,,,,,,,,,,,,,,,1.34,357.998048,None,359.3409596,None,None,1,,359.3409596,None,361.3471137,None,,,,,,,,,,,,,,,,,,,,,,,,,,,,,,,P051,FENCOG,2,Pre,2022_Jun_10_1103,N-Back (New Version 2021),2021.1.4,120.0578198
Conditions/Version_2Pr/threeback(1)_v2.xlsx,New rule: Press 'space' when you see 3-back (i.e. the same letter as the one that appeared 3 letters ago.),p,None,,,,,0,3,3,3,0,2,2,2,,,,,,,,,,,,,,,,,,,,,,,,,,,,,,,,,,,,,,,,,,,1.04,362.8464997,None,363.8891135,None,None,1,,363.8891135,None,365.8957736,None,,,,,,,,,,,,,,,,,,,,,,,,,,,,,,,P051,FENCOG,2,Pre,2022_Jun_10_1103,N-Back (New Version 2021),2021.1.4,120.0578198
Conditions/Version_2Pr/threeback(1)_v2.xlsx,New rule: Press 'space' when you see 3-back (i.e. the same letter as the one that appeared 3 letters ago.),U,space,,,,,0,3,3,3,0,3,3,3,,,,,,,,,,,,,,,,,,,,,,,,,,,,,,,,,,,,,,,,,,,1.09,367.3950146,None,368.4877306,None,space,1,0.5977677,368.4877306,None,369.0955483,None,,,,,,,,,,,,,,,,,,,,,,,,,,,,,,,P051,FENCOG,2,Pre,2022_Jun_10_1103,N-Back (New Version 2021),2021.1.4,120.0578198
Conditions/Version_2Pr/threeback(1)_v2.xlsx,New rule: Press 'space' when you see 3-back (i.e. the same letter as the one that appeared 3 letters ago.),e,None,,,,,0,3,3,3,0,4,4,4,,,,,,,,,,,,,,,,,,,,,,,,,,,,,,,,,,,,,,,,,,,1.54,370.6026657,None,372.1436321,None,None,1,,372.1436321,None,374.1432773,None,,,,,,,,,,,,,,,,,,,,,,,,,,,,,,,P051,FENCOG,2,Pre,2022_Jun_10_1103,N-Back (New Version 2021),2021.1.4,120.0578198
Conditions/Version_2Pr/threeback(1)_v2.xlsx,New rule: Press 'space' when you see 3-back (i.e. the same letter as the one that appeared 3 letters ago.),R,None,,,,,0,3,3,3,0,5,5,5,,,,,,,,,,,,,,,,,,,,,,,,,,,,,,,,,,,,,,,,,,,1.365,375.6428307,None,377.0094814,None,None,1,,377.0094814,None,379.0084094,None,,,,,,,,,,,,,,,,,,,,,,,,,,,,,,,P051,FENCOG,2,Pre,2022_Jun_10_1103,N-Back (New Version 2021),2021.1.4,120.0578198
Conditions/Version_2Pr/threeback(1)_v2.xlsx,New rule: Press 'space' when you see 3-back (i.e. the same letter as the one that appeared 3 letters ago.),p,None,,,,,0,3,3,3,0,6,6,6,,,,,,,,,,,,,,,,,,,,,,,,,,,,,,,,,,,,,,,,,,,1.39,380.5080671,None,381.8996647,None,space,0,0.794321,381.8996647,None,382.7209293,None,,,,,,,,,,,,,,,,,,,,,,,,,,,,,,,P051,FENCOG,2,Pre,2022_Jun_10_1103,N-Back (New Version 2021),2021.1.4,120.0578198
Conditions/Version_2Pr/threeback(1)_v2.xlsx,New rule: Press 'space' when you see 3-back (i.e. the same letter as the one that appeared 3 letters ago.),E,space,,,,,0,3,3,3,0,7,7,7,,,,,,,,,,,,,,,,,,,,,,,,,,,,,,,,,,,,,,,,,,,2.015,384.2237022,None,386.2414925,None,None,0,,386.2414925,None,388.2492143,None,,,,,,,,,,,,,,,,,,,,,,,,,,,,,,,P051,FENCOG,2,Pre,2022_Jun_10_1103,N-Back (New Version 2021),2021.1.4,120.0578198
Conditions/Version_2Pr/threeback(1)_v2.xlsx,New rule: Press 'space' when you see 3-back (i.e. the same letter as the one that appeared 3 letters ago.),k,None,,,,,0,3,3,3,0,8,8,8,,,,,,,,,,,,,,,,,,,,,,,,,,,,,,,,,,,,,,,,,,,1.265,389.7470149,None,391.0150334,None,None,1,,391.0150334,None,393.0209355,None,,,,,,,,,,,,,,,,,,,,,,,,,,,,,,,P051,FENCOG,2,Pre,2022_Jun_10_1103,N-Back (New Version 2021),2021.1.4,120.0578198
Conditions/Version_2Pr/threeback(1)_v2.xlsx,New rule: Press 'space' when you see 3-back (i.e. the same letter as the one that appeared 3 letters ago.),m,None,,,,,0,3,3,3,0,9,9,9,,,,,,,,,,,,,,,,,,,,,,,,,,,,,,,,,,,,,,,,,,,1.715,394.5205805,None,396.2389239,None,None,1,,396.2389239,None,398.2445526,None,,,,,,,,,,,,,,,,,,,,,,,,,,,,,,,P051,FENCOG,2,Pre,2022_Jun_10_1103,N-Back (New Version 2021),2021.1.4,120.0578198
Conditions/Version_2Pr/threeback(1)_v2.xlsx,New rule: Press 'space' when you see 3-back (i.e. the same letter as the one that appeared 3 letters ago.),,,,,,,0,3,3,3,,,,,,,,,,,,,,,,,,,,,,,,,,,,,,,,,,,,,,,,,,,,,,,,,,,,,,,,,,,,,,,,,,,,,,,,,,,,,,,,,,,,,,,,,P051,FENCOG,2,Pre,2022_Jun_10_1103,N-Back (New Version 2021),2021.1.4,120.0578198
,,,,,,,,,,,,,,,,,,,,,,,,,,,,,,,,,,,,,,,,,,,,,,,,,,,,,,,,,,,,,,,,,,,,,,399.7502088,None,space,2.2587498,400.2358625,None,,,,,,,,,,,,,,,,,,,,,,,,,P051,FENCOG,2,Pre,2022_Jun_10_1103,N-Back (New Version 2021),2021.1.4,120.0578198
,,,,,,,,,,,,,,,,,,,,,,,,,,,,,,,,,,,,,,,,,,,,,,,,,,,,,,,,,,,,,,,,,,,,,,,,,,,,402.5170497,None,space,5.0911273,403.01035,None,,,,,,,,,,,,,,,,,,,P051,FENCOG,2,Pre,2022_Jun_10_1103,N-Back (New Version 2021),2021.1.4,120.0578198
,,,,Conditions/Version_1/zeroback(1)_v1.xlsx,Rule: Press 'space' when you see the letter 'x' or 'X'.,b,None,,,,,,,,,0,0,0,0,0,0,0,0,,,,,,,,,,,,,,,,,,,,,,,,,,,,,,,,,,,,,,,,,,,,,,,,,,,,,,,,,,,408.2156589,None,411.2009846,None,space,1.21236,411.2009846,None,408.2156589,None,1.4378,413.8831046,None,None,1,413.8831046,None,,P051,FENCOG,2,Pre,2022_Jun_10_1103,N-Back (New Version 2021),2021.1.4,120.0578198
,,,,Conditions/Version_1/zeroback(1)_v1.xlsx,Rule: Press 'space' when you see the letter 'x' or 'X'.,T,None,,,,,,,,,0,0,0,0,0,1,1,1,,,,,,,,,,,,,,,,,,,,,,,,,,,,,,,,,,,,,,,,,,,,,,,,,,,,,,,,,,,,,,,,,,,,,1.1216,417.0155489,None,None,1,417.0155489,None,,P051,FENCOG,2,Pre,2022_Jun_10_1103,N-Back (New Version 2021),2021.1.4,120.0578198
,,,,Conditions/Version_1/zeroback(1)_v1.xlsx,Rule: Press 'space' when you see the letter 'x' or 'X'.,L,None,,,,,,,,,0,0,0,0,0,2,2,2,,,,,,,,,,,,,,,,,,,,,,,,,,,,,,,,,,,,,,,,,,,,,,,,,,,,,,,,,,,,,,,,,,,,,1.9028,420.929316,None,None,1,420.929316,None,,P051,FENCOG,2,Pre,2022_Jun_10_1103,N-Back (New Version 2021),2021.1.4,120.0578198
,,,,Conditions/Version_1/zeroback(1)_v1.xlsx,Rule: Press 'space' when you see the letter 'x' or 'X'.,x,space,,,,,,,,,0,0,0,0,0,3,3,3,,,,,,,,,,,,,,,,,,,,,,,,,,,,,,,,,,,,,,,,,,,,,,,,,,,,,,,,,,,,,,,,,,,,,1.1898,424.1200076,None,space,1,424.1200076,None,0.4293801,P051,FENCOG,2,Pre,2022_Jun_10_1103,N-Back (New Version 2021),2021.1.4,120.0578198
,,,,Conditions/Version_1/zeroback(1)_v1.xlsx,Rule: Press 'space' when you see the letter 'x' or 'X'.,o,None,,,,,,,,,0,0,0,0,0,4,4,4,,,,,,,,,,,,,,,,,,,,,,,,,,,,,,,,,,,,,,,,,,,,,,,,,,,,,,,,,,,,,,,,,,,,,1.9524,428.0773564,None,None,1,428.0773564,None,,P051,FENCOG,2,Pre,2022_Jun_10_1103,N-Back (New Version 2021),2021.1.4,120.0578198
,,,,Conditions/Version_1/zeroback(1)_v1.xlsx,Rule: Press 'space' when you see the letter 'x' or 'X'.,P,None,,,,,,,,,0,0,0,0,0,5,5,5,,,,,,,,,,,,,,,,,,,,,,,,,,,,,,,,,,,,,,,,,,,,,,,,,,,,,,,,,,,,,,,,,,,,,1.8842,431.9697988,None,None,1,431.9697988,None,,P051,FENCOG,2,Pre,2022_Jun_10_1103,N-Back (New Version 2021),2021.1.4,120.0578198
,,,,Conditions/Version_1/zeroback(1)_v1.xlsx,Rule: Press 'space' when you see the letter 'x' or 'X'.,X,space,,,,,,,,,0,0,0,0,0,6,6,6,,,,,,,,,,,,,,,,,,,,,,,,,,,,,,,,,,,,,,,,,,,,,,,,,,,,,,,,,,,,,,,,,,,,,1.692,435.6686025,None,space,1,435.6686025,None,0.6089374,P051,FENCOG,2,Pre,2022_Jun_10_1103,N-Back (New Version 2021),2021.1.4,120.0578198
,,,,Conditions/Version_1/zeroback(1)_v1.xlsx,Rule: Press 'space' when you see the letter 'x' or 'X'.,n,None,,,,,,,,,0,0,0,0,0,7,7,7,,,,,,,,,,,,,,,,,,,,,,,,,,,,,,,,,,,,,,,,,,,,,,,,,,,,,,,,,,,,,,,,,,,,,1.6114,439.2927709,None,None,1,439.2927709,None,,P051,FENCOG,2,Pre,2022_Jun_10_1103,N-Back (New Version 2021),2021.1.4,120.0578198
,,,,Conditions/Version_1/zeroback(1)_v1.xlsx,Rule: Press 'space' when you see the letter 'x' or 'X'.,M,None,,,,,,,,,0,0,0,0,0,8,8,8,,,,,,,,,,,,,,,,,,,,,,,,,,,,,,,,,,,,,,,,,,,,,,,,,,,,,,,,,,,,,,,,,,,,,1.8036,443.1076436,None,None,1,443.1076436,None,,P051,FENCOG,2,Pre,2022_Jun_10_1103,N-Back (New Version 2021),2021.1.4,120.0578198
,,,,Conditions/Version_1/zeroback(1)_v1.xlsx,Rule: Press 'space' when you see the letter 'x' or 'X'.,a,None,,,,,,,,,0,0,0,0,0,9,9,9,,,,,,,,,,,,,,,,,,,,,,,,,,,,,,,,,,,,,,,,,,,,,,,,,,,,,,,,,,,,,,,,,,,,,1.2766,446.3989846,None,None,1,446.3989846,None,,P051,FENCOG,2,Pre,2022_Jun_10_1103,N-Back (New Version 2021),2021.1.4,120.0578198
,,,,Conditions/Version_1/zeroback(1)_v1.xlsx,Rule: Press 'space' when you see the letter 'x' or 'X'.,,,,,,,,,,,0,0,0,0,,,,,,,,,,,,,,,,,,,,,,,,,,,,,,,,,,,,,,,,,,,,,,,,,,,,,,,,,,,,,,,,,,,,,,,,,,,,,,,,,P051,FENCOG,2,Pre,2022_Jun_10_1103,N-Back (New Version 2021),2021.1.4,120.0578198
,,,,Conditions/Version_1/oneback(1)_v1.xlsx,New rule: Press 'space' when you see 1-back (i.e. the same letter as the one that appeared 1 letter ago.),b,None,,,,,,,,,0,1,1,1,0,0,0,0,,,,,,,,,,,,,,,,,,,,,,,,,,,,,,,,,,,,,,,,,,,,,,,,,,,,,,,,,,,448.4274828,None,451.4144527,None,space,0.7513717,451.4144527,None,448.4274828,None,1.8718,454.0798316,None,None,1,454.0798316,None,,P051,FENCOG,2,Pre,2022_Jun_10_1103,N-Back (New Version 2021),2021.1.4,120.0578198
,,,,Conditions/Version_1/oneback(1)_v1.xlsx,New rule: Press 'space' when you see 1-back (i.e. the same letter as the one that appeared 1 letter ago.),p,None,,,,,,,,,0,1,1,1,0,1,1,1,,,,,,,,,,,,,,,,,,,,,,,,,,,,,,,,,,,,,,,,,,,,,,,,,,,,,,,,,,,,,,,,,,,,,1.4316,457.5196511,None,None,1,457.5196511,None,,P051,FENCOG,2,Pre,2022_Jun_10_1103,N-Back (New Version 2021),2021.1.4,120.0578198
,,,,Conditions/Version_1/oneback(1)_v1.xlsx,New rule: Press 'space' when you see 1-back (i.e. the same letter as the one that appeared 1 letter ago.),M,None,,,,,,,,,0,1,1,1,0,2,2,2,,,,,,,,,,,,,,,,,,,,,,,,,,,,,,,,,,,,,,,,,,,,,,,,,,,,,,,,,,,,,,,,,,,,,1.0162,460.5425992,None,None,1,460.5425992,None,,P051,FENCOG,2,Pre,2022_Jun_10_1103,N-Back (New Version 2021),2021.1.4,120.0578198
,,,,Conditions/Version_1/oneback(1)_v1.xlsx,New rule: Press 'space' when you see 1-back (i.e. the same letter as the one that appeared 1 letter ago.),M,space,,,,,,,,,0,1,1,1,0,3,3,3,,,,,,,,,,,,,,,,,,,,,,,,,,,,,,,,,,,,,,,,,,,,,,,,,,,,,,,,,,,,,,,,,,,,,1.5184,464.0667916,None,space,1,464.0667916,None,0.4266535,P051,FENCOG,2,Pre,2022_Jun_10_1103,N-Back (New Version 2021),2021.1.4,120.0578198
,,,,Conditions/Version_1/oneback(1)_v1.xlsx,New rule: Press 'space' when you see 1-back (i.e. the same letter as the one that appeared 1 letter ago.),n,None,,,,,,,,,0,1,1,1,0,4,4,4,,,,,,,,,,,,,,,,,,,,,,,,,,,,,,,,,,,,,,,,,,,,,,,,,,,,,,,,,,,,,,,,,,,,,1.2332,467.2999537,None,None,1,467.2999537,None,,P051,FENCOG,2,Pre,2022_Jun_10_1103,N-Back (New Version 2021),2021.1.4,120.0578198
,,,,Conditions/Version_1/oneback(1)_v1.xlsx,New rule: Press 'space' when you see 1-back (i.e. the same letter as the one that appeared 1 letter ago.),g,None,,,,,,,,,0,1,1,1,0,5,5,5,,,,,,,,,,,,,,,,,,,,,,,,,,,,,,,,,,,,,,,,,,,,,,,,,,,,,,,,,,,,,,,,,,,,,1.7602,471.0760093,None,None,1,471.0760093,None,,P051,FENCOG,2,Pre,2022_Jun_10_1103,N-Back (New Version 2021),2021.1.4,120.0578198
,,,,Conditions/Version_1/oneback(1)_v1.xlsx,New rule: Press 'space' when you see 1-back (i.e. the same letter as the one that appeared 1 letter ago.),P,None,,,,,,,,,0,1,1,1,0,6,6,6,,,,,,,,,,,,,,,,,,,,,,,,,,,,,,,,,,,,,,,,,,,,,,,,,,,,,,,,,,,,,,,,,,,,,1.1402,474.2218782,None,None,1,474.2218782,None,,P051,FENCOG,2,Pre,2022_Jun_10_1103,N-Back (New Version 2021),2021.1.4,120.0578198
,,,,Conditions/Version_1/oneback(1)_v1.xlsx,New rule: Press 'space' when you see 1-back (i.e. the same letter as the one that appeared 1 letter ago.),o,None,,,,,,,,,0,1,1,1,0,7,7,7,,,,,,,,,,,,,,,,,,,,,,,,,,,,,,,,,,,,,,,,,,,,,,,,,,,,,,,,,,,,,,,,,,,,,1.1898,477.4126776,None,None,1,477.4126776,None,,P051,FENCOG,2,Pre,2022_Jun_10_1103,N-Back (New Version 2021),2021.1.4,120.0578198
,,,,Conditions/Version_1/oneback(1)_v1.xlsx,New rule: Press 'space' when you see 1-back (i.e. the same letter as the one that appeared 1 letter ago.),f,None,,,,,,,,,0,1,1,1,0,8,8,8,,,,,,,,,,,,,,,,,,,,,,,,,,,,,,,,,,,,,,,,,,,,,,,,,,,,,,,,,,,,,,,,,,,,,1.0472,480.463636,None,None,1,480.463636,None,,P051,FENCOG,2,Pre,2022_Jun_10_1103,N-Back (New Version 2021),2021.1.4,120.0578198
,,,,Conditions/Version_1/oneback(1)_v1.xlsx,New rule: Press 'space' when you see 1-back (i.e. the same letter as the one that appeared 1 letter ago.),F,space,,,,,,,,,0,1,1,1,0,9,9,9,,,,,,,,,,,,,,,,,,,,,,,,,,,,,,,,,,,,,,,,,,,,,,,,,,,,,,,,,,,,,,,,,,,,,1.6982,484.1719764,None,space,1,484.1719764,None,0.6816179,P051,FENCOG,2,Pre,2022_Jun_10_1103,N-Back (New Version 2021),2021.1.4,120.0578198
,,,,Conditions/Version_1/oneback(1)_v1.xlsx,New rule: Press 'space' when you see 1-back (i.e. the same letter as the one that appeared 1 letter ago.),,,,,,,,,,,0,1,1,1,,,,,,,,,,,,,,,,,,,,,,,,,,,,,,,,,,,,,,,,,,,,,,,,,,,,,,,,,,,,,,,,,,,,,,,,,,,,,,,,,P051,FENCOG,2,Pre,2022_Jun_10_1103,N-Back (New Version 2021),2021.1.4,120.0578198
,,,,Conditions/Version_1/twoback(1)_v1.xlsx,New rule: Press 'space' when you see 2-back (i.e. the same letter as the one that appeared 2 letters ago.),b,None,,,,,,,,,0,2,2,2,0,0,0,0,,,,,,,,,,,,,,,,,,,,,,,,,,,,,,,,,,,,,,,,,,,,,,,,,,,,,,,,,,,486.1990509,None,489.1865877,None,space,2.7310379,489.1865877,None,486.1990509,None,1.785,493.7329846,None,None,1,493.7329846,None,,P051,FENCOG,2,Pre,2022_Jun_10_1103,N-Back (New Version 2021),2021.1.4,120.0578198
,,,,Conditions/Version_1/twoback(1)_v1.xlsx,New rule: Press 'space' when you see 2-back (i.e. the same letter as the one that appeared 2 letters ago.),h,None,,,,,,,,,0,2,2,2,0,1,1,1,,,,,,,,,,,,,,,,,,,,,,,,,,,,,,,,,,,,,,,,,,,,,,,,,,,,,,,,,,,,,,,,,,,,,1.9524,497.6905803,None,None,1,497.6905803,None,,P051,FENCOG,2,Pre,2022_Jun_10_1103,N-Back (New Version 2021),2021.1.4,120.0578198
,,,,Conditions/Version_1/twoback(1)_v1.xlsx,New rule: Press 'space' when you see 2-back (i.e. the same letter as the one that appeared 2 letters ago.),j,None,,,,,,,,,0,2,2,2,0,2,2,2,,,,,,,,,,,,,,,,,,,,,,,,,,,,,,,,,,,,,,,,,,,,,,,,,,,,,,,,,,,,,,,,,,,,,1.7044,501.4092642,None,None,1,501.4092642,None,,P051,FENCOG,2,Pre,2022_Jun_10_1103,N-Back (New Version 2021),2021.1.4,120.0578198
,,,,Conditions/Version_1/twoback(1)_v1.xlsx,New rule: Press 'space' when you see 2-back (i.e. the same letter as the one that appeared 2 letters ago.),H,space,,,,,,,,,0,2,2,2,0,3,3,3,,,,,,,,,,,,,,,,,,,,,,,,,,,,,,,,,,,,,,,,,,,,,,,,,,,,,,,,,,,,,,,,,,,,,1.2146,504.634227,None,space,1,504.634227,None,0.6756264,P051,FENCOG,2,Pre,2022_Jun_10_1103,N-Back (New Version 2021),2021.1.4,120.0578198
,,,,Conditions/Version_1/twoback(1)_v1.xlsx,New rule: Press 'space' when you see 2-back (i.e. the same letter as the one that appeared 2 letters ago.),p,None,,,,,,,,,0,2,2,2,0,4,4,4,,,,,,,,,,,,,,,,,,,,,,,,,,,,,,,,,,,,,,,,,,,,,,,,,,,,,,,,,,,,,,,,,,,,,1.2208,507.8631624,None,None,1,507.8631624,None,,P051,FENCOG,2,Pre,2022_Jun_10_1103,N-Back (New Version 2021),2021.1.4,120.0578198
,,,,Conditions/Version_1/twoback(1)_v1.xlsx,New rule: Press 'space' when you see 2-back (i.e. the same letter as the one that appeared 2 letters ago.),p,None,,,,,,,,,0,2,2,2,0,5,5,5,,,,,,,,,,,,,,,,,,,,,,,,,,,,,,,,,,,,,,,,,,,,,,,,,,,,,,,,,,,,,,,,,,,,,1.3324,511.2029063,None,None,1,511.2029063,None,,P051,FENCOG,2,Pre,2022_Jun_10_1103,N-Back (New Version 2021),2021.1.4,120.0578198
,,,,Conditions/Version_1/twoback(1)_v1.xlsx,New rule: Press 'space' when you see 2-back (i.e. the same letter as the one that appeared 2 letters ago.),w,None,,,,,,,,,0,2,2,2,0,6,6,6,,,,,,,,,,,,,,,,,,,,,,,,,,,,,,,,,,,,,,,,,,,,,,,,,,,,,,,,,,,,,,,,,,,,,1.9772,515.1873718,None,None,1,515.1873718,None,,P051,FENCOG,2,Pre,2022_Jun_10_1103,N-Back (New Version 2021),2021.1.4,120.0578198
,,,,Conditions/Version_1/twoback(1)_v1.xlsx,New rule: Press 'space' when you see 2-back (i.e. the same letter as the one that appeared 2 letters ago.),R,None,,,,,,,,,0,2,2,2,0,7,7,7,,,,,,,,,,,,,,,,,,,,,,,,,,,,,,,,,,,,,,,,,,,,,,,,,,,,,,,,,,,,,,,,,,,,,1.971,519.1690828,None,None,1,519.1690828,None,,P051,FENCOG,2,Pre,2022_Jun_10_1103,N-Back (New Version 2021),2021.1.4,120.0578198
,,,,Conditions/Version_1/twoback(1)_v1.xlsx,New rule: Press 'space' when you see 2-back (i.e. the same letter as the one that appeared 2 letters ago.),a,None,,,,,,,,,0,2,2,2,0,8,8,8,,,,,,,,,,,,,,,,,,,,,,,,,,,,,,,,,,,,,,,,,,,,,,,,,,,,,,,,,,,,,,,,,,,,,1.537,522.7170579,None,None,1,522.7170579,None,,P051,FENCOG,2,Pre,2022_Jun_10_1103,N-Back (New Version 2021),2021.1.4,120.0578198
,,,,Conditions/Version_1/twoback(1)_v1.xlsx,New rule: Press 'space' when you see 2-back (i.e. the same letter as the one that appeared 2 letters ago.),r,space,,,,,,,,,0,2,2,2,0,9,9,9,,,,,,,,,,,,,,,,,,,,,,,,,,,,,,,,,,,,,,,,,,,,,,,,,,,,,,,,,,,,,,,,,,,,,1.4316,526.1587298,None,space,1,526.1587298,None,0.6387745,P051,FENCOG,2,Pre,2022_Jun_10_1103,N-Back (New Version 2021),2021.1.4,120.0578198
,,,,Conditions/Version_1/twoback(1)_v1.xlsx,New rule: Press 'space' when you see 2-back (i.e. the same letter as the one that appeared 2 letters ago.),,,,,,,,,,,0,2,2,2,,,,,,,,,,,,,,,,,,,,,,,,,,,,,,,,,,,,,,,,,,,,,,,,,,,,,,,,,,,,,,,,,,,,,,,,,,,,,,,,,P051,FENCOG,2,Pre,2022_Jun_10_1103,N-Back (New Version 2021),2021.1.4,120.0578198
,,,,Conditions/Version_1/threeback(1)_v1.xlsx,New rule: Press 'space' when you see 3-back (i.e. the same letter as the one that appeared 3 letters ago.),r,None,,,,,,,,,0,3,3,3,0,0,0,0,,,,,,,,,,,,,,,,,,,,,,,,,,,,,,,,,,,,,,,,,,,,,,,,,,,,,,,,,,,528.1862597,None,531.1741329,None,space,1.5834118,531.1741329,None,528.1862597,None,1.8718,534.6625237,None,None,1,534.6625237,None,,P051,FENCOG,2,Pre,2022_Jun_10_1103,N-Back (New Version 2021),2021.1.4,120.0578198
,,,,Conditions/Version_1/threeback(1)_v1.xlsx,New rule: Press 'space' when you see 3-back (i.e. the same letter as the one that appeared 3 letters ago.),o,None,,,,,,,,,0,3,3,3,0,1,1,1,,,,,,,,,,,,,,,,,,,,,,,,,,,,,,,,,,,,,,,,,,,,,,,,,,,,,,,,,,,,,,,,,,,,,1.1402,537.8031924,None,None,1,537.8031924,None,,P051,FENCOG,2,Pre,2022_Jun_10_1103,N-Back (New Version 2021),2021.1.4,120.0578198
,,,,Conditions/Version_1/threeback(1)_v1.xlsx,New rule: Press 'space' when you see 3-back (i.e. the same letter as the one that appeared 3 letters ago.),P,None,,,,,,,,,0,3,3,3,0,2,2,2,,,,,,,,,,,,,,,,,,,,,,,,,,,,,,,,,,,,,,,,,,,,,,,,,,,,,,,,,,,,,,,,,,,,,1.4316,541.2356912,None,None,1,541.2356912,None,,P051,FENCOG,2,Pre,2022_Jun_10_1103,N-Back (New Version 2021),2021.1.4,120.0578198
,,,,Conditions/Version_1/threeback(1)_v1.xlsx,New rule: Press 'space' when you see 3-back (i.e. the same letter as the one that appeared 3 letters ago.),R,space,,,,,,,,,0,3,3,3,0,3,3,3,,,,,,,,,,,,,,,,,,,,,,,,,,,,,,,,,,,,,,,,,,,,,,,,,,,,,,,,,,,,,,,,,,,,,1.1216,544.3634965,None,space,1,544.3634965,None,0.4820705,P051,FENCOG,2,Pre,2022_Jun_10_1103,N-Back (New Version 2021),2021.1.4,120.0578198
,,,,Conditions/Version_1/threeback(1)_v1.xlsx,New rule: Press 'space' when you see 3-back (i.e. the same letter as the one that appeared 3 letters ago.),p,None,,,,,,,,,0,3,3,3,0,4,4,4,,,,,,,,,,,,,,,,,,,,,,,,,,,,,,,,,,,,,,,,,,,,,,,,,,,,,,,,,,,,,,,,,,,,,1.9462,548.3188053,None,None,1,548.3188053,None,,P051,FENCOG,2,Pre,2022_Jun_10_1103,N-Back (New Version 2021),2021.1.4,120.0578198
,,,,Conditions/Version_1/threeback(1)_v1.xlsx,New rule: Press 'space' when you see 3-back (i.e. the same letter as the one that appeared 3 letters ago.),E,None,,,,,,,,,0,3,3,3,0,5,5,5,,,,,,,,,,,,,,,,,,,,,,,,,,,,,,,,,,,,,,,,,,,,,,,,,,,,,,,,,,,,,,,,,,,,,1.6114,551.9407949,None,None,1,551.9407949,None,,P051,FENCOG,2,Pre,2022_Jun_10_1103,N-Back (New Version 2021),2021.1.4,120.0578198
,,,,Conditions/Version_1/threeback(1)_v1.xlsx,New rule: Press 'space' when you see 3-back (i.e. the same letter as the one that appeared 3 letters ago.),e,None,,,,,,,,,0,3,3,3,0,6,6,6,,,,,,,,,,,,,,,,,,,,,,,,,,,,,,,,,,,,,,,,,,,,,,,,,,,,,,,,,,,,,,,,,,,,,1.9834,555.9228512,None,None,1,555.9228512,None,,P051,FENCOG,2,Pre,2022_Jun_10_1103,N-Back (New Version 2021),2021.1.4,120.0578198
,,,,Conditions/Version_1/threeback(1)_v1.xlsx,New rule: Press 'space' when you see 3-back (i.e. the same letter as the one that appeared 3 letters ago.),m,None,,,,,,,,,0,3,3,3,0,7,7,7,,,,,,,,,,,,,,,,,,,,,,,,,,,,,,,,,,,,,,,,,,,,,,,,,,,,,,,,,,,,,,,,,,,,,1.9772,559.9062807,None,None,1,559.9062807,None,,P051,FENCOG,2,Pre,2022_Jun_10_1103,N-Back (New Version 2021),2021.1.4,120.0578198
,,,,Conditions/Version_1/threeback(1)_v1.xlsx,New rule: Press 'space' when you see 3-back (i.e. the same letter as the one that appeared 3 letters ago.),n,None,,,,,,,,,0,3,3,3,0,8,8,8,,,,,,,,,,,,,,,,,,,,,,,,,,,,,,,,,,,,,,,,,,,,,,,,,,,,,,,,,,,,,,,,,,,,,1.8284,563.7459524,None,None,1,563.7459524,None,,P051,FENCOG,2,Pre,2022_Jun_10_1103,N-Back (New Version 2021),2021.1.4,120.0578198
,,,,Conditions/Version_1/threeback(1)_v1.xlsx,New rule: Press 'space' when you see 3-back (i.e. the same letter as the one that appeared 3 letters ago.),e,space,,,,,,,,,0,3,3,3,0,9,9,9,,,,,,,,,,,,,,,,,,,,,,,,,,,,,,,,,,,,,,,,,,,,,,,,,,,,,,,,,,,,,,,,,,,,,1.971,567.7193275,None,space,1,567.7193275,None,0.7739619,P051,FENCOG,2,Pre,2022_Jun_10_1103,N-Back (New Version 2021),2021.1.4,120.0578198
,,,,Conditions/Version_1/threeback(1)_v1.xlsx,New rule: Press 'space' when you see 3-back (i.e. the same letter as the one that appeared 3 letters ago.),,,,,,,,,,,0,3,3,3,,,,,,,,,,,,,,,,,,,,,,,,,,,,,,,,,,,,,,,,,,,,,,,,,,,,,,,,,,,,,,,,,,,,,,,,,,,,,,,,,P051,FENCOG,2,Pre,2022_Jun_10_1103,N-Back (New Version 2021),2021.1.4,120.0578198
,,,,Conditions/Version_1/oneback(2)_v1.xlsx,New rule: Press 'space' when you see 1-back (i.e. the same letter as the one that appeared 1 letter ago.),q,None,,,,,,,,,0,4,4,4,0,0,0,0,,,,,,,,,,,,,,,,,,,,,,,,,,,,,,,,,,,,,,,,,,,,,,,,,,,,,,,,,,,569.7717604,None,572.7445436,None,space,1.0129441,572.7445436,None,569.7717604,None,1.723,575.5180543,None,None,1,575.5180543,None,,P051,FENCOG,2,Pre,2022_Jun_10_1103,N-Back (New Version 2021),2021.1.4,120.0578198
,,,,Conditions/Version_1/oneback(2)_v1.xlsx,New rule: Press 'space' when you see 1-back (i.e. the same letter as the one that appeared 1 letter ago.),Q,space,,,,,,,,,0,4,4,4,0,1,1,1,,,,,,,,,,,,,,,,,,,,,,,,,,,,,,,,,,,,,,,,,,,,,,,,,,,,,,,,,,,,,,,,,,,,,1.7788,579.3077482,None,space,1,579.3077482,None,0.4657526,P051,FENCOG,2,Pre,2022_Jun_10_1103,N-Back (New Version 2021),2021.1.4,120.0578198
,,,,Conditions/Version_1/oneback(2)_v1.xlsx,New rule: Press 'space' when you see 1-back (i.e. the same letter as the one that appeared 1 letter ago.),P,None,,,,,,,,,0,4,4,4,0,2,2,2,,,,,,,,,,,,,,,,,,,,,,,,,,,,,,,,,,,,,,,,,,,,,,,,,,,,,,,,,,,,,,,,,,,,,1.4254,582.7317743,None,None,1,582.7317743,None,,P051,FENCOG,2,Pre,2022_Jun_10_1103,N-Back (New Version 2021),2021.1.4,120.0578198
,,,,Conditions/Version_1/oneback(2)_v1.xlsx,New rule: Press 'space' when you see 1-back (i.e. the same letter as the one that appeared 1 letter ago.),o,None,,,,,,,,,0,4,4,4,0,3,3,3,,,,,,,,,,,,,,,,,,,,,,,,,,,,,,,,,,,,,,,,,,,,,,,,,,,,,,,,,,,,,,,,,,,,,1.2456,585.9809317,None,None,1,585.9809317,None,,P051,FENCOG,2,Pre,2022_Jun_10_1103,N-Back (New Version 2021),2021.1.4,120.0578198
,,,,Conditions/Version_1/oneback(2)_v1.xlsx,New rule: Press 'space' when you see 1-back (i.e. the same letter as the one that appeared 1 letter ago.),m,None,,,,,,,,,0,4,4,4,0,4,4,4,,,,,,,,,,,,,,,,,,,,,,,,,,,,,,,,,,,,,,,,,,,,,,,,,,,,,,,,,,,,,,,,,,,,,1.8656,589.8544782,None,None,1,589.8544782,None,,P051,FENCOG,2,Pre,2022_Jun_10_1103,N-Back (New Version 2021),2021.1.4,120.0578198
,,,,Conditions/Version_1/oneback(2)_v1.xlsx,New rule: Press 'space' when you see 1-back (i.e. the same letter as the one that appeared 1 letter ago.),Z,None,,,,,,,,,0,4,4,4,0,5,5,5,,,,,,,,,,,,,,,,,,,,,,,,,,,,,,,,,,,,,,,,,,,,,,,,,,,,,,,,,,,,,,,,,,,,,1.878,593.7393683,None,None,1,593.7393683,None,,P051,FENCOG,2,Pre,2022_Jun_10_1103,N-Back (New Version 2021),2021.1.4,120.0578198
,,,,Conditions/Version_1/oneback(2)_v1.xlsx,New rule: Press 'space' when you see 1-back (i.e. the same letter as the one that appeared 1 letter ago.),c,None,,,,,,,,,0,4,4,4,0,6,6,6,,,,,,,,,,,,,,,,,,,,,,,,,,,,,,,,,,,,,,,,,,,,,,,,,,,,,,,,,,,,,,,,,,,,,1.1588,596.9048665,None,None,1,596.9048665,None,,P051,FENCOG,2,Pre,2022_Jun_10_1103,N-Back (New Version 2021),2021.1.4,120.0578198
,,,,Conditions/Version_1/oneback(2)_v1.xlsx,New rule: Press 'space' when you see 1-back (i.e. the same letter as the one that appeared 1 letter ago.),c,space,,,,,,,,,0,4,4,4,0,7,7,7,,,,,,,,,,,,,,,,,,,,,,,,,,,,,,,,,,,,,,,,,,,,,,,,,,,,,,,,,,,,,,,,,,,,,1.196,600.1100291,None,space,1,600.1100291,None,0.3995238,P051,FENCOG,2,Pre,2022_Jun_10_1103,N-Back (New Version 2021),2021.1.4,120.0578198
,,,,Conditions/Version_1/oneback(2)_v1.xlsx,New rule: Press 'space' when you see 1-back (i.e. the same letter as the one that appeared 1 letter ago.),P,None,,,,,,,,,0,4,4,4,0,8,8,8,,,,,,,,,,,,,,,,,,,,,,,,,,,,,,,,,,,,,,,,,,,,,,,,,,,,,,,,,,,,,,,,,,,,,1.0906,603.2018141,None,None,1,603.2018141,None,,P051,FENCOG,2,Pre,2022_Jun_10_1103,N-Back (New Version 2021),2021.1.4,120.0578198
,,,,Conditions/Version_1/oneback(2)_v1.xlsx,New rule: Press 'space' when you see 1-back (i.e. the same letter as the one that appeared 1 letter ago.),p,space,,,,,,,,,0,4,4,4,0,9,9,9,,,,,,,,,,,,,,,,,,,,,,,,,,,,,,,,,,,,,,,,,,,,,,,,,,,,,,,,,,,,,,,,,,,,,1.2642,606.4747253,None,None,0,606.4747253,None,,P051,FENCOG,2,Pre,2022_Jun_10_1103,N-Back (New Version 2021),2021.1.4,120.0578198
,,,,Conditions/Version_1/oneback(2)_v1.xlsx,New rule: Press 'space' when you see 1-back (i.e. the same letter as the one that appeared 1 letter ago.),,,,,,,,,,,0,4,4,4,,,,,,,,,,,,,,,,,,,,,,,,,,,,,,,,,,,,,,,,,,,,,,,,,,,,,,,,,,,,,,,,,,,,,,,,,,,,,,,,,P051,FENCOG,2,Pre,2022_Jun_10_1103,N-Back (New Version 2021),2021.1.4,120.0578198
,,,,Conditions/Version_1/zeroback(2)_v1.xlsx,New rule: Press 'space' when you see the letter 'x' or 'X'.,p,None,,,,,,,,,0,5,5,5,0,0,0,0,,,,,,,,,,,,,,,,,,,,,,,,,,,,,,,,,,,,,,,,,,,,,,,,,,,,,,,,,,,608.4940813,None,611.4828901,None,space,8.8265304,611.4828901,None,608.4940813,None,1.4254,621.7703104,None,None,1,621.7703104,None,,P051,FENCOG,2,Pre,2022_Jun_10_1103,N-Back (New Version 2021),2021.1.4,120.0578198
,,,,Conditions/Version_1/zeroback(2)_v1.xlsx,New rule: Press 'space' when you see the letter 'x' or 'X'.,L,None,,,,,,,,,0,5,5,5,0,1,1,1,,,,,,,,,,,,,,,,,,,,,,,,,,,,,,,,,,,,,,,,,,,,,,,,,,,,,,,,,,,,,,,,,,,,,1.8532,625.627343,None,None,1,625.627343,None,,P051,FENCOG,2,Pre,2022_Jun_10_1103,N-Back (New Version 2021),2021.1.4,120.0578198
,,,,Conditions/Version_1/zeroback(2)_v1.xlsx,New rule: Press 'space' when you see the letter 'x' or 'X'.,G,None,,,,,,,,,0,5,5,5,0,2,2,2,,,,,,,,,,,,,,,,,,,,,,,,,,,,,,,,,,,,,,,,,,,,,,,,,,,,,,,,,,,,,,,,,,,,,1.1898,628.8276211,None,None,1,628.8276211,None,,P051,FENCOG,2,Pre,2022_Jun_10_1103,N-Back (New Version 2021),2021.1.4,120.0578198
,,,,Conditions/Version_1/zeroback(2)_v1.xlsx,New rule: Press 'space' when you see the letter 'x' or 'X'.,y,None,,,,,,,,,0,5,5,5,0,3,3,3,,,,,,,,,,,,,,,,,,,,,,,,,,,,,,,,,,,,,,,,,,,,,,,,,,,,,,,,,,,,,,,,,,,,,1.6858,632.5254198,None,None,1,632.5254198,None,,P051,FENCOG,2,Pre,2022_Jun_10_1103,N-Back (New Version 2021),2021.1.4,120.0578198
,,,,Conditions/Version_1/zeroback(2)_v1.xlsx,New rule: Press 'space' when you see the letter 'x' or 'X'.,Y,None,,,,,,,,,0,5,5,5,0,4,4,4,,,,,,,,,,,,,,,,,,,,,,,,,,,,,,,,,,,,,,,,,,,,,,,,,,,,,,,,,,,,,,,,,,,,,1.7292,636.2594016,None,None,1,636.2594016,None,,P051,FENCOG,2,Pre,2022_Jun_10_1103,N-Back (New Version 2021),2021.1.4,120.0578198
,,,,Conditions/Version_1/zeroback(2)_v1.xlsx,New rule: Press 'space' when you see the letter 'x' or 'X'.,W,None,,,,,,,,,0,5,5,5,0,5,5,5,,,,,,,,,,,,,,,,,,,,,,,,,,,,,,,,,,,,,,,,,,,,,,,,,,,,,,,,,,,,,,,,,,,,,1.5742,639.8401886,None,None,1,639.8401886,None,,P051,FENCOG,2,Pre,2022_Jun_10_1103,N-Back (New Version 2021),2021.1.4,120.0578198
,,,,Conditions/Version_1/zeroback(2)_v1.xlsx,New rule: Press 'space' when you see the letter 'x' or 'X'.,x,space,,,,,,,,,0,5,5,5,0,6,6,6,,,,,,,,,,,,,,,,,,,,,,,,,,,,,,,,,,,,,,,,,,,,,,,,,,,,,,,,,,,,,,,,,,,,,1.6052,643.4490659,None,space,1,643.4490659,None,0.6204994,P051,FENCOG,2,Pre,2022_Jun_10_1103,N-Back (New Version 2021),2021.1.4,120.0578198
,,,,Conditions/Version_1/zeroback(2)_v1.xlsx,New rule: Press 'space' when you see the letter 'x' or 'X'.,X,space,,,,,,,,,0,5,5,5,0,7,7,7,,,,,,,,,,,,,,,,,,,,,,,,,,,,,,,,,,,,,,,,,,,,,,,,,,,,,,,,,,,,,,,,,,,,,1.2952,646.7550798,None,space,1,646.7550798,None,0.6822237,P051,FENCOG,2,Pre,2022_Jun_10_1103,N-Back (New Version 2021),2021.1.4,120.0578198
,,,,Conditions/Version_1/zeroback(2)_v1.xlsx,New rule: Press 'space' when you see the letter 'x' or 'X'.,p,None,,,,,,,,,0,5,5,5,0,8,8,8,,,,,,,,,,,,,,,,,,,,,,,,,,,,,,,,,,,,,,,,,,,,,,,,,,,,,,,,,,,,,,,,,,,,,1.4316,650.1956649,None,None,1,650.1956649,None,,P051,FENCOG,2,Pre,2022_Jun_10_1103,N-Back (New Version 2021),2021.1.4,120.0578198
,,,,Conditions/Version_1/zeroback(2)_v1.xlsx,New rule: Press 'space' when you see the letter 'x' or 'X'.,h,None,,,,,,,,,0,5,5,5,0,9,9,9,,,,,,,,,,,,,,,,,,,,,,,,,,,,,,,,,,,,,,,,,,,,,,,,,,,,,,,,,,,,,,,,,,,,,1.4626,653.6697298,None,None,1,653.6697298,None,,P051,FENCOG,2,Pre,2022_Jun_10_1103,N-Back (New Version 2021),2021.1.4,120.0578198
,,,,Conditions/Version_1/zeroback(2)_v1.xlsx,New rule: Press 'space' when you see the letter 'x' or 'X'.,,,,,,,,,,,0,5,5,5,,,,,,,,,,,,,,,,,,,,,,,,,,,,,,,,,,,,,,,,,,,,,,,,,,,,,,,,,,,,,,,,,,,,,,,,,,,,,,,,,P051,FENCOG,2,Pre,2022_Jun_10_1103,N-Back (New Version 2021),2021.1.4,120.0578198
,,,,Conditions/Version_1/threeback(2)_v1.xlsx,New rule: Press 'space' when you see 3-back (i.e. the same letter as the one that appeared 3 letters ago.),q,None,,,,,,,,,0,6,6,6,0,0,0,0,,,,,,,,,,,,,,,,,,,,,,,,,,,,,,,,,,,,,,,,,,,,,,,,,,,,,,,,,,,655.6976807,None,658.6865774,None,space,1.4308897,658.6865774,None,655.6976807,None,1.165,661.3179774,None,None,1,661.3179774,None,,P051,FENCOG,2,Pre,2022_Jun_10_1103,N-Back (New Version 2021),2021.1.4,120.0578198
,,,,Conditions/Version_1/threeback(2)_v1.xlsx,New rule: Press 'space' when you see 3-back (i.e. the same letter as the one that appeared 3 letters ago.),Y,None,,,,,,,,,0,6,6,6,0,1,1,1,,,,,,,,,,,,,,,,,,,,,,,,,,,,,,,,,,,,,,,,,,,,,,,,,,,,,,,,,,,,,,,,,,,,,1.1526,664.4837387,None,None,1,664.4837387,None,,P051,FENCOG,2,Pre,2022_Jun_10_1103,N-Back (New Version 2021),2021.1.4,120.0578198
,,,,Conditions/Version_1/threeback(2)_v1.xlsx,New rule: Press 'space' when you see 3-back (i.e. the same letter as the one that appeared 3 letters ago.),p,None,,,,,,,,,0,6,6,6,0,2,2,2,,,,,,,,,,,,,,,,,,,,,,,,,,,,,,,,,,,,,,,,,,,,,,,,,,,,,,,,,,,,,,,,,,,,,1.3448,667.8437023,None,None,1,667.8437023,None,,P051,FENCOG,2,Pre,2022_Jun_10_1103,N-Back (New Version 2021),2021.1.4,120.0578198
,,,,Conditions/Version_1/threeback(2)_v1.xlsx,New rule: Press 'space' when you see 3-back (i.e. the same letter as the one that appeared 3 letters ago.),p,None,,,,,,,,,0,6,6,6,0,3,3,3,,,,,,,,,,,,,,,,,,,,,,,,,,,,,,,,,,,,,,,,,,,,,,,,,,,,,,,,,,,,,,,,,,,,,1.3014,671.1557411,None,None,1,671.1557411,None,,P051,FENCOG,2,Pre,2022_Jun_10_1103,N-Back (New Version 2021),2021.1.4,120.0578198
,,,,Conditions/Version_1/threeback(2)_v1.xlsx,New rule: Press 'space' when you see 3-back (i.e. the same letter as the one that appeared 3 letters ago.),y,space,,,,,,,,,0,6,6,6,0,4,4,4,,,,,,,,,,,,,,,,,,,,,,,,,,,,,,,,,,,,,,,,,,,,,,,,,,,,,,,,,,,,,,,,,,,,,1.909,675.0710275,None,space,1,675.0710275,None,1.0226016,P051,FENCOG,2,Pre,2022_Jun_10_1103,N-Back (New Version 2021),2021.1.4,120.0578198
,,,,Conditions/Version_1/threeback(2)_v1.xlsx,New rule: Press 'space' when you see 3-back (i.e. the same letter as the one that appeared 3 letters ago.),u,None,,,,,,,,,0,6,6,6,0,5,5,5,,,,,,,,,,,,,,,,,,,,,,,,,,,,,,,,,,,,,,,,,,,,,,,,,,,,,,,,,,,,,,,,,,,,,1.9896,679.0634266,None,None,1,679.0634266,None,,P051,FENCOG,2,Pre,2022_Jun_10_1103,N-Back (New Version 2021),2021.1.4,120.0578198
,,,,Conditions/Version_1/threeback(2)_v1.xlsx,New rule: Press 'space' when you see 3-back (i.e. the same letter as the one that appeared 3 letters ago.),P,space,,,,,,,,,0,6,6,6,0,6,6,6,,,,,,,,,,,,,,,,,,,,,,,,,,,,,,,,,,,,,,,,,,,,,,,,,,,,,,,,,,,,,,,,,,,,,1.6176,682.6959565,None,None,0,682.6959565,None,,P051,FENCOG,2,Pre,2022_Jun_10_1103,N-Back (New Version 2021),2021.1.4,120.0578198
,,,,Conditions/Version_1/threeback(2)_v1.xlsx,New rule: Press 'space' when you see 3-back (i.e. the same letter as the one that appeared 3 letters ago.),a,None,,,,,,,,,0,6,6,6,0,7,7,7,,,,,,,,,,,,,,,,,,,,,,,,,,,,,,,,,,,,,,,,,,,,,,,,,,,,,,,,,,,,,,,,,,,,,1.072,685.7772573,None,None,1,685.7772573,None,,P051,FENCOG,2,Pre,2022_Jun_10_1103,N-Back (New Version 2021),2021.1.4,120.0578198
,,,,Conditions/Version_1/threeback(2)_v1.xlsx,New rule: Press 'space' when you see 3-back (i.e. the same letter as the one that appeared 3 letters ago.),U,space,,,,,,,,,0,6,6,6,0,8,8,8,,,,,,,,,,,,,,,,,,,,,,,,,,,,,,,,,,,,,,,,,,,,,,,,,,,,,,,,,,,,,,,,,,,,,1.2766,689.0584914,None,space,1,689.0584914,None,0.9391604,P051,FENCOG,2,Pre,2022_Jun_10_1103,N-Back (New Version 2021),2021.1.4,120.0578198
,,,,Conditions/Version_1/threeback(2)_v1.xlsx,New rule: Press 'space' when you see 3-back (i.e. the same letter as the one that appeared 3 letters ago.),q,None,,,,,,,,,0,6,6,6,0,9,9,9,,,,,,,,,,,,,,,,,,,,,,,,,,,,,,,,,,,,,,,,,,,,,,,,,,,,,,,,,,,,,,,,,,,,,1.7974,692.8574442,None,None,1,692.8574442,None,,P051,FENCOG,2,Pre,2022_Jun_10_1103,N-Back (New Version 2021),2021.1.4,120.0578198
,,,,Conditions/Version_1/threeback(2)_v1.xlsx,New rule: Press 'space' when you see 3-back (i.e. the same letter as the one that appeared 3 letters ago.),,,,,,,,,,,0,6,6,6,,,,,,,,,,,,,,,,,,,,,,,,,,,,,,,,,,,,,,,,,,,,,,,,,,,,,,,,,,,,,,,,,,,,,,,,,,,,,,,,,P051,FENCOG,2,Pre,2022_Jun_10_1103,N-Back (New Version 2021),2021.1.4,120.0578198
,,,,Conditions/Version_1/twoback(2)_v1.xlsx,New rule: Press 'space' when you see 2-back (i.e. the same letter as the one that appeared 2 letters ago.),q,None,,,,,,,,,0,7,7,7,0,0,0,0,,,,,,,,,,,,,,,,,,,,,,,,,,,,,,,,,,,,,,,,,,,,,,,,,,,,,,,,,,,694.8808774,None,697.8661895,None,space,10.6752509,697.8661895,None,694.8808774,None,1.9028,710.477587,None,None,1,710.477587,None,,P051,FENCOG,2,Pre,2022_Jun_10_1103,N-Back (New Version 2021),2021.1.4,120.0578198
,,,,Conditions/Version_1/twoback(2)_v1.xlsx,New rule: Press 'space' when you see 2-back (i.e. the same letter as the one that appeared 2 letters ago.),r,None,,,,,,,,,0,7,7,7,0,1,1,1,,,,,,,,,,,,,,,,,,,,,,,,,,,,,,,,,,,,,,,,,,,,,,,,,,,,,,,,,,,,,,,,,,,,,1.2084,713.6846796,None,None,1,713.6846796,None,,P051,FENCOG,2,Pre,2022_Jun_10_1103,N-Back (New Version 2021),2021.1.4,120.0578198
,,,,Conditions/Version_1/twoback(2)_v1.xlsx,New rule: Press 'space' when you see 2-back (i.e. the same letter as the one that appeared 2 letters ago.),q,space,,,,,,,,,0,7,7,7,0,2,2,2,,,,,,,,,,,,,,,,,,,,,,,,,,,,,,,,,,,,,,,,,,,,,,,,,,,,,,,,,,,,,,,,,,,,,1.2456,716.9348388,None,space,1,716.9348388,None,0.7106633,P051,FENCOG,2,Pre,2022_Jun_10_1103,N-Back (New Version 2021),2021.1.4,120.0578198
,,,,Conditions/Version_1/twoback(2)_v1.xlsx,New rule: Press 'space' when you see 2-back (i.e. the same letter as the one that appeared 2 letters ago.),P,None,,,,,,,,,0,7,7,7,0,3,3,3,,,,,,,,,,,,,,,,,,,,,,,,,,,,,,,,,,,,,,,,,,,,,,,,,,,,,,,,,,,,,,,,,,,,,1.5494,720.4909634,None,None,1,720.4909634,None,,P051,FENCOG,2,Pre,2022_Jun_10_1103,N-Back (New Version 2021),2021.1.4,120.0578198
,,,,Conditions/Version_1/twoback(2)_v1.xlsx,New rule: Press 'space' when you see 2-back (i.e. the same letter as the one that appeared 2 letters ago.),p,None,,,,,,,,,0,7,7,7,0,4,4,4,,,,,,,,,,,,,,,,,,,,,,,,,,,,,,,,,,,,,,,,,,,,,,,,,,,,,,,,,,,,,,,,,,,,,1.2952,723.792131,None,None,1,723.792131,None,,P051,FENCOG,2,Pre,2022_Jun_10_1103,N-Back (New Version 2021),2021.1.4,120.0578198
,,,,Conditions/Version_1/twoback(2)_v1.xlsx,New rule: Press 'space' when you see 2-back (i.e. the same letter as the one that appeared 2 letters ago.),H,None,,,,,,,,,0,7,7,7,0,5,5,5,,,,,,,,,,,,,,,,,,,,,,,,,,,,,,,,,,,,,,,,,,,,,,,,,,,,,,,,,,,,,,,,,,,,,1.6858,727.490028,None,None,1,727.490028,None,,P051,FENCOG,2,Pre,2022_Jun_10_1103,N-Back (New Version 2021),2021.1.4,120.0578198
,,,,Conditions/Version_1/twoback(2)_v1.xlsx,New rule: Press 'space' when you see 2-back (i.e. the same letter as the one that appeared 2 letters ago.),g,None,,,,,,,,,0,7,7,7,0,6,6,6,,,,,,,,,,,,,,,,,,,,,,,,,,,,,,,,,,,,,,,,,,,,,,,,,,,,,,,,,,,,,,,,,,,,,1.3696,730.8712557,None,None,1,730.8712557,None,,P051,FENCOG,2,Pre,2022_Jun_10_1103,N-Back (New Version 2021),2021.1.4,120.0578198
,,,,Conditions/Version_1/twoback(2)_v1.xlsx,New rule: Press 'space' when you see 2-back (i.e. the same letter as the one that appeared 2 letters ago.),j,None,,,,,,,,,0,7,7,7,0,7,7,7,,,,,,,,,,,,,,,,,,,,,,,,,,,,,,,,,,,,,,,,,,,,,,,,,,,,,,,,,,,,,,,,,,,,,1.2332,734.1129842,None,None,1,734.1129842,None,,P051,FENCOG,2,Pre,2022_Jun_10_1103,N-Back (New Version 2021),2021.1.4,120.0578198
,,,,Conditions/Version_1/twoback(2)_v1.xlsx,New rule: Press 'space' when you see 2-back (i.e. the same letter as the one that appeared 2 letters ago.),g,space,,,,,,,,,0,7,7,7,0,8,8,8,,,,,,,,,,,,,,,,,,,,,,,,,,,,,,,,,,,,,,,,,,,,,,,,,,,,,,,,,,,,,,,,,,,,,1.3324,737.4528446,None,space,1,737.4528446,None,1.4965824,P051,FENCOG,2,Pre,2022_Jun_10_1103,N-Back (New Version 2021),2021.1.4,120.0578198
,,,,Conditions/Version_1/twoback(2)_v1.xlsx,New rule: Press 'space' when you see 2-back (i.e. the same letter as the one that appeared 2 letters ago.),G,None,,,,,,,,,0,7,7,7,0,9,9,9,,,,,,,,,,,,,,,,,,,,,,,,,,,,,,,,,,,,,,,,,,,,,,,,,,,,,,,,,,,,,,,,,,,,,1.0658,740.5207516,None,None,1,740.5207516,None,,P051,FENCOG,2,Pre,2022_Jun_10_1103,N-Back (New Version 2021),2021.1.4,120.0578198
,,,,Conditions/Version_1/twoback(2)_v1.xlsx,New rule: Press 'space' when you see 2-back (i.e. the same letter as the one that appeared 2 letters ago.),,,,,,,,,,,0,7,7,7,,,,,,,,,,,,,,,,,,,,,,,,,,,,,,,,,,,,,,,,,,,,,,,,,,,,,,,,,,,,,,,,,,,,,,,,,,,,,,,,,P051,FENCOG,2,Pre,2022_Jun_10_1103,N-Back (New Version 2021),2021.1.4,120.0578198
,,,,Conditions/Version_1/threeback(3)_v1.xlsx,New rule: Press 'space' when you see 3-back (i.e. the same letter as the one that appeared 3 letters ago.),w,None,,,,,,,,,0,8,8,8,0,0,0,0,,,,,,,,,,,,,,,,,,,,,,,,,,,,,,,,,,,,,,,,,,,,,,,,,,,,,,,,,,,742.5488906,None,745.5360403,None,space,1.4373066,745.5360403,None,742.5488906,None,1.0906,748.1031093,None,None,1,748.1031093,None,,P051,FENCOG,2,Pre,2022_Jun_10_1103,N-Back (New Version 2021),2021.1.4,120.0578198
,,,,Conditions/Version_1/threeback(3)_v1.xlsx,New rule: Press 'space' when you see 3-back (i.e. the same letter as the one that appeared 3 letters ago.),p,None,,,,,,,,,0,8,8,8,0,1,1,1,,,,,,,,,,,,,,,,,,,,,,,,,,,,,,,,,,,,,,,,,,,,,,,,,,,,,,,,,,,,,,,,,,,,,1.227,751.3443528,None,None,1,751.3443528,None,,P051,FENCOG,2,Pre,2022_Jun_10_1103,N-Back (New Version 2021),2021.1.4,120.0578198
,,,,Conditions/Version_1/threeback(3)_v1.xlsx,New rule: Press 'space' when you see 3-back (i.e. the same letter as the one that appeared 3 letters ago.),P,None,,,,,,,,,0,8,8,8,0,2,2,2,,,,,,,,,,,,,,,,,,,,,,,,,,,,,,,,,,,,,,,,,,,,,,,,,,,,,,,,,,,,,,,,,,,,,1.0348,754.3902602,None,None,1,754.3902602,None,,P051,FENCOG,2,Pre,2022_Jun_10_1103,N-Back (New Version 2021),2021.1.4,120.0578198
,,,,Conditions/Version_1/threeback(3)_v1.xlsx,New rule: Press 'space' when you see 3-back (i.e. the same letter as the one that appeared 3 letters ago.),i,None,,,,,,,,,0,8,8,8,0,3,3,3,,,,,,,,,,,,,,,,,,,,,,,,,,,,,,,,,,,,,,,,,,,,,,,,,,,,,,,,,,,,,,,,,,,,,1.0782,757.4802435,None,None,1,757.4802435,None,,P051,FENCOG,2,Pre,2022_Jun_10_1103,N-Back (New Version 2021),2021.1.4,120.0578198
,,,,Conditions/Version_1/threeback(3)_v1.xlsx,New rule: Press 'space' when you see 3-back (i.e. the same letter as the one that appeared 3 letters ago.),f,None,,,,,,,,,0,8,8,8,0,4,4,4,,,,,,,,,,,,,,,,,,,,,,,,,,,,,,,,,,,,,,,,,,,,,,,,,,,,,,,,,,,,,,,,,,,,,1.0658,760.5459384,None,None,1,760.5459384,None,,P051,FENCOG,2,Pre,2022_Jun_10_1103,N-Back (New Version 2021),2021.1.4,120.0578198
,,,,Conditions/Version_1/threeback(3)_v1.xlsx,New rule: Press 'space' when you see 3-back (i.e. the same letter as the one that appeared 3 letters ago.),o,None,,,,,,,,,0,8,8,8,0,5,5,5,,,,,,,,,,,,,,,,,,,,,,,,,,,,,,,,,,,,,,,,,,,,,,,,,,,,,,,,,,,,,,,,,,,,,1.9834,764.5372198,None,None,1,764.5372198,None,,P051,FENCOG,2,Pre,2022_Jun_10_1103,N-Back (New Version 2021),2021.1.4,120.0578198
,,,,Conditions/Version_1/threeback(3)_v1.xlsx,New rule: Press 'space' when you see 3-back (i.e. the same letter as the one that appeared 3 letters ago.),w,None,,,,,,,,,0,8,8,8,0,6,6,6,,,,,,,,,,,,,,,,,,,,,,,,,,,,,,,,,,,,,,,,,,,,,,,,,,,,,,,,,,,,,,,,,,,,,1.8346,768.3869117,None,None,1,768.3869117,None,,P051,FENCOG,2,Pre,2022_Jun_10_1103,N-Back (New Version 2021),2021.1.4,120.0578198
,,,,Conditions/Version_1/threeback(3)_v1.xlsx,New rule: Press 'space' when you see 3-back (i.e. the same letter as the one that appeared 3 letters ago.),F,space,,,,,,,,,0,8,8,8,0,7,7,7,,,,,,,,,,,,,,,,,,,,,,,,,,,,,,,,,,,,,,,,,,,,,,,,,,,,,,,,,,,,,,,,,,,,,1.351,771.7508488,None,space,1,771.7508488,None,1.2704602,P051,FENCOG,2,Pre,2022_Jun_10_1103,N-Back (New Version 2021),2021.1.4,120.0578198
,,,,Conditions/Version_1/threeback(3)_v1.xlsx,New rule: Press 'space' when you see 3-back (i.e. the same letter as the one that appeared 3 letters ago.),p,None,,,,,,,,,0,8,8,8,0,8,8,8,,,,,,,,,,,,,,,,,,,,,,,,,,,,,,,,,,,,,,,,,,,,,,,,,,,,,,,,,,,,,,,,,,,,,1.32,775.0749268,None,None,1,775.0749268,None,,P051,FENCOG,2,Pre,2022_Jun_10_1103,N-Back (New Version 2021),2021.1.4,120.0578198
,,,,Conditions/Version_1/threeback(3)_v1.xlsx,New rule: Press 'space' when you see 3-back (i.e. the same letter as the one that appeared 3 letters ago.),W,space,,,,,,,,,0,8,8,8,0,9,9,9,,,,,,,,,,,,,,,,,,,,,,,,,,,,,,,,,,,,,,,,,,,,,,,,,,,,,,,,,,,,,,,,,,,,,1.382,778.4593902,None,space,1,778.4593902,None,1.0582671,P051,FENCOG,2,Pre,2022_Jun_10_1103,N-Back (New Version 2021),2021.1.4,120.0578198
,,,,Conditions/Version_1/threeback(3)_v1.xlsx,New rule: Press 'space' when you see 3-back (i.e. the same letter as the one that appeared 3 letters ago.),,,,,,,,,,,0,8,8,8,,,,,,,,,,,,,,,,,,,,,,,,,,,,,,,,,,,,,,,,,,,,,,,,,,,,,,,,,,,,,,,,,,,,,,,,,,,,,,,,,P051,FENCOG,2,Pre,2022_Jun_10_1103,N-Back (New Version 2021),2021.1.4,120.0578198
,,,,Conditions/Version_1/zeroback(3)_v1.xlsx,New rule: Press 'space' when you see the letter 'x' or 'X'.,X,space,,,,,,,,,0,9,9,9,0,0,0,0,,,,,,,,,,,,,,,,,,,,,,,,,,,,,,,,,,,,,,,,,,,,,,,,,,,,,,,,,,,780.4850055,None,783.474636,None,space,1.0428006,783.474636,None,780.4850055,None,1.3758,785.9228929,None,None,0,785.9228929,None,,P051,FENCOG,2,Pre,2022_Jun_10_1103,N-Back (New Version 2021),2021.1.4,120.0578198
,,,,Conditions/Version_1/zeroback(3)_v1.xlsx,New rule: Press 'space' when you see the letter 'x' or 'X'.,B,None,,,,,,,,,0,9,9,9,0,1,1,1,,,,,,,,,,,,,,,,,,,,,,,,,,,,,,,,,,,,,,,,,,,,,,,,,,,,,,,,,,,,,,,,,,,,,1.0472,788.981034,None,None,1,788.981034,None,,P051,FENCOG,2,Pre,2022_Jun_10_1103,N-Back (New Version 2021),2021.1.4,120.0578198
,,,,Conditions/Version_1/zeroback(3)_v1.xlsx,New rule: Press 'space' when you see the letter 'x' or 'X'.,m,None,,,,,,,,,0,9,9,9,0,2,2,2,,,,,,,,,,,,,,,,,,,,,,,,,,,,,,,,,,,,,,,,,,,,,,,,,,,,,,,,,,,,,,,,,,,,,1.0906,792.0793245,None,None,1,792.0793245,None,,P051,FENCOG,2,Pre,2022_Jun_10_1103,N-Back (New Version 2021),2021.1.4,120.0578198
,,,,Conditions/Version_1/zeroback(3)_v1.xlsx,New rule: Press 'space' when you see the letter 'x' or 'X'.,m,None,,,,,,,,,0,9,9,9,0,3,3,3,,,,,,,,,,,,,,,,,,,,,,,,,,,,,,,,,,,,,,,,,,,,,,,,,,,,,,,,,,,,,,,,,,,,,1.909,796.0021644,None,None,1,796.0021644,None,,P051,FENCOG,2,Pre,2022_Jun_10_1103,N-Back (New Version 2021),2021.1.4,120.0578198
,,,,Conditions/Version_1/zeroback(3)_v1.xlsx,New rule: Press 'space' when you see the letter 'x' or 'X'.,o,None,,,,,,,,,0,9,9,9,0,4,4,4,,,,,,,,,,,,,,,,,,,,,,,,,,,,,,,,,,,,,,,,,,,,,,,,,,,,,,,,,,,,,,,,,,,,,1.9462,799.9518762,None,None,1,799.9518762,None,,P051,FENCOG,2,Pre,2022_Jun_10_1103,N-Back (New Version 2021),2021.1.4,120.0578198
,,,,Conditions/Version_1/zeroback(3)_v1.xlsx,New rule: Press 'space' when you see the letter 'x' or 'X'.,p,None,,,,,,,,,0,9,9,9,0,5,5,5,,,,,,,,,,,,,,,,,,,,,,,,,,,,,,,,,,,,,,,,,,,,,,,,,,,,,,,,,,,,,,,,,,,,,1.0968,803.0594279,None,None,1,803.0594279,None,,P051,FENCOG,2,Pre,2022_Jun_10_1103,N-Back (New Version 2021),2021.1.4,120.0578198
,,,,Conditions/Version_1/zeroback(3)_v1.xlsx,New rule: Press 'space' when you see the letter 'x' or 'X'.,G,None,,,,,,,,,0,9,9,9,0,6,6,6,,,,,,,,,,,,,,,,,,,,,,,,,,,,,,,,,,,,,,,,,,,,,,,,,,,,,,,,,,,,,,,,,,,,,1.7168,806.7822113,None,None,1,806.7822113,None,,P051,FENCOG,2,Pre,2022_Jun_10_1103,N-Back (New Version 2021),2021.1.4,120.0578198
,,,,Conditions/Version_1/zeroback(3)_v1.xlsx,New rule: Press 'space' when you see the letter 'x' or 'X'.,X,space,,,,,,,,,0,9,9,9,0,7,7,7,,,,,,,,,,,,,,,,,,,,,,,,,,,,,,,,,,,,,,,,,,,,,,,,,,,,,,,,,,,,,,,,,,,,,1.32,810.1062045,None,space,1,810.1062045,None,0.7871139,P051,FENCOG,2,Pre,2022_Jun_10_1103,N-Back (New Version 2021),2021.1.4,120.0578198
,,,,Conditions/Version_1/zeroback(3)_v1.xlsx,New rule: Press 'space' when you see the letter 'x' or 'X'.,p,None,,,,,,,,,0,9,9,9,0,8,8,8,,,,,,,,,,,,,,,,,,,,,,,,,,,,,,,,,,,,,,,,,,,,,,,,,,,,,,,,,,,,,,,,,,,,,1.7292,813.8383007,None,None,1,813.8383007,None,,P051,FENCOG,2,Pre,2022_Jun_10_1103,N-Back (New Version 2021),2021.1.4,120.0578198
,,,,Conditions/Version_1/zeroback(3)_v1.xlsx,New rule: Press 'space' when you see the letter 'x' or 'X'.,x,space,,,,,,,,,0,9,9,9,0,9,9,9,,,,,,,,,,,,,,,,,,,,,,,,,,,,,,,,,,,,,,,,,,,,,,,,,,,,,,,,,,,,,,,,,,,,,1.9028,817.7457579,None,space,1,817.7457579,None,0.4194493,P051,FENCOG,2,Pre,2022_Jun_10_1103,N-Back (New Version 2021),2021.1.4,120.0578198
,,,,Conditions/Version_1/zeroback(3)_v1.xlsx,New rule: Press 'space' when you see the letter 'x' or 'X'.,,,,,,,,,,,0,9,9,9,,,,,,,,,,,,,,,,,,,,,,,,,,,,,,,,,,,,,,,,,,,,,,,,,,,,,,,,,,,,,,,,,,,,,,,,,,,,,,,,,P051,FENCOG,2,Pre,2022_Jun_10_1103,N-Back (New Version 2021),2021.1.4,120.0578198
,,,,Conditions/Version_1/twoback(3)_v1.xlsx,New rule: Press 'space' when you see 2-back (i.e. the same letter as the one that appeared 2 letters ago.),e,None,,,,,,,,,0,10,10,10,0,0,0,0,,,,,,,,,,,,,,,,,,,,,,,,,,,,,,,,,,,,,,,,,,,,,,,,,,,,,,,,,,,819.7677493,None,822.7553532,None,space,4.3140762,822.7553532,None,819.7677493,None,1.7478,828.8516513,None,None,1,828.8516513,None,,P051,FENCOG,2,Pre,2022_Jun_10_1103,N-Back (New Version 2021),2021.1.4,120.0578198
,,,,Conditions/Version_1/twoback(3)_v1.xlsx,New rule: Press 'space' when you see 2-back (i.e. the same letter as the one that appeared 2 letters ago.),o,None,,,,,,,,,0,10,10,10,0,1,1,1,,,,,,,,,,,,,,,,,,,,,,,,,,,,,,,,,,,,,,,,,,,,,,,,,,,,,,,,,,,,,,,,,,,,,1.4378,832.2997966,None,None,1,832.2997966,None,,P051,FENCOG,2,Pre,2022_Jun_10_1103,N-Back (New Version 2021),2021.1.4,120.0578198
,,,,Conditions/Version_1/twoback(3)_v1.xlsx,New rule: Press 'space' when you see 2-back (i.e. the same letter as the one that appeared 2 letters ago.),P,None,,,,,,,,,0,10,10,10,0,2,2,2,,,,,,,,,,,,,,,,,,,,,,,,,,,,,,,,,,,,,,,,,,,,,,,,,,,,,,,,,,,,,,,,,,,,,1.7044,836.0103733,None,None,1,836.0103733,None,,P051,FENCOG,2,Pre,2022_Jun_10_1103,N-Back (New Version 2021),2021.1.4,120.0578198
,,,,Conditions/Version_1/twoback(3)_v1.xlsx,New rule: Press 'space' when you see 2-back (i.e. the same letter as the one that appeared 2 letters ago.),z,None,,,,,,,,,0,10,10,10,0,3,3,3,,,,,,,,,,,,,,,,,,,,,,,,,,,,,,,,,,,,,,,,,,,,,,,,,,,,,,,,,,,,,,,,,,,,,1.7912,839.8070691,None,None,1,839.8070691,None,,P051,FENCOG,2,Pre,2022_Jun_10_1103,N-Back (New Version 2021),2021.1.4,120.0578198
,,,,Conditions/Version_1/twoback(3)_v1.xlsx,New rule: Press 'space' when you see 2-back (i.e. the same letter as the one that appeared 2 letters ago.),X,None,,,,,,,,,0,10,10,10,0,4,4,4,,,,,,,,,,,,,,,,,,,,,,,,,,,,,,,,,,,,,,,,,,,,,,,,,,,,,,,,,,,,,,,,,,,,,1.8284,843.6462133,None,None,1,843.6462133,None,,P051,FENCOG,2,Pre,2022_Jun_10_1103,N-Back (New Version 2021),2021.1.4,120.0578198
,,,,Conditions/Version_1/twoback(3)_v1.xlsx,New rule: Press 'space' when you see 2-back (i.e. the same letter as the one that appeared 2 letters ago.),z,space,,,,,,,,,0,10,10,10,0,5,5,5,,,,,,,,,,,,,,,,,,,,,,,,,,,,,,,,,,,,,,,,,,,,,,,,,,,,,,,,,,,,,,,,,,,,,1.8656,847.5118599,None,space,1,847.5118599,None,0.7655052,P051,FENCOG,2,Pre,2022_Jun_10_1103,N-Back (New Version 2021),2021.1.4,120.0578198
,,,,Conditions/Version_1/twoback(3)_v1.xlsx,New rule: Press 'space' when you see 2-back (i.e. the same letter as the one that appeared 2 letters ago.),x,space,,,,,,,,,0,10,10,10,0,6,6,6,,,,,,,,,,,,,,,,,,,,,,,,,,,,,,,,,,,,,,,,,,,,,,,,,,,,,,,,,,,,,,,,,,,,,1.196,850.7110059,None,space,1,850.7110059,None,0.6223087,P051,FENCOG,2,Pre,2022_Jun_10_1103,N-Back (New Version 2021),2021.1.4,120.0578198
,,,,Conditions/Version_1/twoback(3)_v1.xlsx,New rule: Press 'space' when you see 2-back (i.e. the same letter as the one that appeared 2 letters ago.),c,None,,,,,,,,,0,10,10,10,0,7,7,7,,,,,,,,,,,,,,,,,,,,,,,,,,,,,,,,,,,,,,,,,,,,,,,,,,,,,,,,,,,,,,,,,,,,,1.3324,854.0433213,None,None,1,854.0433213,None,,P051,FENCOG,2,Pre,2022_Jun_10_1103,N-Back (New Version 2021),2021.1.4,120.0578198
,,,,Conditions/Version_1/twoback(3)_v1.xlsx,New rule: Press 'space' when you see 2-back (i.e. the same letter as the one that appeared 2 letters ago.),i,None,,,,,,,,,0,10,10,10,0,8,8,8,,,,,,,,,,,,,,,,,,,,,,,,,,,,,,,,,,,,,,,,,,,,,,,,,,,,,,,,,,,,,,,,,,,,,1.103,857.1507106,None,None,1,857.1507106,None,,P051,FENCOG,2,Pre,2022_Jun_10_1103,N-Back (New Version 2021),2021.1.4,120.0578198
,,,,Conditions/Version_1/twoback(3)_v1.xlsx,New rule: Press 'space' when you see 2-back (i.e. the same letter as the one that appeared 2 letters ago.),C,space,,,,,,,,,0,10,10,10,0,9,9,9,,,,,,,,,,,,,,,,,,,,,,,,,,,,,,,,,,,,,,,,,,,,,,,,,,,,,,,,,,,,,,,,,,,,,1.3386,860.4939045,None,space,1,860.4939045,None,0.3835566,P051,FENCOG,2,Pre,2022_Jun_10_1103,N-Back (New Version 2021),2021.1.4,120.0578198
,,,,Conditions/Version_1/twoback(3)_v1.xlsx,New rule: Press 'space' when you see 2-back (i.e. the same letter as the one that appeared 2 letters ago.),,,,,,,,,,,0,10,10,10,,,,,,,,,,,,,,,,,,,,,,,,,,,,,,,,,,,,,,,,,,,,,,,,,,,,,,,,,,,,,,,,,,,,,,,,,,,,,,,,,P051,FENCOG,2,Pre,2022_Jun_10_1103,N-Back (New Version 2021),2021.1.4,120.0578198
,,,,Conditions/Version_1/oneback(3)_v1.xlsx,New rule: Press 'space' when you see 1-back (i.e. the same letter as the one that appeared 1 letter ago.),o,None,,,,,,,,,0,11,11,11,0,0,0,0,,,,,,,,,,,,,,,,,,,,,,,,,,,,,,,,,,,,,,,,,,,,,,,,,,,,,,,,,,,862.5229039,None,865.5083113,None,space,1.8809661,865.5083113,None,862.5229039,None,1.258,868.6817221,None,None,1,868.6817221,None,,P051,FENCOG,2,Pre,2022_Jun_10_1103,N-Back (New Version 2021),2021.1.4,120.0578198
,,,,Conditions/Version_1/oneback(3)_v1.xlsx,New rule: Press 'space' when you see 1-back (i.e. the same letter as the one that appeared 1 letter ago.),O,space,,,,,,,,,0,11,11,11,0,1,1,1,,,,,,,,,,,,,,,,,,,,,,,,,,,,,,,,,,,,,,,,,,,,,,,,,,,,,,,,,,,,,,,,,,,,,1.2146,871.9048534,None,space,1,871.9048534,None,0.556475,P051,FENCOG,2,Pre,2022_Jun_10_1103,N-Back (New Version 2021),2021.1.4,120.0578198
,,,,Conditions/Version_1/oneback(3)_v1.xlsx,New rule: Press 'space' when you see 1-back (i.e. the same letter as the one that appeared 1 letter ago.),h,None,,,,,,,,,0,11,11,11,0,2,2,2,,,,,,,,,,,,,,,,,,,,,,,,,,,,,,,,,,,,,,,,,,,,,,,,,,,,,,,,,,,,,,,,,,,,,1.2642,875.1793211,None,None,1,875.1793211,None,,P051,FENCOG,2,Pre,2022_Jun_10_1103,N-Back (New Version 2021),2021.1.4,120.0578198
,,,,Conditions/Version_1/oneback(3)_v1.xlsx,New rule: Press 'space' when you see 1-back (i.e. the same letter as the one that appeared 1 letter ago.),g,None,,,,,,,,,0,11,11,11,0,3,3,3,,,,,,,,,,,,,,,,,,,,,,,,,,,,,,,,,,,,,,,,,,,,,,,,,,,,,,,,,,,,,,,,,,,,,1.1526,878.3362284,None,None,1,878.3362284,None,,P051,FENCOG,2,Pre,2022_Jun_10_1103,N-Back (New Version 2021),2021.1.4,120.0578198
,,,,Conditions/Version_1/oneback(3)_v1.xlsx,New rule: Press 'space' when you see 1-back (i.e. the same letter as the one that appeared 1 letter ago.),n,None,,,,,,,,,0,11,11,11,0,4,4,4,,,,,,,,,,,,,,,,,,,,,,,,,,,,,,,,,,,,,,,,,,,,,,,,,,,,,,,,,,,,,,,,,,,,,1.165,881.5019547,None,None,1,881.5019547,None,,P051,FENCOG,2,Pre,2022_Jun_10_1103,N-Back (New Version 2021),2021.1.4,120.0578198
,,,,Conditions/Version_1/oneback(3)_v1.xlsx,New rule: Press 'space' when you see 1-back (i.e. the same letter as the one that appeared 1 letter ago.),z,None,,,,,,,,,0,11,11,11,0,5,5,5,,,,,,,,,,,,,,,,,,,,,,,,,,,,,,,,,,,,,,,,,,,,,,,,,,,,,,,,,,,,,,,,,,,,,1.5742,885.0779633,None,None,1,885.0779633,None,,P051,FENCOG,2,Pre,2022_Jun_10_1103,N-Back (New Version 2021),2021.1.4,120.0578198
,,,,Conditions/Version_1/oneback(3)_v1.xlsx,New rule: Press 'space' when you see 1-back (i.e. the same letter as the one that appeared 1 letter ago.),X,None,,,,,,,,,0,11,11,11,0,6,6,6,,,,,,,,,,,,,,,,,,,,,,,,,,,,,,,,,,,,,,,,,,,,,,,,,,,,,,,,,,,,,,,,,,,,,1.7106,888.7996191,None,None,1,888.7996191,None,,P051,FENCOG,2,Pre,2022_Jun_10_1103,N-Back (New Version 2021),2021.1.4,120.0578198
,,,,Conditions/Version_1/oneback(3)_v1.xlsx,New rule: Press 'space' when you see 1-back (i.e. the same letter as the one that appeared 1 letter ago.),r,None,,,,,,,,,0,11,11,11,0,7,7,7,,,,,,,,,,,,,,,,,,,,,,,,,,,,,,,,,,,,,,,,,,,,,,,,,,,,,,,,,,,,,,,,,,,,,1.8532,892.6596069,None,None,1,892.6596069,None,,P051,FENCOG,2,Pre,2022_Jun_10_1103,N-Back (New Version 2021),2021.1.4,120.0578198
,,,,Conditions/Version_1/oneback(3)_v1.xlsx,New rule: Press 'space' when you see 1-back (i.e. the same letter as the one that appeared 1 letter ago.),r,space,,,,,,,,,0,11,11,11,0,8,8,8,,,,,,,,,,,,,,,,,,,,,,,,,,,,,,,,,,,,,,,,,,,,,,,,,,,,,,,,,,,,,,,,,,,,,1.3014,895.9727816,None,space,1,895.9727816,None,0.9607868,P051,FENCOG,2,Pre,2022_Jun_10_1103,N-Back (New Version 2021),2021.1.4,120.0578198
,,,,Conditions/Version_1/oneback(3)_v1.xlsx,New rule: Press 'space' when you see 1-back (i.e. the same letter as the one that appeared 1 letter ago.),P,None,,,,,,,,,0,11,11,11,0,9,9,9,,,,,,,,,,,,,,,,,,,,,,,,,,,,,,,,,,,,,,,,,,,,,,,,,,,,,,,,,,,,,,,,,,,,,1.4812,899.4939039,None,None,1,899.4939039,None,,P051,FENCOG,2,Pre,2022_Jun_10_1103,N-Back (New Version 2021),2021.1.4,120.0578198
,,,,Conditions/Version_1/oneback(3)_v1.xlsx,New rule: Press 'space' when you see 1-back (i.e. the same letter as the one that appeared 1 letter ago.),,,,,,,,,,,0,11,11,11,,,,,,,,,,,,,,,,,,,,,,,,,,,,,,,,,,,,,,,,,,,,,,,,,,,,,,,,,,,,,,,,,,,,,,,,,,,,,,,,,P051,FENCOG,2,Pre,2022_Jun_10_1103,N-Back (New Version 2021),2021.1.4,120.0578198
,,,,Conditions/Version_1/twoback(4)_v1.xlsx,New rule: Press 'space' when you see 2-back (i.e. the same letter as the one that appeared 2 letters ago.),r,None,,,,,,,,,0,12,12,12,0,0,0,0,,,,,,,,,,,,,,,,,,,,,,,,,,,,,,,,,,,,,,,,,,,,,,,,,,,,,,,,,,,901.4845898,None,904.4725498,None,space,1.3648791,904.4725498,None,901.4845898,None,1.909,907.77741,None,None,1,907.77741,None,,P051,FENCOG,2,Pre,2022_Jun_10_1103,N-Back (New Version 2021),2021.1.4,120.0578198
,,,,Conditions/Version_1/twoback(4)_v1.xlsx,New rule: Press 'space' when you see 2-back (i.e. the same letter as the one that appeared 2 letters ago.),T,None,,,,,,,,,0,12,12,12,0,1,1,1,,,,,,,,,,,,,,,,,,,,,,,,,,,,,,,,,,,,,,,,,,,,,,,,,,,,,,,,,,,,,,,,,,,,,1.9028,911.6853815,None,None,1,911.6853815,None,,P051,FENCOG,2,Pre,2022_Jun_10_1103,N-Back (New Version 2021),2021.1.4,120.0578198
,,,,Conditions/Version_1/twoback(4)_v1.xlsx,New rule: Press 'space' when you see 2-back (i.e. the same letter as the one that appeared 2 letters ago.),o,None,,,,,,,,,0,12,12,12,0,2,2,2,,,,,,,,,,,,,,,,,,,,,,,,,,,,,,,,,,,,,,,,,,,,,,,,,,,,,,,,,,,,,,,,,,,,,1.7292,915.4265105,None,None,1,915.4265105,None,,P051,FENCOG,2,Pre,2022_Jun_10_1103,N-Back (New Version 2021),2021.1.4,120.0578198
,,,,Conditions/Version_1/twoback(4)_v1.xlsx,New rule: Press 'space' when you see 2-back (i.e. the same letter as the one that appeared 2 letters ago.),p,None,,,,,,,,,0,12,12,12,0,3,3,3,,,,,,,,,,,,,,,,,,,,,,,,,,,,,,,,,,,,,,,,,,,,,,,,,,,,,,,,,,,,,,,,,,,,,1.7106,919.1514073,None,None,1,919.1514073,None,,P051,FENCOG,2,Pre,2022_Jun_10_1103,N-Back (New Version 2021),2021.1.4,120.0578198
,,,,Conditions/Version_1/twoback(4)_v1.xlsx,New rule: Press 'space' when you see 2-back (i.e. the same letter as the one that appeared 2 letters ago.),p,None,,,,,,,,,0,12,12,12,0,4,4,4,,,,,,,,,,,,,,,,,,,,,,,,,,,,,,,,,,,,,,,,,,,,,,,,,,,,,,,,,,,,,,,,,,,,,1.32,922.4814755,None,None,1,922.4814755,None,,P051,FENCOG,2,Pre,2022_Jun_10_1103,N-Back (New Version 2021),2021.1.4,120.0578198
,,,,Conditions/Version_1/twoback(4)_v1.xlsx,New rule: Press 'space' when you see 2-back (i.e. the same letter as the one that appeared 2 letters ago.),y,None,,,,,,,,,0,12,12,12,0,5,5,5,,,,,,,,,,,,,,,,,,,,,,,,,,,,,,,,,,,,,,,,,,,,,,,,,,,,,,,,,,,,,,,,,,,,,1.4564,925.9387465,None,None,1,925.9387465,None,,P051,FENCOG,2,Pre,2022_Jun_10_1103,N-Back (New Version 2021),2021.1.4,120.0578198
,,,,Conditions/Version_1/twoback(4)_v1.xlsx,New rule: Press 'space' when you see 2-back (i.e. the same letter as the one that appeared 2 letters ago.),P,space,,,,,,,,,0,12,12,12,0,6,6,6,,,,,,,,,,,,,,,,,,,,,,,,,,,,,,,,,,,,,,,,,,,,,,,,,,,,,,,,,,,,,,,,,,,,,1.3572,929.2960604,None,space,1,929.2960604,None,0.3895234,P051,FENCOG,2,Pre,2022_Jun_10_1103,N-Back (New Version 2021),2021.1.4,120.0578198
,,,,Conditions/Version_1/twoback(4)_v1.xlsx,New rule: Press 'space' when you see 2-back (i.e. the same letter as the one that appeared 2 letters ago.),y,None,,,,,,,,,0,12,12,12,0,7,7,7,,,,,,,,,,,,,,,,,,,,,,,,,,,,,,,,,,,,,,,,,,,,,,,,,,,,,,,,,,,,,,,,,,,,,1.971,933.2718097,None,space,0,933.2718097,None,0.365557,P051,FENCOG,2,Pre,2022_Jun_10_1103,N-Back (New Version 2021),2021.1.4,120.0578198
,,,,Conditions/Version_1/twoback(4)_v1.xlsx,New rule: Press 'space' when you see 2-back (i.e. the same letter as the one that appeared 2 letters ago.),y,space,,,,,,,,,0,12,12,12,0,8,8,8,,,,,,,,,,,,,,,,,,,,,,,,,,,,,,,,,,,,,,,,,,,,,,,,,,,,,,,,,,,,,,,,,,,,,1.6176,936.9032208,None,None,0,936.9032208,None,,P051,FENCOG,2,Pre,2022_Jun_10_1103,N-Back (New Version 2021),2021.1.4,120.0578198
,,,,Conditions/Version_1/twoback(4)_v1.xlsx,New rule: Press 'space' when you see 2-back (i.e. the same letter as the one that appeared 2 letters ago.),,,,,,,,,,,0,12,12,12,,,,,,,,,,,,,,,,,,,,,,,,,,,,,,,,,,,,,,,,,,,,,,,,,,,,,,,,,,,,,,,,,,,,,,,,,,,,,,,,,P051,FENCOG,2,Pre,2022_Jun_10_1103,N-Back (New Version 2021),2021.1.4,120.0578198
,,,,Conditions/Version_1/zeroback(4)_v1.xlsx,New rule: Press 'space' when you see the letter 'x' or 'X'.,o,None,,,,,,,,,0,13,13,13,0,0,0,0,,,,,,,,,,,,,,,,,,,,,,,,,,,,,,,,,,,,,,,,,,,,,,,,,,,,,,,,,,,938.9301789,None,941.919563,None,space,0.5496209,941.919563,None,938.9301789,None,1.9834,944.4833227,None,None,1,944.4833227,None,,P051,FENCOG,2,Pre,2022_Jun_10_1103,N-Back (New Version 2021),2021.1.4,120.0578198
,,,,Conditions/Version_1/zeroback(4)_v1.xlsx,New rule: Press 'space' when you see the letter 'x' or 'X'.,X,space,,,,,,,,,0,13,13,13,0,1,1,1,,,,,,,,,,,,,,,,,,,,,,,,,,,,,,,,,,,,,,,,,,,,,,,,,,,,,,,,,,,,,,,,,,,,,1.2766,947.7656265,None,space,1,947.7656265,None,0.5035147,P051,FENCOG,2,Pre,2022_Jun_10_1103,N-Back (New Version 2021),2021.1.4,120.0578198
,,,,Conditions/Version_1/zeroback(4)_v1.xlsx,New rule: Press 'space' when you see the letter 'x' or 'X'.,p,None,,,,,,,,,0,13,13,13,0,2,2,2,,,,,,,,,,,,,,,,,,,,,,,,,,,,,,,,,,,,,,,,,,,,,,,,,,,,,,,,,,,,,,,,,,,,,1.754,951.5228492,None,None,1,951.5228492,None,,P051,FENCOG,2,Pre,2022_Jun_10_1103,N-Back (New Version 2021),2021.1.4,120.0578198
,,,,Conditions/Version_1/zeroback(4)_v1.xlsx,New rule: Press 'space' when you see the letter 'x' or 'X'.,m,None,,,,,,,,,0,13,13,13,0,3,3,3,,,,,,,,,,,,,,,,,,,,,,,,,,,,,,,,,,,,,,,,,,,,,,,,,,,,,,,,,,,,,,,,,,,,,1.9028,955.430755,None,None,1,955.430755,None,,P051,FENCOG,2,Pre,2022_Jun_10_1103,N-Back (New Version 2021),2021.1.4,120.0578198
,,,,Conditions/Version_1/zeroback(4)_v1.xlsx,New rule: Press 'space' when you see the letter 'x' or 'X'.,n,None,,,,,,,,,0,13,13,13,0,4,4,4,,,,,,,,,,,,,,,,,,,,,,,,,,,,,,,,,,,,,,,,,,,,,,,,,,,,,,,,,,,,,,,,,,,,,1.444,958.8873738,None,None,1,958.8873738,None,,P051,FENCOG,2,Pre,2022_Jun_10_1103,N-Back (New Version 2021),2021.1.4,120.0578198
,,,,Conditions/Version_1/zeroback(4)_v1.xlsx,New rule: Press 'space' when you see the letter 'x' or 'X'.,m,None,,,,,,,,,0,13,13,13,0,5,5,5,,,,,,,,,,,,,,,,,,,,,,,,,,,,,,,,,,,,,,,,,,,,,,,,,,,,,,,,,,,,,,,,,,,,,1.4006,962.2946996,None,None,1,962.2946996,None,,P051,FENCOG,2,Pre,2022_Jun_10_1103,N-Back (New Version 2021),2021.1.4,120.0578198
,,,,Conditions/Version_1/zeroback(4)_v1.xlsx,New rule: Press 'space' when you see the letter 'x' or 'X'.,C,None,,,,,,,,,0,13,13,13,0,6,6,6,,,,,,,,,,,,,,,,,,,,,,,,,,,,,,,,,,,,,,,,,,,,,,,,,,,,,,,,,,,,,,,,,,,,,1.1898,965.4863066,None,None,1,965.4863066,None,,P051,FENCOG,2,Pre,2022_Jun_10_1103,N-Back (New Version 2021),2021.1.4,120.0578198
,,,,Conditions/Version_1/zeroback(4)_v1.xlsx,New rule: Press 'space' when you see the letter 'x' or 'X'.,m,None,,,,,,,,,0,13,13,13,0,7,7,7,,,,,,,,,,,,,,,,,,,,,,,,,,,,,,,,,,,,,,,,,,,,,,,,,,,,,,,,,,,,,,,,,,,,,1.134,968.6359834,None,None,1,968.6359834,None,,P051,FENCOG,2,Pre,2022_Jun_10_1103,N-Back (New Version 2021),2021.1.4,120.0578198
,,,,Conditions/Version_1/zeroback(4)_v1.xlsx,New rule: Press 'space' when you see the letter 'x' or 'X'.,p,None,,,,,,,,,0,13,13,13,0,8,8,8,,,,,,,,,,,,,,,,,,,,,,,,,,,,,,,,,,,,,,,,,,,,,,,,,,,,,,,,,,,,,,,,,,,,,1.3882,972.0346606,None,None,1,972.0346606,None,,P051,FENCOG,2,Pre,2022_Jun_10_1103,N-Back (New Version 2021),2021.1.4,120.0578198
,,,,Conditions/Version_1/zeroback(4)_v1.xlsx,New rule: Press 'space' when you see the letter 'x' or 'X'.,X,space,,,,,,,,,0,13,13,13,0,9,9,9,,,,,,,,,,,,,,,,,,,,,,,,,,,,,,,,,,,,,,,,,,,,,,,,,,,,,,,,,,,,,,,,,,,,,1.7106,975.7575295,None,space,1,975.7575295,None,0.5598335,P051,FENCOG,2,Pre,2022_Jun_10_1103,N-Back (New Version 2021),2021.1.4,120.0578198
,,,,Conditions/Version_1/zeroback(4)_v1.xlsx,New rule: Press 'space' when you see the letter 'x' or 'X'.,,,,,,,,,,,0,13,13,13,,,,,,,,,,,,,,,,,,,,,,,,,,,,,,,,,,,,,,,,,,,,,,,,,,,,,,,,,,,,,,,,,,,,,,,,,,,,,,,,,P051,FENCOG,2,Pre,2022_Jun_10_1103,N-Back (New Version 2021),2021.1.4,120.0578198
,,,,Conditions/Version_1/oneback(4)_v1.xlsx,New rule: Press 'space' when you see 1-back (i.e. the same letter as the one that appeared 1 letter ago.),w,None,,,,,,,,,0,14,14,14,0,0,0,0,,,,,,,,,,,,,,,,,,,,,,,,,,,,,,,,,,,,,,,,,,,,,,,,,,,,,,,,,,,977.7796902,None,980.7669967,None,space,1.0382791,980.7669967,None,977.7796902,None,1.8222,983.6633007,None,None,1,983.6633007,None,,P051,FENCOG,2,Pre,2022_Jun_10_1103,N-Back (New Version 2021),2021.1.4,120.0578198
,,,,Conditions/Version_1/oneback(4)_v1.xlsx,New rule: Press 'space' when you see 1-back (i.e. the same letter as the one that appeared 1 letter ago.),q,None,,,,,,,,,0,14,14,14,0,1,1,1,,,,,,,,,,,,,,,,,,,,,,,,,,,,,,,,,,,,,,,,,,,,,,,,,,,,,,,,,,,,,,,,,,,,,1.878,987.5456208,None,None,1,987.5456208,None,,P051,FENCOG,2,Pre,2022_Jun_10_1103,N-Back (New Version 2021),2021.1.4,120.0578198
,,,,Conditions/Version_1/oneback(4)_v1.xlsx,New rule: Press 'space' when you see 1-back (i.e. the same letter as the one that appeared 1 letter ago.),i,None,,,,,,,,,0,14,14,14,0,2,2,2,,,,,,,,,,,,,,,,,,,,,,,,,,,,,,,,,,,,,,,,,,,,,,,,,,,,,,,,,,,,,,,,,,,,,1.0472,990.5946595,None,None,1,990.5946595,None,,P051,FENCOG,2,Pre,2022_Jun_10_1103,N-Back (New Version 2021),2021.1.4,120.0578198
,,,,Conditions/Version_1/oneback(4)_v1.xlsx,New rule: Press 'space' when you see 1-back (i.e. the same letter as the one that appeared 1 letter ago.),t,None,,,,,,,,,0,14,14,14,0,3,3,3,,,,,,,,,,,,,,,,,,,,,,,,,,,,,,,,,,,,,,,,,,,,,,,,,,,,,,,,,,,,,,,,,,,,,1.4874,994.085477,None,None,1,994.085477,None,,P051,FENCOG,2,Pre,2022_Jun_10_1103,N-Back (New Version 2021),2021.1.4,120.0578198
,,,,Conditions/Version_1/oneback(4)_v1.xlsx,New rule: Press 'space' when you see 1-back (i.e. the same letter as the one that appeared 1 letter ago.),v,None,,,,,,,,,0,14,14,14,0,4,4,4,,,,,,,,,,,,,,,,,,,,,,,,,,,,,,,,,,,,,,,,,,,,,,,,,,,,,,,,,,,,,,,,,,,,,1.9958,998.087103,None,None,1,998.087103,None,,P051,FENCOG,2,Pre,2022_Jun_10_1103,N-Back (New Version 2021),2021.1.4,120.0578198
,,,,Conditions/Version_1/oneback(4)_v1.xlsx,New rule: Press 'space' when you see 1-back (i.e. the same letter as the one that appeared 1 letter ago.),V,space,,,,,,,,,0,14,14,14,0,5,5,5,,,,,,,,,,,,,,,,,,,,,,,,,,,,,,,,,,,,,,,,,,,,,,,,,,,,,,,,,,,,,,,,,,,,,1.7354,1001.834933,None,space,1,1001.834933,None,0.9942612,P051,FENCOG,2,Pre,2022_Jun_10_1103,N-Back (New Version 2021),2021.1.4,120.0578198
,,,,Conditions/Version_1/oneback(4)_v1.xlsx,New rule: Press 'space' when you see 1-back (i.e. the same letter as the one that appeared 1 letter ago.),v,space,,,,,,,,,0,14,14,14,0,6,6,6,,,,,,,,,,,,,,,,,,,,,,,,,,,,,,,,,,,,,,,,,,,,,,,,,,,,,,,,,,,,,,,,,,,,,1.6796,1005.524622,None,space,1,1005.524622,None,0.9368354,P051,FENCOG,2,Pre,2022_Jun_10_1103,N-Back (New Version 2021),2021.1.4,120.0578198
,,,,Conditions/Version_1/oneback(4)_v1.xlsx,New rule: Press 'space' when you see 1-back (i.e. the same letter as the one that appeared 1 letter ago.),p,None,,,,,,,,,0,14,14,14,0,7,7,7,,,,,,,,,,,,,,,,,,,,,,,,,,,,,,,,,,,,,,,,,,,,,,,,,,,,,,,,,,,,,,,,,,,,,1.8036,1009.339323,None,None,1,1009.339323,None,,P051,FENCOG,2,Pre,2022_Jun_10_1103,N-Back (New Version 2021),2021.1.4,120.0578198
,,,,Conditions/Version_1/oneback(4)_v1.xlsx,New rule: Press 'space' when you see 1-back (i.e. the same letter as the one that appeared 1 letter ago.),w,None,,,,,,,,,0,14,14,14,0,8,8,8,,,,,,,,,,,,,,,,,,,,,,,,,,,,,,,,,,,,,,,,,,,,,,,,,,,,,,,,,,,,,,,,,,,,,1.0968,1012.438726,None,None,1,1012.438726,None,,P051,FENCOG,2,Pre,2022_Jun_10_1103,N-Back (New Version 2021),2021.1.4,120.0578198
,,,,Conditions/Version_1/oneback(4)_v1.xlsx,New rule: Press 'space' when you see 1-back (i.e. the same letter as the one that appeared 1 letter ago.),W,space,,,,,,,,,0,14,14,14,0,9,9,9,,,,,,,,,,,,,,,,,,,,,,,,,,,,,,,,,,,,,,,,,,,,,,,,,,,,,,,,,,,,,,,,,,,,,1.103,1015.5458,None,space,1,1015.5458,None,0.675441,P051,FENCOG,2,Pre,2022_Jun_10_1103,N-Back (New Version 2021),2021.1.4,120.0578198
,,,,Conditions/Version_1/oneback(4)_v1.xlsx,New rule: Press 'space' when you see 1-back (i.e. the same letter as the one that appeared 1 letter ago.),,,,,,,,,,,0,14,14,14,,,,,,,,,,,,,,,,,,,,,,,,,,,,,,,,,,,,,,,,,,,,,,,,,,,,,,,,,,,,,,,,,,,,,,,,,,,,,,,,,P051,FENCOG,2,Pre,2022_Jun_10_1103,N-Back (New Version 2021),2021.1.4,120.0578198
,,,,Conditions/Version_1/threeback(4)_v1.xlsx,New rule: Press 'space' when you see 3-back (i.e. the same letter as the one that appeared 3 letters ago.),A,None,,,,,,,,,0,15,15,15,0,0,0,0,,,,,,,,,,,,,,,,,,,,,,,,,,,,,,,,,,,,,,,,,,,,,,,,,,,,,,,,,,,1017.569722,None,1020.55477,None,space,6.1786189,1020.55477,None,1017.569722,None,1.6362,1028.403786,None,None,1,1028.403786,None,,P051,FENCOG,2,Pre,2022_Jun_10_1103,N-Back (New Version 2021),2021.1.4,120.0578198
,,,,Conditions/Version_1/threeback(4)_v1.xlsx,New rule: Press 'space' when you see 3-back (i.e. the same letter as the one that appeared 3 letters ago.),n,None,,,,,,,,,0,15,15,15,0,1,1,1,,,,,,,,,,,,,,,,,,,,,,,,,,,,,,,,,,,,,,,,,,,,,,,,,,,,,,,,,,,,,,,,,,,,,1.0472,1031.458716,None,None,1,1031.458716,None,,P051,FENCOG,2,Pre,2022_Jun_10_1103,N-Back (New Version 2021),2021.1.4,120.0578198
,,,,Conditions/Version_1/threeback(4)_v1.xlsx,New rule: Press 'space' when you see 3-back (i.e. the same letter as the one that appeared 3 letters ago.),g,None,,,,,,,,,0,15,15,15,0,2,2,2,,,,,,,,,,,,,,,,,,,,,,,,,,,,,,,,,,,,,,,,,,,,,,,,,,,,,,,,,,,,,,,,,,,,,1.4998,1034.964918,None,None,1,1034.964918,None,,P051,FENCOG,2,Pre,2022_Jun_10_1103,N-Back (New Version 2021),2021.1.4,120.0578198
,,,,Conditions/Version_1/threeback(4)_v1.xlsx,New rule: Press 'space' when you see 3-back (i.e. the same letter as the one that appeared 3 letters ago.),A,space,,,,,,,,,0,15,15,15,0,3,3,3,,,,,,,,,,,,,,,,,,,,,,,,,,,,,,,,,,,,,,,,,,,,,,,,,,,,,,,,,,,,,,,,,,,,,1.3572,1038.324547,None,space,1,1038.324547,None,0.8488854,P051,FENCOG,2,Pre,2022_Jun_10_1103,N-Back (New Version 2021),2021.1.4,120.0578198
,,,,Conditions/Version_1/threeback(4)_v1.xlsx,New rule: Press 'space' when you see 3-back (i.e. the same letter as the one that appeared 3 letters ago.),p,None,,,,,,,,,0,15,15,15,0,4,4,4,,,,,,,,,,,,,,,,,,,,,,,,,,,,,,,,,,,,,,,,,,,,,,,,,,,,,,,,,,,,,,,,,,,,,1.6114,1041.946026,None,None,1,1041.946026,None,,P051,FENCOG,2,Pre,2022_Jun_10_1103,N-Back (New Version 2021),2021.1.4,120.0578198
,,,,Conditions/Version_1/threeback(4)_v1.xlsx,New rule: Press 'space' when you see 3-back (i.e. the same letter as the one that appeared 3 letters ago.),O,None,,,,,,,,,0,15,15,15,0,5,5,5,,,,,,,,,,,,,,,,,,,,,,,,,,,,,,,,,,,,,,,,,,,,,,,,,,,,,,,,,,,,,,,,,,,,,1.1278,1045.079674,None,None,1,1045.079674,None,,P051,FENCOG,2,Pre,2022_Jun_10_1103,N-Back (New Version 2021),2021.1.4,120.0578198
,,,,Conditions/Version_1/threeback(4)_v1.xlsx,New rule: Press 'space' when you see 3-back (i.e. the same letter as the one that appeared 3 letters ago.),a,space,,,,,,,,,0,15,15,15,0,6,6,6,,,,,,,,,,,,,,,,,,,,,,,,,,,,,,,,,,,,,,,,,,,,,,,,,,,,,,,,,,,,,,,,,,,,,1.5184,1048.611435,None,space,1,1048.611435,None,0.5938491,P051,FENCOG,2,Pre,2022_Jun_10_1103,N-Back (New Version 2021),2021.1.4,120.0578198
,,,,Conditions/Version_1/threeback(4)_v1.xlsx,New rule: Press 'space' when you see 3-back (i.e. the same letter as the one that appeared 3 letters ago.),p,space,,,,,,,,,0,15,15,15,0,7,7,7,,,,,,,,,,,,,,,,,,,,,,,,,,,,,,,,,,,,,,,,,,,,,,,,,,,,,,,,,,,,,,,,,,,,,1.1092,1051.730826,None,space,1,1051.730826,None,0.898649,P051,FENCOG,2,Pre,2022_Jun_10_1103,N-Back (New Version 2021),2021.1.4,120.0578198
,,,,Conditions/Version_1/threeback(4)_v1.xlsx,New rule: Press 'space' when you see 3-back (i.e. the same letter as the one that appeared 3 letters ago.),x,None,,,,,,,,,0,15,15,15,0,8,8,8,,,,,,,,,,,,,,,,,,,,,,,,,,,,,,,,,,,,,,,,,,,,,,,,,,,,,,,,,,,,,,,,,,,,,1.9586,1055.692146,None,None,1,1055.692146,None,,P051,FENCOG,2,Pre,2022_Jun_10_1103,N-Back (New Version 2021),2021.1.4,120.0578198
,,,,Conditions/Version_1/threeback(4)_v1.xlsx,New rule: Press 'space' when you see 3-back (i.e. the same letter as the one that appeared 3 letters ago.),X,None,,,,,,,,,0,15,15,15,0,9,9,9,,,,,,,,,,,,,,,,,,,,,,,,,,,,,,,,,,,,,,,,,,,,,,,,,,,,,,,,,,,,,,,,,,,,,1.7292,1059.42654,None,None,1,1059.42654,None,,P051,FENCOG,2,Pre,2022_Jun_10_1103,N-Back (New Version 2021),2021.1.4,120.0578198
,,,,Conditions/Version_1/threeback(4)_v1.xlsx,New rule: Press 'space' when you see 3-back (i.e. the same letter as the one that appeared 3 letters ago.),,,,,,,,,,,0,15,15,15,,,,,,,,,,,,,,,,,,,,,,,,,,,,,,,,,,,,,,,,,,,,,,,,,,,,,,,,,,,,,,,,,,,,,,,,,,,,,,,,,P051,FENCOG,2,Pre,2022_Jun_10_1103,N-Back (New Version 2021),2021.1.4,120.0578198
