CondFileP,InstructionsP,LettersDisplayedP,CorrectnessP,CondFile,Instructions,LettersDisplayed,Correctness,practicetrials.thisRepN,practicetrials.thisTrialN,practicetrials.thisN,practicetrials.thisIndex,InnerLoopPractice.thisRepN,InnerLoopPractice.thisTrialN,InnerLoopPractice.thisN,InnerLoopPractice.thisIndex,trials.thisRepN,trials.thisTrialN,trials.thisN,trials.thisIndex,InnerLoop.thisRepN,InnerLoop.thisTrialN,InnerLoop.thisN,InnerLoop.thisIndex,TaskVersionText.started,TaskVersionText.stopped,InstrKey1.keys,InstrKey1.rt,InstrKey1.started,InstrKey1.stopped,text.started,text.stopped,key_resp_4.keys,key_resp_4.rt,key_resp_4.started,key_resp_4.stopped,text_2.started,text_2.stopped,key_resp_3.keys,key_resp_3.rt,key_resp_3.started,key_resp_3.stopped,text_3.started,text_3.stopped,key_resp_2.keys,key_resp_2.rt,key_resp_2.started,key_resp_2.stopped,PractIn1.started,PractIn1.stopped,PractIn2.started,PractIn2.stopped,PractInstructionPass.keys,PractInstructionPass.rt,PractInstructionPass.started,PractInstructionPass.stopped,PractBlock1.started,PractBlock1.stopped,ISIjitterPractice,ISI_Pract_Fixation.started,ISI_Pract_Fixation.stopped,N_backP.started,N_backP.stopped,KeyPractice.keys,KeyPractice.corr,KeyPractice.rt,KeyPractice.started,KeyPractice.stopped,text_4.started,text_4.stopped,TransitionText.started,TransitionText.stopped,key_resp_6.keys,key_resp_6.rt,key_resp_6.started,key_resp_6.stopped,text_5.started,text_5.stopped,key_resp_5.keys,key_resp_5.rt,key_resp_5.started,key_resp_5.stopped,MainInt1.started,MainInt1.stopped,MainInt2.started,MainInt2.stopped,InstructionPass.keys,InstructionPass.rt,InstructionPass.started,InstructionPass.stopped,Blocks1.started,Blocks1.stopped,ISIjitter,N_backD.started,N_backD.stopped,key_resp.keys,key_resp.corr,key_resp.started,key_resp.stopped,key_resp.rt,participant,Study Name,Task Version (required to run),PRE/POST,date,expName,psychopyVersion,frameRate,
,,,,,,,,,,,,,,,,,,,,,,,,28.250749700000142,None,space,100.69371750000028,28.746539199999916,None,,,,,,,,,,,,,,,,,,,,,,,,,,,,,,,,,,,,,,,,,,,,,,,,,,,,,,,,,,,,,,,,,,,,,,,P052,fencog,2,Pre,2022_Jun_11_1130,N-Back (New Version 2021),2021.1.4,119.91155323840198,
,,,,,,,,,,,,,,,,,,,,,,,,,,,,,,129.4775568,None,space,7.016980399999738,129.96720890000006,None,,,,,,,,,,,,,,,,,,,,,,,,,,,,,,,,,,,,,,,,,,,,,,,,,,,,,,,,,,,,,,,,,P052,fencog,2,Pre,2022_Jun_11_1130,N-Back (New Version 2021),2021.1.4,119.91155323840198,
,,,,,,,,,,,,,,,,,,,,,,,,,,,,,,,,,,,,137.02090940000016,None,space,7.965104599999904,137.51509639999995,None,,,,,,,,,,,,,,,,,,,,,,,,,,,,,,,,,,,,,,,,,,,,,,,,,,,,,,,,,,,P052,fencog,2,Pre,2022_Jun_11_1130,N-Back (New Version 2021),2021.1.4,119.91155323840198,
,,,,,,,,,,,,,,,,,,,,,,,,,,,,,,,,,,,,,,,,,,145.5079635000002,None,space,9.156606999999894,145.99596340000016,None,,,,,,,,,,,,,,,,,,,,,,,,,,,,,,,,,,,,,,,,,,,,,,,,,,,,,P052,fencog,2,Pre,2022_Jun_11_1130,N-Back (New Version 2021),2021.1.4,119.91155323840198,
Conditions/Version_2Pr/zeroback(1)_v2.xlsx,Rule: Press 'space' when you see the letter 'x' or 'X'.,x,space,,,,,0,0,0,0,0,0,0,0,,,,,,,,,,,,,,,,,,,,,,,,,,,,,,,,,156.50458720000006,None,159.48457910000025,None,space,1.17154359999995,159.48457910000025,None,156.50458720000006,None,1.54,160.6910287999999,None,162.23578300000008,None,space,1,0.3003444999999374,162.23578300000008,None,162.55688220000002,None,,,,,,,,,,,,,,,,,,,,,,,,,,,,,,,P052,fencog,2,Pre,2022_Jun_11_1130,N-Back (New Version 2021),2021.1.4,119.91155323840198,
Conditions/Version_2Pr/zeroback(1)_v2.xlsx,Rule: Press 'space' when you see the letter 'x' or 'X'.,R,None,,,,,0,0,0,0,0,1,1,1,,,,,,,,,,,,,,,,,,,,,,,,,,,,,,,,,,,,,,,,,,,1.84,164.0564303000001,None,165.90401790000033,None,None,1,,165.90401790000033,None,167.90532310000026,None,,,,,,,,,,,,,,,,,,,,,,,,,,,,,,,P052,fencog,2,Pre,2022_Jun_11_1130,N-Back (New Version 2021),2021.1.4,119.91155323840198,
Conditions/Version_2Pr/zeroback(1)_v2.xlsx,Rule: Press 'space' when you see the letter 'x' or 'X'.,p,None,,,,,0,0,0,0,0,2,2,2,,,,,,,,,,,,,,,,,,,,,,,,,,,,,,,,,,,,,,,,,,,1.89,169.4048846999999,None,171.2965938000002,None,None,1,,171.2965938000002,None,173.29522910000014,None,,,,,,,,,,,,,,,,,,,,,,,,,,,,,,,P052,fencog,2,Pre,2022_Jun_11_1130,N-Back (New Version 2021),2021.1.4,119.91155323840198,
Conditions/Version_2Pr/zeroback(1)_v2.xlsx,Rule: Press 'space' when you see the letter 'x' or 'X'.,O,None,,,,,0,0,0,0,0,3,3,3,,,,,,,,,,,,,,,,,,,,,,,,,,,,,,,,,,,,,,,,,,,1.915,174.79497140000012,None,176.71722880000016,None,None,1,,176.71722880000016,None,178.7187796000003,None,,,,,,,,,,,,,,,,,,,,,,,,,,,,,,,P052,fencog,2,Pre,2022_Jun_11_1130,N-Back (New Version 2021),2021.1.4,119.91155323840198,
Conditions/Version_2Pr/zeroback(1)_v2.xlsx,Rule: Press 'space' when you see the letter 'x' or 'X'.,i,None,,,,,0,0,0,0,0,4,4,4,,,,,,,,,,,,,,,,,,,,,,,,,,,,,,,,,,,,,,,,,,,1.74,180.21836359999998,None,181.96030880000035,None,None,1,,181.96030880000035,None,183.96722799999998,None,,,,,,,,,,,,,,,,,,,,,,,,,,,,,,,P052,fencog,2,Pre,2022_Jun_11_1130,N-Back (New Version 2021),2021.1.4,119.91155323840198,
Conditions/Version_2Pr/zeroback(1)_v2.xlsx,Rule: Press 'space' when you see the letter 'x' or 'X'.,U,None,,,,,0,0,0,0,0,5,5,5,,,,,,,,,,,,,,,,,,,,,,,,,,,,,,,,,,,,,,,,,,,1.49,185.4668257000003,None,186.95922420000034,None,None,1,,186.95922420000034,None,188.96552410000004,None,,,,,,,,,,,,,,,,,,,,,,,,,,,,,,,P052,fencog,2,Pre,2022_Jun_11_1130,N-Back (New Version 2021),2021.1.4,119.91155323840198,
Conditions/Version_2Pr/zeroback(1)_v2.xlsx,Rule: Press 'space' when you see the letter 'x' or 'X'.,N,None,,,,,0,0,0,0,0,6,6,6,,,,,,,,,,,,,,,,,,,,,,,,,,,,,,,,,,,,,,,,,,,1.965,190.46524690000024,None,192.4311419999999,None,None,1,,192.4311419999999,None,194.44038619999992,None,,,,,,,,,,,,,,,,,,,,,,,,,,,,,,,P052,fencog,2,Pre,2022_Jun_11_1130,N-Back (New Version 2021),2021.1.4,119.91155323840198,
Conditions/Version_2Pr/zeroback(1)_v2.xlsx,Rule: Press 'space' when you see the letter 'x' or 'X'.,m,None,,,,,0,0,0,0,0,7,7,7,,,,,,,,,,,,,,,,,,,,,,,,,,,,,,,,,,,,,,,,,,,1.065,195.9388024,None,197.0075968000001,None,None,1,,197.0075968000001,None,199.0128193999999,None,,,,,,,,,,,,,,,,,,,,,,,,,,,,,,,P052,fencog,2,Pre,2022_Jun_11_1130,N-Back (New Version 2021),2021.1.4,119.91155323840198,
Conditions/Version_2Pr/zeroback(1)_v2.xlsx,Rule: Press 'space' when you see the letter 'x' or 'X'.,x,space,,,,,0,0,0,0,0,8,8,8,,,,,,,,,,,,,,,,,,,,,,,,,,,,,,,,,,,,,,,,,,,1.34,200.51236700000027,None,201.85346190000018,None,space,1,0.9707389000000148,201.85346190000018,None,202.8379941000003,None,,,,,,,,,,,,,,,,,,,,,,,,,,,,,,,P052,fencog,2,Pre,2022_Jun_11_1130,N-Back (New Version 2021),2021.1.4,119.91155323840198,
Conditions/Version_2Pr/zeroback(1)_v2.xlsx,Rule: Press 'space' when you see the letter 'x' or 'X'.,X,space,,,,,0,0,0,0,0,9,9,9,,,,,,,,,,,,,,,,,,,,,,,,,,,,,,,,,,,,,,,,,,,1.465,204.34633090000034,None,205.81253180000022,None,space,1,0.5876268000001801,205.81253180000022,None,206.41135870000016,None,,,,,,,,,,,,,,,,,,,,,,,,,,,,,,,P052,fencog,2,Pre,2022_Jun_11_1130,N-Back (New Version 2021),2021.1.4,119.91155323840198,
Conditions/Version_2Pr/zeroback(1)_v2.xlsx,Rule: Press 'space' when you see the letter 'x' or 'X'.,,,,,,,0,0,0,0,,,,,,,,,,,,,,,,,,,,,,,,,,,,,,,,,,,,,,,,,,,,,,,,,,,,,,,,,,,,,,,,,,,,,,,,,,,,,,,,,,,,,,,,,P052,fencog,2,Pre,2022_Jun_11_1130,N-Back (New Version 2021),2021.1.4,119.91155323840198,
Conditions/Version_2Pr/oneback(1)_v2.xlsx,New rule: Press 'space' when you see 1-back (i.e. the same letter as the one that appeared 1 letter ago.),r,None,,,,,0,1,1,1,0,0,0,0,,,,,,,,,,,,,,,,,,,,,,,,,,,,,,,,,207.9425286999999,None,210.92003730000033,None,space,2.9601377999997567,210.92003730000033,None,207.9425286999999,None,1.39,213.90631190000022,None,215.30048020000004,None,None,1,,215.30048020000004,None,217.3072391999999,None,,,,,,,,,,,,,,,,,,,,,,,,,,,,,,,P052,fencog,2,Pre,2022_Jun_11_1130,N-Back (New Version 2021),2021.1.4,119.91155323840198,
Conditions/Version_2Pr/oneback(1)_v2.xlsx,New rule: Press 'space' when you see 1-back (i.e. the same letter as the one that appeared 1 letter ago.),t,None,,,,,0,1,1,1,0,1,1,1,,,,,,,,,,,,,,,,,,,,,,,,,,,,,,,,,,,,,,,,,,,2.015,218.80695110000033,None,220.8244721000001,None,None,1,,220.8244721000001,None,222.82753900000034,None,,,,,,,,,,,,,,,,,,,,,,,,,,,,,,,P052,fencog,2,Pre,2022_Jun_11_1130,N-Back (New Version 2021),2021.1.4,119.91155323840198,
Conditions/Version_2Pr/oneback(1)_v2.xlsx,New rule: Press 'space' when you see 1-back (i.e. the same letter as the one that appeared 1 letter ago.),Y,None,,,,,0,1,1,1,0,2,2,2,,,,,,,,,,,,,,,,,,,,,,,,,,,,,,,,,,,,,,,,,,,1.04,224.33028550000017,None,225.37334580000015,None,None,1,,225.37334580000015,None,227.37941320000027,None,,,,,,,,,,,,,,,,,,,,,,,,,,,,,,,P052,fencog,2,Pre,2022_Jun_11_1130,N-Back (New Version 2021),2021.1.4,119.91155323840198,
Conditions/Version_2Pr/oneback(1)_v2.xlsx,New rule: Press 'space' when you see 1-back (i.e. the same letter as the one that appeared 1 letter ago.),y,space,,,,,0,1,1,1,0,3,3,3,,,,,,,,,,,,,,,,,,,,,,,,,,,,,,,,,,,,,,,,,,,1.715,228.87882020000006,None,230.59663580000006,None,space,1,0.2835826000000452,230.59663580000006,None,230.89650630000006,None,,,,,,,,,,,,,,,,,,,,,,,,,,,,,,,P052,fencog,2,Pre,2022_Jun_11_1130,N-Back (New Version 2021),2021.1.4,119.91155323840198,
Conditions/Version_2Pr/oneback(1)_v2.xlsx,New rule: Press 'space' when you see 1-back (i.e. the same letter as the one that appeared 1 letter ago.),p,None,,,,,0,1,1,1,0,4,4,4,,,,,,,,,,,,,,,,,,,,,,,,,,,,,,,,,,,,,,,,,,,1.315,232.40295620000006,None,233.72499610000023,None,None,1,,233.72499610000023,None,235.72697229999994,None,,,,,,,,,,,,,,,,,,,,,,,,,,,,,,,P052,fencog,2,Pre,2022_Jun_11_1130,N-Back (New Version 2021),2021.1.4,119.91155323840198,
Conditions/Version_2Pr/oneback(1)_v2.xlsx,New rule: Press 'space' when you see 1-back (i.e. the same letter as the one that appeared 1 letter ago.),P,space,,,,,0,1,1,1,0,5,5,5,,,,,,,,,,,,,,,,,,,,,,,,,,,,,,,,,,,,,,,,,,,1.115,237.22647570000026,None,238.34498280000025,None,space,1,0.2155932999999095,238.34498280000025,None,238.5690797000002,None,,,,,,,,,,,,,,,,,,,,,,,,,,,,,,,P052,fencog,2,Pre,2022_Jun_11_1130,N-Back (New Version 2021),2021.1.4,119.91155323840198,
Conditions/Version_2Pr/oneback(1)_v2.xlsx,New rule: Press 'space' when you see 1-back (i.e. the same letter as the one that appeared 1 letter ago.),e,None,,,,,0,1,1,1,0,6,6,6,,,,,,,,,,,,,,,,,,,,,,,,,,,,,,,,,,,,,,,,,,,1.69,240.0756749000002,None,241.76824260000012,None,None,1,,241.76824260000012,None,243.7745476,None,,,,,,,,,,,,,,,,,,,,,,,,,,,,,,,P052,fencog,2,Pre,2022_Jun_11_1130,N-Back (New Version 2021),2021.1.4,119.91155323840198,
Conditions/Version_2Pr/oneback(1)_v2.xlsx,New rule: Press 'space' when you see 1-back (i.e. the same letter as the one that appeared 1 letter ago.),r,None,,,,,0,1,1,1,0,7,7,7,,,,,,,,,,,,,,,,,,,,,,,,,,,,,,,,,,,,,,,,,,,1.215,245.2740217999999,None,246.49215000000004,None,None,1,,246.49215000000004,None,248.4981484,None,,,,,,,,,,,,,,,,,,,,,,,,,,,,,,,P052,fencog,2,Pre,2022_Jun_11_1130,N-Back (New Version 2021),2021.1.4,119.91155323840198,
Conditions/Version_2Pr/oneback(1)_v2.xlsx,New rule: Press 'space' when you see 1-back (i.e. the same letter as the one that appeared 1 letter ago.),R,space,,,,,0,1,1,1,0,8,8,8,,,,,,,,,,,,,,,,,,,,,,,,,,,,,,,,,,,,,,,,,,,1.815,249.9977071000003,None,251.8148497000002,None,space,1,0.3213468999997531,251.8148497000002,None,252.14847809999992,None,,,,,,,,,,,,,,,,,,,,,,,,,,,,,,,P052,fencog,2,Pre,2022_Jun_11_1130,N-Back (New Version 2021),2021.1.4,119.91155323840198,
Conditions/Version_2Pr/oneback(1)_v2.xlsx,New rule: Press 'space' when you see 1-back (i.e. the same letter as the one that appeared 1 letter ago.),p,None,,,,,0,1,1,1,0,9,9,9,,,,,,,,,,,,,,,,,,,,,,,,,,,,,,,,,,,,,,,,,,,1.34,253.65473520000023,None,254.99614569999994,None,None,1,,254.99614569999994,None,256.99556580000035,None,,,,,,,,,,,,,,,,,,,,,,,,,,,,,,,P052,fencog,2,Pre,2022_Jun_11_1130,N-Back (New Version 2021),2021.1.4,119.91155323840198,
Conditions/Version_2Pr/oneback(1)_v2.xlsx,New rule: Press 'space' when you see 1-back (i.e. the same letter as the one that appeared 1 letter ago.),,,,,,,0,1,1,1,,,,,,,,,,,,,,,,,,,,,,,,,,,,,,,,,,,,,,,,,,,,,,,,,,,,,,,,,,,,,,,,,,,,,,,,,,,,,,,,,,,,,,,,,P052,fencog,2,Pre,2022_Jun_11_1130,N-Back (New Version 2021),2021.1.4,119.91155323840198,
Conditions/Version_2Pr/twoback(1)_v2.xlsx,New rule: Press 'space' when you see 2-back (i.e. the same letter as the one that appeared 2 letters ago.),r,None,,,,,0,2,2,2,0,0,0,0,,,,,,,,,,,,,,,,,,,,,,,,,,,,,,,,,258.5205452,None,261.5048676000001,None,space,4.095373499999823,261.5048676000001,None,258.5205452,None,1.84,265.6298127,None,267.4794125000003,None,None,1,,267.4794125000003,None,269.4834184000001,None,,,,,,,,,,,,,,,,,,,,,,,,,,,,,,,P052,fencog,2,Pre,2022_Jun_11_1130,N-Back (New Version 2021),2021.1.4,119.91155323840198,
Conditions/Version_2Pr/twoback(1)_v2.xlsx,New rule: Press 'space' when you see 2-back (i.e. the same letter as the one that appeared 2 letters ago.),P,None,,,,,0,2,2,2,0,1,1,1,,,,,,,,,,,,,,,,,,,,,,,,,,,,,,,,,,,,,,,,,,,1.29,270.9832435000003,None,272.27620160000015,None,None,1,,272.27620160000015,None,274.2822030000002,None,,,,,,,,,,,,,,,,,,,,,,,,,,,,,,,P052,fencog,2,Pre,2022_Jun_11_1130,N-Back (New Version 2021),2021.1.4,119.91155323840198,
Conditions/Version_2Pr/twoback(1)_v2.xlsx,New rule: Press 'space' when you see 2-back (i.e. the same letter as the one that appeared 2 letters ago.),o,None,,,,,0,2,2,2,0,2,2,2,,,,,,,,,,,,,,,,,,,,,,,,,,,,,,,,,,,,,,,,,,,1.915,275.7816511000001,None,277.7000865,None,None,1,,277.7000865,None,279.70559870000034,None,,,,,,,,,,,,,,,,,,,,,,,,,,,,,,,P052,fencog,2,Pre,2022_Jun_11_1130,N-Back (New Version 2021),2021.1.4,119.91155323840198,
Conditions/Version_2Pr/twoback(1)_v2.xlsx,New rule: Press 'space' when you see 2-back (i.e. the same letter as the one that appeared 2 letters ago.),p,space,,,,,0,2,2,2,0,3,3,3,,,,,,,,,,,,,,,,,,,,,,,,,,,,,,,,,,,,,,,,,,,1.34,281.20480940000016,None,282.54662720000033,None,space,1,0.4056166000000303,282.54662720000033,None,282.9634452,None,,,,,,,,,,,,,,,,,,,,,,,,,,,,,,,P052,fencog,2,Pre,2022_Jun_11_1130,N-Back (New Version 2021),2021.1.4,119.91155323840198,
Conditions/Version_2Pr/twoback(1)_v2.xlsx,New rule: Press 'space' when you see 2-back (i.e. the same letter as the one that appeared 2 letters ago.),Y,None,,,,,0,2,2,2,0,4,4,4,,,,,,,,,,,,,,,,,,,,,,,,,,,,,,,,,,,,,,,,,,,1.665,284.46659210000007,None,286.1406545,None,None,1,,286.1406545,None,288.1447852000001,None,,,,,,,,,,,,,,,,,,,,,,,,,,,,,,,P052,fencog,2,Pre,2022_Jun_11_1130,N-Back (New Version 2021),2021.1.4,119.91155323840198,
Conditions/Version_2Pr/twoback(1)_v2.xlsx,New rule: Press 'space' when you see 2-back (i.e. the same letter as the one that appeared 2 letters ago.),q,None,,,,,0,2,2,2,0,5,5,5,,,,,,,,,,,,,,,,,,,,,,,,,,,,,,,,,,,,,,,,,,,1.565,289.6443263000001,None,291.2198507000003,None,None,1,,291.2198507000003,None,293.2182416999999,None,,,,,,,,,,,,,,,,,,,,,,,,,,,,,,,P052,fencog,2,Pre,2022_Jun_11_1130,N-Back (New Version 2021),2021.1.4,119.91155323840198,
Conditions/Version_2Pr/twoback(1)_v2.xlsx,New rule: Press 'space' when you see 2-back (i.e. the same letter as the one that appeared 2 letters ago.),m,None,,,,,0,2,2,2,0,6,6,6,,,,,,,,,,,,,,,,,,,,,,,,,,,,,,,,,,,,,,,,,,,1.965,294.7184806,None,296.68482280000035,None,None,1,,296.68482280000035,None,298.6916298000001,None,,,,,,,,,,,,,,,,,,,,,,,,,,,,,,,P052,fencog,2,Pre,2022_Jun_11_1130,N-Back (New Version 2021),2021.1.4,119.91155323840198,
Conditions/Version_2Pr/twoback(1)_v2.xlsx,New rule: Press 'space' when you see 2-back (i.e. the same letter as the one that appeared 2 letters ago.),Q,space,,,,,0,2,2,2,0,7,7,7,,,,,,,,,,,,,,,,,,,,,,,,,,,,,,,,,,,,,,,,,,,1.49,300.1912136000001,None,301.68505970000024,None,space,1,0.5792775999998412,301.68505970000024,None,302.2801652000003,None,,,,,,,,,,,,,,,,,,,,,,,,,,,,,,,P052,fencog,2,Pre,2022_Jun_11_1130,N-Back (New Version 2021),2021.1.4,119.91155323840198,
Conditions/Version_2Pr/twoback(1)_v2.xlsx,New rule: Press 'space' when you see 2-back (i.e. the same letter as the one that appeared 2 letters ago.),L,None,,,,,0,2,2,2,0,8,8,8,,,,,,,,,,,,,,,,,,,,,,,,,,,,,,,,,,,,,,,,,,,1.89,303.78292809999994,None,305.6758017000002,None,None,1,,305.6758017000002,None,307.6805053000003,None,,,,,,,,,,,,,,,,,,,,,,,,,,,,,,,P052,fencog,2,Pre,2022_Jun_11_1130,N-Back (New Version 2021),2021.1.4,119.91155323840198,
Conditions/Version_2Pr/twoback(1)_v2.xlsx,New rule: Press 'space' when you see 2-back (i.e. the same letter as the one that appeared 2 letters ago.),q,space,,,,,0,2,2,2,0,9,9,9,,,,,,,,,,,,,,,,,,,,,,,,,,,,,,,,,,,,,,,,,,,1.14,309.1802402000003,None,310.3233210000003,None,space,1,0.3727891000003183,310.3233210000003,None,310.7063398,None,,,,,,,,,,,,,,,,,,,,,,,,,,,,,,,P052,fencog,2,Pre,2022_Jun_11_1130,N-Back (New Version 2021),2021.1.4,119.91155323840198,
Conditions/Version_2Pr/twoback(1)_v2.xlsx,New rule: Press 'space' when you see 2-back (i.e. the same letter as the one that appeared 2 letters ago.),,,,,,,0,2,2,2,,,,,,,,,,,,,,,,,,,,,,,,,,,,,,,,,,,,,,,,,,,,,,,,,,,,,,,,,,,,,,,,,,,,,,,,,,,,,,,,,,,,,,,,,P052,fencog,2,Pre,2022_Jun_11_1130,N-Back (New Version 2021),2021.1.4,119.91155323840198,
Conditions/Version_2Pr/threeback(1)_v2.xlsx,New rule: Press 'space' when you see 3-back (i.e. the same letter as the one that appeared 3 letters ago.),u,None,,,,,0,3,3,3,0,0,0,0,,,,,,,,,,,,,,,,,,,,,,,,,,,,,,,,,312.2378299000002,None,315.2233147000002,None,space,8.576698300000317,315.2233147000002,None,312.2378299000002,None,1.34,323.8292018000002,None,325.1774326,None,None,1,,325.1774326,None,327.1829015000003,None,,,,,,,,,,,,,,,,,,,,,,,,,,,,,,,P052,fencog,2,Pre,2022_Jun_11_1130,N-Back (New Version 2021),2021.1.4,119.91155323840198,
Conditions/Version_2Pr/threeback(1)_v2.xlsx,New rule: Press 'space' when you see 3-back (i.e. the same letter as the one that appeared 3 letters ago.),U,None,,,,,0,3,3,3,0,1,1,1,,,,,,,,,,,,,,,,,,,,,,,,,,,,,,,,,,,,,,,,,,,1.865,328.68234840000014,None,330.5485128,None,None,1,,330.5485128,None,332.5479382000003,None,,,,,,,,,,,,,,,,,,,,,,,,,,,,,,,P052,fencog,2,Pre,2022_Jun_11_1130,N-Back (New Version 2021),2021.1.4,119.91155323840198,
Conditions/Version_2Pr/threeback(1)_v2.xlsx,New rule: Press 'space' when you see 3-back (i.e. the same letter as the one that appeared 3 letters ago.),p,None,,,,,0,3,3,3,0,2,2,2,,,,,,,,,,,,,,,,,,,,,,,,,,,,,,,,,,,,,,,,,,,1.115,334.04741390000027,None,335.1652331,None,None,1,,335.1652331,None,337.1719597000001,None,,,,,,,,,,,,,,,,,,,,,,,,,,,,,,,P052,fencog,2,Pre,2022_Jun_11_1130,N-Back (New Version 2021),2021.1.4,119.91155323840198,
Conditions/Version_2Pr/threeback(1)_v2.xlsx,New rule: Press 'space' when you see 3-back (i.e. the same letter as the one that appeared 3 letters ago.),U,space,,,,,0,3,3,3,0,3,3,3,,,,,,,,,,,,,,,,,,,,,,,,,,,,,,,,,,,,,,,,,,,1.64,338.6714681000003,None,340.32024850000016,None,space,1,0.3519768999999542,340.32024850000016,None,340.6941062000001,None,,,,,,,,,,,,,,,,,,,,,,,,,,,,,,,P052,fencog,2,Pre,2022_Jun_11_1130,N-Back (New Version 2021),2021.1.4,119.91155323840198,
Conditions/Version_2Pr/threeback(1)_v2.xlsx,New rule: Press 'space' when you see 3-back (i.e. the same letter as the one that appeared 3 letters ago.),e,None,,,,,0,3,3,3,0,4,4,4,,,,,,,,,,,,,,,,,,,,,,,,,,,,,,,,,,,,,,,,,,,1.44,342.1955151000002,None,343.6375446000002,None,None,1,,343.6375446000002,None,345.64449360000026,None,,,,,,,,,,,,,,,,,,,,,,,,,,,,,,,P052,fencog,2,Pre,2022_Jun_11_1130,N-Back (New Version 2021),2021.1.4,119.91155323840198,
Conditions/Version_2Pr/threeback(1)_v2.xlsx,New rule: Press 'space' when you see 3-back (i.e. the same letter as the one that appeared 3 letters ago.),R,None,,,,,0,3,3,3,0,5,5,5,,,,,,,,,,,,,,,,,,,,,,,,,,,,,,,,,,,,,,,,,,,1.465,347.1440444,None,348.61012900000014,None,None,1,,348.61012900000014,None,350.61615930000016,None,,,,,,,,,,,,,,,,,,,,,,,,,,,,,,,P052,fencog,2,Pre,2022_Jun_11_1130,N-Back (New Version 2021),2021.1.4,119.91155323840198,
Conditions/Version_2Pr/threeback(1)_v2.xlsx,New rule: Press 'space' when you see 3-back (i.e. the same letter as the one that appeared 3 letters ago.),p,None,,,,,0,3,3,3,0,6,6,6,,,,,,,,,,,,,,,,,,,,,,,,,,,,,,,,,,,,,,,,,,,1.24,352.1176347999999,None,353.36047970000027,None,space,0,0.34360179999976026,353.36047970000027,None,353.72099400000025,None,,,,,,,,,,,,,,,,,,,,,,,,,,,,,,,P052,fencog,2,Pre,2022_Jun_11_1130,N-Back (New Version 2021),2021.1.4,119.91155323840198,
Conditions/Version_2Pr/threeback(1)_v2.xlsx,New rule: Press 'space' when you see 3-back (i.e. the same letter as the one that appeared 3 letters ago.),E,space,,,,,0,3,3,3,0,7,7,7,,,,,,,,,,,,,,,,,,,,,,,,,,,,,,,,,,,,,,,,,,,1.815,355.2249504000001,None,357.04376660000025,None,None,0,,357.04376660000025,None,359.0531831000003,None,,,,,,,,,,,,,,,,,,,,,,,,,,,,,,,P052,fencog,2,Pre,2022_Jun_11_1130,N-Back (New Version 2021),2021.1.4,119.91155323840198,
Conditions/Version_2Pr/threeback(1)_v2.xlsx,New rule: Press 'space' when you see 3-back (i.e. the same letter as the one that appeared 3 letters ago.),k,None,,,,,0,3,3,3,0,8,8,8,,,,,,,,,,,,,,,,,,,,,,,,,,,,,,,,,,,,,,,,,,,1.79,360.54796050000004,None,362.3498362,None,None,1,,362.3498362,None,364.3526885000001,None,,,,,,,,,,,,,,,,,,,,,,,,,,,,,,,P052,fencog,2,Pre,2022_Jun_11_1130,N-Back (New Version 2021),2021.1.4,119.91155323840198,
Conditions/Version_2Pr/threeback(1)_v2.xlsx,New rule: Press 'space' when you see 3-back (i.e. the same letter as the one that appeared 3 letters ago.),m,None,,,,,0,3,3,3,0,9,9,9,,,,,,,,,,,,,,,,,,,,,,,,,,,,,,,,,,,,,,,,,,,1.04,365.84682520000024,None,366.8917523,None,None,1,,366.8917523,None,368.8961015,None,,,,,,,,,,,,,,,,,,,,,,,,,,,,,,,P052,fencog,2,Pre,2022_Jun_11_1130,N-Back (New Version 2021),2021.1.4,119.91155323840198,
Conditions/Version_2Pr/threeback(1)_v2.xlsx,New rule: Press 'space' when you see 3-back (i.e. the same letter as the one that appeared 3 letters ago.),,,,,,,0,3,3,3,,,,,,,,,,,,,,,,,,,,,,,,,,,,,,,,,,,,,,,,,,,,,,,,,,,,,,,,,,,,,,,,,,,,,,,,,,,,,,,,,,,,,,,,,P052,fencog,2,Pre,2022_Jun_11_1130,N-Back (New Version 2021),2021.1.4,119.91155323840198,
,,,,,,,,,,,,,,,,,,,,,,,,,,,,,,,,,,,,,,,,,,,,,,,,,,,,,,,,,,,,,,,,,,,,,,370.41149399999995,None,space,5.271983199999795,370.90400960000034,None,,,,,,,,,,,,,,,,,,,,,,,,,P052,fencog,2,Pre,2022_Jun_11_1130,N-Back (New Version 2021),2021.1.4,119.91155323840198,
,,,,,,,,,,,,,,,,,,,,,,,,,,,,,,,,,,,,,,,,,,,,,,,,,,,,,,,,,,,,,,,,,,,,,,,,,,,,376.2066993000003,None,space,2.873598099999981,376.7024359000002,None,,,,,,,,,,,,,,,,,,,P052,fencog,2,Pre,2022_Jun_11_1130,N-Back (New Version 2021),2021.1.4,119.91155323840198,
,,,,Conditions/Version_1/zeroback(1)_v1.xlsx,Rule: Press 'space' when you see the letter 'x' or 'X'.,b,None,,,,,,,,,0,0,0,0,0,0,0,0,,,,,,,,,,,,,,,,,,,,,,,,,,,,,,,,,,,,,,,,,,,,,,,,,,,,,,,,,,,379.6952968999999,None,382.68628830000034,None,space,2.3216848000001846,382.68628830000034,None,379.6952968999999,None,1.9524,386.9902390000002,None,None,1,386.9902390000002,None,,P052,fencog,2,Pre,2022_Jun_11_1130,N-Back (New Version 2021),2021.1.4,119.91155323840198,
,,,,Conditions/Version_1/zeroback(1)_v1.xlsx,Rule: Press 'space' when you see the letter 'x' or 'X'.,T,None,,,,,,,,,0,0,0,0,0,1,1,1,,,,,,,,,,,,,,,,,,,,,,,,,,,,,,,,,,,,,,,,,,,,,,,,,,,,,,,,,,,,,,,,,,,,,1.3262,390.32243900000003,None,None,1,390.32243900000003,None,,P052,fencog,2,Pre,2022_Jun_11_1130,N-Back (New Version 2021),2021.1.4,119.91155323840198,
,,,,Conditions/Version_1/zeroback(1)_v1.xlsx,Rule: Press 'space' when you see the letter 'x' or 'X'.,L,None,,,,,,,,,0,0,0,0,0,2,2,2,,,,,,,,,,,,,,,,,,,,,,,,,,,,,,,,,,,,,,,,,,,,,,,,,,,,,,,,,,,,,,,,,,,,,1.1402,393.46326990000034,None,None,1,393.46326990000034,None,,P052,fencog,2,Pre,2022_Jun_11_1130,N-Back (New Version 2021),2021.1.4,119.91155323840198,
,,,,Conditions/Version_1/zeroback(1)_v1.xlsx,Rule: Press 'space' when you see the letter 'x' or 'X'.,x,space,,,,,,,,,0,0,0,0,0,3,3,3,,,,,,,,,,,,,,,,,,,,,,,,,,,,,,,,,,,,,,,,,,,,,,,,,,,,,,,,,,,,,,,,,,,,,1.4812,396.9456215,None,space,1,396.9456215,None,0.3262478000001465,P052,fencog,2,Pre,2022_Jun_11_1130,N-Back (New Version 2021),2021.1.4,119.91155323840198,
,,,,Conditions/Version_1/zeroback(1)_v1.xlsx,Rule: Press 'space' when you see the letter 'x' or 'X'.,o,None,,,,,,,,,0,0,0,0,0,4,4,4,,,,,,,,,,,,,,,,,,,,,,,,,,,,,,,,,,,,,,,,,,,,,,,,,,,,,,,,,,,,,,,,,,,,,1.8408,400.78609570000026,None,None,1,400.78609570000026,None,,P052,fencog,2,Pre,2022_Jun_11_1130,N-Back (New Version 2021),2021.1.4,119.91155323840198,
,,,,Conditions/Version_1/zeroback(1)_v1.xlsx,Rule: Press 'space' when you see the letter 'x' or 'X'.,P,None,,,,,,,,,0,0,0,0,0,5,5,5,,,,,,,,,,,,,,,,,,,,,,,,,,,,,,,,,,,,,,,,,,,,,,,,,,,,,,,,,,,,,,,,,,,,,1.5804,404.36839850000024,None,None,1,404.36839850000024,None,,P052,fencog,2,Pre,2022_Jun_11_1130,N-Back (New Version 2021),2021.1.4,119.91155323840198,
,,,,Conditions/Version_1/zeroback(1)_v1.xlsx,Rule: Press 'space' when you see the letter 'x' or 'X'.,X,space,,,,,,,,,0,0,0,0,0,6,6,6,,,,,,,,,,,,,,,,,,,,,,,,,,,,,,,,,,,,,,,,,,,,,,,,,,,,,,,,,,,,,,,,,,,,,1.7974,408.1672830000002,None,space,1,408.1672830000002,None,0.35246079999978974,P052,fencog,2,Pre,2022_Jun_11_1130,N-Back (New Version 2021),2021.1.4,119.91155323840198,
,,,,Conditions/Version_1/zeroback(1)_v1.xlsx,Rule: Press 'space' when you see the letter 'x' or 'X'.,n,None,,,,,,,,,0,0,0,0,0,7,7,7,,,,,,,,,,,,,,,,,,,,,,,,,,,,,,,,,,,,,,,,,,,,,,,,,,,,,,,,,,,,,,,,,,,,,1.8904,412.05877839999994,None,None,1,412.05877839999994,None,,P052,fencog,2,Pre,2022_Jun_11_1130,N-Back (New Version 2021),2021.1.4,119.91155323840198,
,,,,Conditions/Version_1/zeroback(1)_v1.xlsx,Rule: Press 'space' when you see the letter 'x' or 'X'.,M,None,,,,,,,,,0,0,0,0,0,8,8,8,,,,,,,,,,,,,,,,,,,,,,,,,,,,,,,,,,,,,,,,,,,,,,,,,,,,,,,,,,,,,,,,,,,,,1.9338,415.99912670000003,None,None,1,415.99912670000003,None,,P052,fencog,2,Pre,2022_Jun_11_1130,N-Back (New Version 2021),2021.1.4,119.91155323840198,
,,,,Conditions/Version_1/zeroback(1)_v1.xlsx,Rule: Press 'space' when you see the letter 'x' or 'X'.,a,None,,,,,,,,,0,0,0,0,0,9,9,9,,,,,,,,,,,,,,,,,,,,,,,,,,,,,,,,,,,,,,,,,,,,,,,,,,,,,,,,,,,,,,,,,,,,,1.444,419.4561811000003,None,None,1,419.4561811000003,None,,P052,fencog,2,Pre,2022_Jun_11_1130,N-Back (New Version 2021),2021.1.4,119.91155323840198,
,,,,Conditions/Version_1/zeroback(1)_v1.xlsx,Rule: Press 'space' when you see the letter 'x' or 'X'.,,,,,,,,,,,0,0,0,0,,,,,,,,,,,,,,,,,,,,,,,,,,,,,,,,,,,,,,,,,,,,,,,,,,,,,,,,,,,,,,,,,,,,,,,,,,,,,,,,,P052,fencog,2,Pre,2022_Jun_11_1130,N-Back (New Version 2021),2021.1.4,119.91155323840198,
,,,,Conditions/Version_1/oneback(1)_v1.xlsx,New rule: Press 'space' when you see 1-back (i.e. the same letter as the one that appeared 1 letter ago.),b,None,,,,,,,,,0,1,1,1,0,0,0,0,,,,,,,,,,,,,,,,,,,,,,,,,,,,,,,,,,,,,,,,,,,,,,,,,,,,,,,,,,,421.48149060000014,None,424.46362309999995,None,space,4.448213699999997,424.46362309999995,None,421.48149060000014,None,1.2208,430.1607113,None,None,1,430.1607113,None,,P052,fencog,2,Pre,2022_Jun_11_1130,N-Back (New Version 2021),2021.1.4,119.91155323840198,
,,,,Conditions/Version_1/oneback(1)_v1.xlsx,New rule: Press 'space' when you see 1-back (i.e. the same letter as the one that appeared 1 letter ago.),p,None,,,,,,,,,0,1,1,1,0,1,1,1,,,,,,,,,,,,,,,,,,,,,,,,,,,,,,,,,,,,,,,,,,,,,,,,,,,,,,,,,,,,,,,,,,,,,1.7726,433.93461240000033,None,None,1,433.93461240000033,None,,P052,fencog,2,Pre,2022_Jun_11_1130,N-Back (New Version 2021),2021.1.4,119.91155323840198,
,,,,Conditions/Version_1/oneback(1)_v1.xlsx,New rule: Press 'space' when you see 1-back (i.e. the same letter as the one that appeared 1 letter ago.),M,None,,,,,,,,,0,1,1,1,0,2,2,2,,,,,,,,,,,,,,,,,,,,,,,,,,,,,,,,,,,,,,,,,,,,,,,,,,,,,,,,,,,,,,,,,,,,,1.0844,437.02557290000004,None,None,1,437.02557290000004,None,,P052,fencog,2,Pre,2022_Jun_11_1130,N-Back (New Version 2021),2021.1.4,119.91155323840198,
,,,,Conditions/Version_1/oneback(1)_v1.xlsx,New rule: Press 'space' when you see 1-back (i.e. the same letter as the one that appeared 1 letter ago.),M,space,,,,,,,,,0,1,1,1,0,3,3,3,,,,,,,,,,,,,,,,,,,,,,,,,,,,,,,,,,,,,,,,,,,,,,,,,,,,,,,,,,,,,,,,,,,,,1.2084,440.2327908000002,None,space,1,440.2327908000002,None,0.5190462999998999,P052,fencog,2,Pre,2022_Jun_11_1130,N-Back (New Version 2021),2021.1.4,119.91155323840198,
,,,,Conditions/Version_1/oneback(1)_v1.xlsx,New rule: Press 'space' when you see 1-back (i.e. the same letter as the one that appeared 1 letter ago.),n,None,,,,,,,,,0,1,1,1,0,4,4,4,,,,,,,,,,,,,,,,,,,,,,,,,,,,,,,,,,,,,,,,,,,,,,,,,,,,,,,,,,,,,,,,,,,,,1.94,444.1732986000002,None,None,1,444.1732986000002,None,,P052,fencog,2,Pre,2022_Jun_11_1130,N-Back (New Version 2021),2021.1.4,119.91155323840198,
,,,,Conditions/Version_1/oneback(1)_v1.xlsx,New rule: Press 'space' when you see 1-back (i.e. the same letter as the one that appeared 1 letter ago.),g,None,,,,,,,,,0,1,1,1,0,5,5,5,,,,,,,,,,,,,,,,,,,,,,,,,,,,,,,,,,,,,,,,,,,,,,,,,,,,,,,,,,,,,,,,,,,,,1.9462,448.12247270000034,None,None,1,448.12247270000034,None,,P052,fencog,2,Pre,2022_Jun_11_1130,N-Back (New Version 2021),2021.1.4,119.91155323840198,
,,,,Conditions/Version_1/oneback(1)_v1.xlsx,New rule: Press 'space' when you see 1-back (i.e. the same letter as the one that appeared 1 letter ago.),P,None,,,,,,,,,0,1,1,1,0,6,6,6,,,,,,,,,,,,,,,,,,,,,,,,,,,,,,,,,,,,,,,,,,,,,,,,,,,,,,,,,,,,,,,,,,,,,1.7974,451.9210653,None,None,1,451.9210653,None,,P052,fencog,2,Pre,2022_Jun_11_1130,N-Back (New Version 2021),2021.1.4,119.91155323840198,
,,,,Conditions/Version_1/oneback(1)_v1.xlsx,New rule: Press 'space' when you see 1-back (i.e. the same letter as the one that appeared 1 letter ago.),o,None,,,,,,,,,0,1,1,1,0,7,7,7,,,,,,,,,,,,,,,,,,,,,,,,,,,,,,,,,,,,,,,,,,,,,,,,,,,,,,,,,,,,,,,,,,,,,1.6982,455.61991579999994,None,None,1,455.61991579999994,None,,P052,fencog,2,Pre,2022_Jun_11_1130,N-Back (New Version 2021),2021.1.4,119.91155323840198,
,,,,Conditions/Version_1/oneback(1)_v1.xlsx,New rule: Press 'space' when you see 1-back (i.e. the same letter as the one that appeared 1 letter ago.),f,None,,,,,,,,,0,1,1,1,0,8,8,8,,,,,,,,,,,,,,,,,,,,,,,,,,,,,,,,,,,,,,,,,,,,,,,,,,,,,,,,,,,,,,,,,,,,,1.661,459.2858362000002,None,None,1,459.2858362000002,None,,P052,fencog,2,Pre,2022_Jun_11_1130,N-Back (New Version 2021),2021.1.4,119.91155323840198,
,,,,Conditions/Version_1/oneback(1)_v1.xlsx,New rule: Press 'space' when you see 1-back (i.e. the same letter as the one that appeared 1 letter ago.),F,space,,,,,,,,,0,1,1,1,0,9,9,9,,,,,,,,,,,,,,,,,,,,,,,,,,,,,,,,,,,,,,,,,,,,,,,,,,,,,,,,,,,,,,,,,,,,,1.0472,462.33553359999996,None,space,1,462.33553359999996,None,0.49625590000005104,P052,fencog,2,Pre,2022_Jun_11_1130,N-Back (New Version 2021),2021.1.4,119.91155323840198,
,,,,Conditions/Version_1/oneback(1)_v1.xlsx,New rule: Press 'space' when you see 1-back (i.e. the same letter as the one that appeared 1 letter ago.),,,,,,,,,,,0,1,1,1,,,,,,,,,,,,,,,,,,,,,,,,,,,,,,,,,,,,,,,,,,,,,,,,,,,,,,,,,,,,,,,,,,,,,,,,,,,,,,,,,P052,fencog,2,Pre,2022_Jun_11_1130,N-Back (New Version 2021),2021.1.4,119.91155323840198,
,,,,Conditions/Version_1/twoback(1)_v1.xlsx,New rule: Press 'space' when you see 2-back (i.e. the same letter as the one that appeared 2 letters ago.),b,None,,,,,,,,,0,2,2,2,0,0,0,0,,,,,,,,,,,,,,,,,,,,,,,,,,,,,,,,,,,,,,,,,,,,,,,,,,,,,,,,,,,464.36022460000004,None,467.3430598,None,space,4.448700299999928,467.3430598,None,464.36022460000004,None,1.165,472.98162520000005,None,None,1,472.98162520000005,None,,P052,fencog,2,Pre,2022_Jun_11_1130,N-Back (New Version 2021),2021.1.4,119.91155323840198,
,,,,Conditions/Version_1/twoback(1)_v1.xlsx,New rule: Press 'space' when you see 2-back (i.e. the same letter as the one that appeared 2 letters ago.),h,None,,,,,,,,,0,2,2,2,0,1,1,1,,,,,,,,,,,,,,,,,,,,,,,,,,,,,,,,,,,,,,,,,,,,,,,,,,,,,,,,,,,,,,,,,,,,,1.816,476.7972503000001,None,None,1,476.7972503000001,None,,P052,fencog,2,Pre,2022_Jun_11_1130,N-Back (New Version 2021),2021.1.4,119.91155323840198,
,,,,Conditions/Version_1/twoback(1)_v1.xlsx,New rule: Press 'space' when you see 2-back (i.e. the same letter as the one that appeared 2 letters ago.),j,None,,,,,,,,,0,2,2,2,0,2,2,2,,,,,,,,,,,,,,,,,,,,,,,,,,,,,,,,,,,,,,,,,,,,,,,,,,,,,,,,,,,,,,,,,,,,,1.6114,480.41314090000014,None,None,1,480.41314090000014,None,,P052,fencog,2,Pre,2022_Jun_11_1130,N-Back (New Version 2021),2021.1.4,119.91155323840198,
,,,,Conditions/Version_1/twoback(1)_v1.xlsx,New rule: Press 'space' when you see 2-back (i.e. the same letter as the one that appeared 2 letters ago.),H,space,,,,,,,,,0,2,2,2,0,3,3,3,,,,,,,,,,,,,,,,,,,,,,,,,,,,,,,,,,,,,,,,,,,,,,,,,,,,,,,,,,,,,,,,,,,,,1.9152,484.3366866000001,None,space,1,484.3366866000001,None,0.6070214000001215,P052,fencog,2,Pre,2022_Jun_11_1130,N-Back (New Version 2021),2021.1.4,119.91155323840198,
,,,,Conditions/Version_1/twoback(1)_v1.xlsx,New rule: Press 'space' when you see 2-back (i.e. the same letter as the one that appeared 2 letters ago.),p,None,,,,,,,,,0,2,2,2,0,4,4,4,,,,,,,,,,,,,,,,,,,,,,,,,,,,,,,,,,,,,,,,,,,,,,,,,,,,,,,,,,,,,,,,,,,,,1.599,487.9354784000002,None,None,1,487.9354784000002,None,,P052,fencog,2,Pre,2022_Jun_11_1130,N-Back (New Version 2021),2021.1.4,119.91155323840198,
,,,,Conditions/Version_1/twoback(1)_v1.xlsx,New rule: Press 'space' when you see 2-back (i.e. the same letter as the one that appeared 2 letters ago.),p,None,,,,,,,,,0,2,2,2,0,5,5,5,,,,,,,,,,,,,,,,,,,,,,,,,,,,,,,,,,,,,,,,,,,,,,,,,,,,,,,,,,,,,,,,,,,,,1.8656,491.80103740000004,None,None,1,491.80103740000004,None,,P052,fencog,2,Pre,2022_Jun_11_1130,N-Back (New Version 2021),2021.1.4,119.91155323840198,
,,,,Conditions/Version_1/twoback(1)_v1.xlsx,New rule: Press 'space' when you see 2-back (i.e. the same letter as the one that appeared 2 letters ago.),w,None,,,,,,,,,0,2,2,2,0,6,6,6,,,,,,,,,,,,,,,,,,,,,,,,,,,,,,,,,,,,,,,,,,,,,,,,,,,,,,,,,,,,,,,,,,,,,1.4502,495.2517097,None,None,1,495.2517097,None,,P052,fencog,2,Pre,2022_Jun_11_1130,N-Back (New Version 2021),2021.1.4,119.91155323840198,
,,,,Conditions/Version_1/twoback(1)_v1.xlsx,New rule: Press 'space' when you see 2-back (i.e. the same letter as the one that appeared 2 letters ago.),R,None,,,,,,,,,0,2,2,2,0,7,7,7,,,,,,,,,,,,,,,,,,,,,,,,,,,,,,,,,,,,,,,,,,,,,,,,,,,,,,,,,,,,,,,,,,,,,1.1774,498.4417717000001,None,None,1,498.4417717000001,None,,P052,fencog,2,Pre,2022_Jun_11_1130,N-Back (New Version 2021),2021.1.4,119.91155323840198,
,,,,Conditions/Version_1/twoback(1)_v1.xlsx,New rule: Press 'space' when you see 2-back (i.e. the same letter as the one that appeared 2 letters ago.),a,None,,,,,,,,,0,2,2,2,0,8,8,8,,,,,,,,,,,,,,,,,,,,,,,,,,,,,,,,,,,,,,,,,,,,,,,,,,,,,,,,,,,,,,,,,,,,,1.3324,501.7826305999997,None,None,1,501.7826305999997,None,,P052,fencog,2,Pre,2022_Jun_11_1130,N-Back (New Version 2021),2021.1.4,119.91155323840198,
,,,,Conditions/Version_1/twoback(1)_v1.xlsx,New rule: Press 'space' when you see 2-back (i.e. the same letter as the one that appeared 2 letters ago.),r,space,,,,,,,,,0,2,2,2,0,9,9,9,,,,,,,,,,,,,,,,,,,,,,,,,,,,,,,,,,,,,,,,,,,,,,,,,,,,,,,,,,,,,,,,,,,,,1.6362,505.4303122000001,None,space,1,505.4303122000001,None,0.5538986999999906,P052,fencog,2,Pre,2022_Jun_11_1130,N-Back (New Version 2021),2021.1.4,119.91155323840198,
,,,,Conditions/Version_1/twoback(1)_v1.xlsx,New rule: Press 'space' when you see 2-back (i.e. the same letter as the one that appeared 2 letters ago.),,,,,,,,,,,0,2,2,2,,,,,,,,,,,,,,,,,,,,,,,,,,,,,,,,,,,,,,,,,,,,,,,,,,,,,,,,,,,,,,,,,,,,,,,,,,,,,,,,,P052,fencog,2,Pre,2022_Jun_11_1130,N-Back (New Version 2021),2021.1.4,119.91155323840198,
,,,,Conditions/Version_1/threeback(1)_v1.xlsx,New rule: Press 'space' when you see 3-back (i.e. the same letter as the one that appeared 3 letters ago.),r,None,,,,,,,,,0,3,3,3,0,0,0,0,,,,,,,,,,,,,,,,,,,,,,,,,,,,,,,,,,,,,,,,,,,,,,,,,,,,,,,,,,,507.44984620000014,None,510.44166270000005,None,space,16.070066999999653,510.44166270000005,None,507.44984620000014,None,1.0596,527.6076131999998,None,None,1,527.6076131999998,None,,P052,fencog,2,Pre,2022_Jun_11_1130,N-Back (New Version 2021),2021.1.4,119.91155323840198,
,,,,Conditions/Version_1/threeback(1)_v1.xlsx,New rule: Press 'space' when you see 3-back (i.e. the same letter as the one that appeared 3 letters ago.),o,None,,,,,,,,,0,3,3,3,0,1,1,1,,,,,,,,,,,,,,,,,,,,,,,,,,,,,,,,,,,,,,,,,,,,,,,,,,,,,,,,,,,,,,,,,,,,,1.0534,530.6671649,None,None,1,530.6671649,None,,P052,fencog,2,Pre,2022_Jun_11_1130,N-Back (New Version 2021),2021.1.4,119.91155323840198,
,,,,Conditions/Version_1/threeback(1)_v1.xlsx,New rule: Press 'space' when you see 3-back (i.e. the same letter as the one that appeared 3 letters ago.),P,None,,,,,,,,,0,3,3,3,0,2,2,2,,,,,,,,,,,,,,,,,,,,,,,,,,,,,,,,,,,,,,,,,,,,,,,,,,,,,,,,,,,,,,,,,,,,,1.6424,534.3226608000004,None,None,1,534.3226608000004,None,,P052,fencog,2,Pre,2022_Jun_11_1130,N-Back (New Version 2021),2021.1.4,119.91155323840198,
,,,,Conditions/Version_1/threeback(1)_v1.xlsx,New rule: Press 'space' when you see 3-back (i.e. the same letter as the one that appeared 3 letters ago.),R,space,,,,,,,,,0,3,3,3,0,3,3,3,,,,,,,,,,,,,,,,,,,,,,,,,,,,,,,,,,,,,,,,,,,,,,,,,,,,,,,,,,,,,,,,,,,,,1.6734,538.0044454999997,None,space,1,538.0044454999997,None,0.7953809999999066,P052,fencog,2,Pre,2022_Jun_11_1130,N-Back (New Version 2021),2021.1.4,119.91155323840198,
,,,,Conditions/Version_1/threeback(1)_v1.xlsx,New rule: Press 'space' when you see 3-back (i.e. the same letter as the one that appeared 3 letters ago.),p,None,,,,,,,,,0,3,3,3,0,4,4,4,,,,,,,,,,,,,,,,,,,,,,,,,,,,,,,,,,,,,,,,,,,,,,,,,,,,,,,,,,,,,,,,,,,,,1.9462,541.9613262000003,None,None,1,541.9613262000003,None,,P052,fencog,2,Pre,2022_Jun_11_1130,N-Back (New Version 2021),2021.1.4,119.91155323840198,
,,,,Conditions/Version_1/threeback(1)_v1.xlsx,New rule: Press 'space' when you see 3-back (i.e. the same letter as the one that appeared 3 letters ago.),E,None,,,,,,,,,0,3,3,3,0,5,5,5,,,,,,,,,,,,,,,,,,,,,,,,,,,,,,,,,,,,,,,,,,,,,,,,,,,,,,,,,,,,,,,,,,,,,1.847,545.8100290000002,None,None,1,545.8100290000002,None,,P052,fencog,2,Pre,2022_Jun_11_1130,N-Back (New Version 2021),2021.1.4,119.91155323840198,
,,,,Conditions/Version_1/threeback(1)_v1.xlsx,New rule: Press 'space' when you see 3-back (i.e. the same letter as the one that appeared 3 letters ago.),e,None,,,,,,,,,0,3,3,3,0,6,6,6,,,,,,,,,,,,,,,,,,,,,,,,,,,,,,,,,,,,,,,,,,,,,,,,,,,,,,,,,,,,,,,,,,,,,1.754,549.5673150000002,None,None,1,549.5673150000002,None,,P052,fencog,2,Pre,2022_Jun_11_1130,N-Back (New Version 2021),2021.1.4,119.91155323840198,
,,,,Conditions/Version_1/threeback(1)_v1.xlsx,New rule: Press 'space' when you see 3-back (i.e. the same letter as the one that appeared 3 letters ago.),m,None,,,,,,,,,0,3,3,3,0,7,7,7,,,,,,,,,,,,,,,,,,,,,,,,,,,,,,,,,,,,,,,,,,,,,,,,,,,,,,,,,,,,,,,,,,,,,1.2332,552.8033587999998,None,None,1,552.8033587999998,None,,P052,fencog,2,Pre,2022_Jun_11_1130,N-Back (New Version 2021),2021.1.4,119.91155323840198,
,,,,Conditions/Version_1/threeback(1)_v1.xlsx,New rule: Press 'space' when you see 3-back (i.e. the same letter as the one that appeared 3 letters ago.),n,None,,,,,,,,,0,3,3,3,0,8,8,8,,,,,,,,,,,,,,,,,,,,,,,,,,,,,,,,,,,,,,,,,,,,,,,,,,,,,,,,,,,,,,,,,,,,,1.2518,556.0664157000001,None,None,1,556.0664157000001,None,,P052,fencog,2,Pre,2022_Jun_11_1130,N-Back (New Version 2021),2021.1.4,119.91155323840198,
,,,,Conditions/Version_1/threeback(1)_v1.xlsx,New rule: Press 'space' when you see 3-back (i.e. the same letter as the one that appeared 3 letters ago.),e,space,,,,,,,,,0,3,3,3,0,9,9,9,,,,,,,,,,,,,,,,,,,,,,,,,,,,,,,,,,,,,,,,,,,,,,,,,,,,,,,,,,,,,,,,,,,,,1.1774,559.2574326000004,None,space,1,559.2574326000004,None,0.6942764999994324,P052,fencog,2,Pre,2022_Jun_11_1130,N-Back (New Version 2021),2021.1.4,119.91155323840198,
,,,,Conditions/Version_1/threeback(1)_v1.xlsx,New rule: Press 'space' when you see 3-back (i.e. the same letter as the one that appeared 3 letters ago.),,,,,,,,,,,0,3,3,3,,,,,,,,,,,,,,,,,,,,,,,,,,,,,,,,,,,,,,,,,,,,,,,,,,,,,,,,,,,,,,,,,,,,,,,,,,,,,,,,,P052,fencog,2,Pre,2022_Jun_11_1130,N-Back (New Version 2021),2021.1.4,119.91155323840198,
,,,,Conditions/Version_1/oneback(2)_v1.xlsx,New rule: Press 'space' when you see 1-back (i.e. the same letter as the one that appeared 1 letter ago.),q,None,,,,,,,,,0,4,4,4,0,0,0,0,,,,,,,,,,,,,,,,,,,,,,,,,,,,,,,,,,,,,,,,,,,,,,,,,,,,,,,,,,,561.2847090000005,None,564.2735843999999,None,space,28.95015650000005,564.2735843999999,None,561.2847090000005,None,1.7106,594.9631436999998,None,None,1,594.9631436999998,None,,P052,fencog,2,Pre,2022_Jun_11_1130,N-Back (New Version 2021),2021.1.4,119.91155323840198,
,,,,Conditions/Version_1/oneback(2)_v1.xlsx,New rule: Press 'space' when you see 1-back (i.e. the same letter as the one that appeared 1 letter ago.),Q,space,,,,,,,,,0,4,4,4,0,1,1,1,,,,,,,,,,,,,,,,,,,,,,,,,,,,,,,,,,,,,,,,,,,,,,,,,,,,,,,,,,,,,,,,,,,,,1.1712,598.136321,None,space,1,598.136321,None,0.34344549999968876,P052,fencog,2,Pre,2022_Jun_11_1130,N-Back (New Version 2021),2021.1.4,119.91155323840198,
,,,,Conditions/Version_1/oneback(2)_v1.xlsx,New rule: Press 'space' when you see 1-back (i.e. the same letter as the one that appeared 1 letter ago.),P,None,,,,,,,,,0,4,4,4,0,2,2,2,,,,,,,,,,,,,,,,,,,,,,,,,,,,,,,,,,,,,,,,,,,,,,,,,,,,,,,,,,,,,,,,,,,,,1.9958,602.1352053,None,None,1,602.1352053,None,,P052,fencog,2,Pre,2022_Jun_11_1130,N-Back (New Version 2021),2021.1.4,119.91155323840198,
,,,,Conditions/Version_1/oneback(2)_v1.xlsx,New rule: Press 'space' when you see 1-back (i.e. the same letter as the one that appeared 1 letter ago.),o,None,,,,,,,,,0,4,4,4,0,3,3,3,,,,,,,,,,,,,,,,,,,,,,,,,,,,,,,,,,,,,,,,,,,,,,,,,,,,,,,,,,,,,,,,,,,,,1.8408,605.9757248000005,None,None,1,605.9757248000005,None,,P052,fencog,2,Pre,2022_Jun_11_1130,N-Back (New Version 2021),2021.1.4,119.91155323840198,
,,,,Conditions/Version_1/oneback(2)_v1.xlsx,New rule: Press 'space' when you see 1-back (i.e. the same letter as the one that appeared 1 letter ago.),m,None,,,,,,,,,0,4,4,4,0,4,4,4,,,,,,,,,,,,,,,,,,,,,,,,,,,,,,,,,,,,,,,,,,,,,,,,,,,,,,,,,,,,,,,,,,,,,1.3324,609.3081614000002,None,None,1,609.3081614000002,None,,P052,fencog,2,Pre,2022_Jun_11_1130,N-Back (New Version 2021),2021.1.4,119.91155323840198,
,,,,Conditions/Version_1/oneback(2)_v1.xlsx,New rule: Press 'space' when you see 1-back (i.e. the same letter as the one that appeared 1 letter ago.),Z,None,,,,,,,,,0,4,4,4,0,5,5,5,,,,,,,,,,,,,,,,,,,,,,,,,,,,,,,,,,,,,,,,,,,,,,,,,,,,,,,,,,,,,,,,,,,,,1.3572,612.6695134000001,None,None,1,612.6695134000001,None,,P052,fencog,2,Pre,2022_Jun_11_1130,N-Back (New Version 2021),2021.1.4,119.91155323840198,
,,,,Conditions/Version_1/oneback(2)_v1.xlsx,New rule: Press 'space' when you see 1-back (i.e. the same letter as the one that appeared 1 letter ago.),c,None,,,,,,,,,0,4,4,4,0,6,6,6,,,,,,,,,,,,,,,,,,,,,,,,,,,,,,,,,,,,,,,,,,,,,,,,,,,,,,,,,,,,,,,,,,,,,1.9586,616.6373574999998,None,None,1,616.6373574999998,None,,P052,fencog,2,Pre,2022_Jun_11_1130,N-Back (New Version 2021),2021.1.4,119.91155323840198,
,,,,Conditions/Version_1/oneback(2)_v1.xlsx,New rule: Press 'space' when you see 1-back (i.e. the same letter as the one that appeared 1 letter ago.),c,space,,,,,,,,,0,4,4,4,0,7,7,7,,,,,,,,,,,,,,,,,,,,,,,,,,,,,,,,,,,,,,,,,,,,,,,,,,,,,,,,,,,,,,,,,,,,,1.4068,620.0550088999998,None,space,1,620.0550088999998,None,0.5607570000001942,P052,fencog,2,Pre,2022_Jun_11_1130,N-Back (New Version 2021),2021.1.4,119.91155323840198,
,,,,Conditions/Version_1/oneback(2)_v1.xlsx,New rule: Press 'space' when you see 1-back (i.e. the same letter as the one that appeared 1 letter ago.),P,None,,,,,,,,,0,4,4,4,0,8,8,8,,,,,,,,,,,,,,,,,,,,,,,,,,,,,,,,,,,,,,,,,,,,,,,,,,,,,,,,,,,,,,,,,,,,,1.0534,623.1124172,None,None,1,623.1124172,None,,P052,fencog,2,Pre,2022_Jun_11_1130,N-Back (New Version 2021),2021.1.4,119.91155323840198,
,,,,Conditions/Version_1/oneback(2)_v1.xlsx,New rule: Press 'space' when you see 1-back (i.e. the same letter as the one that appeared 1 letter ago.),p,space,,,,,,,,,0,4,4,4,0,9,9,9,,,,,,,,,,,,,,,,,,,,,,,,,,,,,,,,,,,,,,,,,,,,,,,,,,,,,,,,,,,,,,,,,,,,,1.0844,626.2047916000001,None,space,1,626.2047916000001,None,0.6270947000002707,P052,fencog,2,Pre,2022_Jun_11_1130,N-Back (New Version 2021),2021.1.4,119.91155323840198,
,,,,Conditions/Version_1/oneback(2)_v1.xlsx,New rule: Press 'space' when you see 1-back (i.e. the same letter as the one that appeared 1 letter ago.),,,,,,,,,,,0,4,4,4,,,,,,,,,,,,,,,,,,,,,,,,,,,,,,,,,,,,,,,,,,,,,,,,,,,,,,,,,,,,,,,,,,,,,,,,,,,,,,,,,P052,fencog,2,Pre,2022_Jun_11_1130,N-Back (New Version 2021),2021.1.4,119.91155323840198,
,,,,Conditions/Version_1/zeroback(2)_v1.xlsx,New rule: Press 'space' when you see the letter 'x' or 'X'.,p,None,,,,,,,,,0,5,5,5,0,0,0,0,,,,,,,,,,,,,,,,,,,,,,,,,,,,,,,,,,,,,,,,,,,,,,,,,,,,,,,,,,,628.2371218999997,None,631.2208228,None,space,0.8269667999993544,631.2208228,None,628.2371218999997,None,1.3014,633.3760579999998,None,None,1,633.3760579999998,None,,P052,fencog,2,Pre,2022_Jun_11_1130,N-Back (New Version 2021),2021.1.4,119.91155323840198,
,,,,Conditions/Version_1/zeroback(2)_v1.xlsx,New rule: Press 'space' when you see the letter 'x' or 'X'.,L,None,,,,,,,,,0,5,5,5,0,1,1,1,,,,,,,,,,,,,,,,,,,,,,,,,,,,,,,,,,,,,,,,,,,,,,,,,,,,,,,,,,,,,,,,,,,,,1.7168,637.0917248000005,None,space,0,637.0917248000005,None,1.404146099999707,P052,fencog,2,Pre,2022_Jun_11_1130,N-Back (New Version 2021),2021.1.4,119.91155323840198,
,,,,Conditions/Version_1/zeroback(2)_v1.xlsx,New rule: Press 'space' when you see the letter 'x' or 'X'.,G,None,,,,,,,,,0,5,5,5,0,2,2,2,,,,,,,,,,,,,,,,,,,,,,,,,,,,,,,,,,,,,,,,,,,,,,,,,,,,,,,,,,,,,,,,,,,,,1.3386,640.4348676,None,None,1,640.4348676,None,,P052,fencog,2,Pre,2022_Jun_11_1130,N-Back (New Version 2021),2021.1.4,119.91155323840198,
,,,,Conditions/Version_1/zeroback(2)_v1.xlsx,New rule: Press 'space' when you see the letter 'x' or 'X'.,y,None,,,,,,,,,0,5,5,5,0,3,3,3,,,,,,,,,,,,,,,,,,,,,,,,,,,,,,,,,,,,,,,,,,,,,,,,,,,,,,,,,,,,,,,,,,,,,1.568,644.0186716999997,None,None,1,644.0186716999997,None,,P052,fencog,2,Pre,2022_Jun_11_1130,N-Back (New Version 2021),2021.1.4,119.91155323840198,
,,,,Conditions/Version_1/zeroback(2)_v1.xlsx,New rule: Press 'space' when you see the letter 'x' or 'X'.,Y,None,,,,,,,,,0,5,5,5,0,4,4,4,,,,,,,,,,,,,,,,,,,,,,,,,,,,,,,,,,,,,,,,,,,,,,,,,,,,,,,,,,,,,,,,,,,,,1.63,647.6509680999998,None,None,1,647.6509680999998,None,,P052,fencog,2,Pre,2022_Jun_11_1130,N-Back (New Version 2021),2021.1.4,119.91155323840198,
,,,,Conditions/Version_1/zeroback(2)_v1.xlsx,New rule: Press 'space' when you see the letter 'x' or 'X'.,W,None,,,,,,,,,0,5,5,5,0,5,5,5,,,,,,,,,,,,,,,,,,,,,,,,,,,,,,,,,,,,,,,,,,,,,,,,,,,,,,,,,,,,,,,,,,,,,1.072,650.7304713000003,None,None,1,650.7304713000003,None,,P052,fencog,2,Pre,2022_Jun_11_1130,N-Back (New Version 2021),2021.1.4,119.91155323840198,
,,,,Conditions/Version_1/zeroback(2)_v1.xlsx,New rule: Press 'space' when you see the letter 'x' or 'X'.,x,space,,,,,,,,,0,5,5,5,0,6,6,6,,,,,,,,,,,,,,,,,,,,,,,,,,,,,,,,,,,,,,,,,,,,,,,,,,,,,,,,,,,,,,,,,,,,,1.692,654.4281509000002,None,space,1,654.4281509000002,None,0.5478568000007726,P052,fencog,2,Pre,2022_Jun_11_1130,N-Back (New Version 2021),2021.1.4,119.91155323840198,
,,,,Conditions/Version_1/zeroback(2)_v1.xlsx,New rule: Press 'space' when you see the letter 'x' or 'X'.,X,space,,,,,,,,,0,5,5,5,0,7,7,7,,,,,,,,,,,,,,,,,,,,,,,,,,,,,,,,,,,,,,,,,,,,,,,,,,,,,,,,,,,,,,,,,,,,,1.6424,658.0773832000004,None,space,1,658.0773832000004,None,0.7224416999997629,P052,fencog,2,Pre,2022_Jun_11_1130,N-Back (New Version 2021),2021.1.4,119.91155323840198,
,,,,Conditions/Version_1/zeroback(2)_v1.xlsx,New rule: Press 'space' when you see the letter 'x' or 'X'.,p,None,,,,,,,,,0,5,5,5,0,8,8,8,,,,,,,,,,,,,,,,,,,,,,,,,,,,,,,,,,,,,,,,,,,,,,,,,,,,,,,,,,,,,,,,,,,,,1.32,661.4009203000005,None,None,1,661.4009203000005,None,,P052,fencog,2,Pre,2022_Jun_11_1130,N-Back (New Version 2021),2021.1.4,119.91155323840198,
,,,,Conditions/Version_1/zeroback(2)_v1.xlsx,New rule: Press 'space' when you see the letter 'x' or 'X'.,h,None,,,,,,,,,0,5,5,5,0,9,9,9,,,,,,,,,,,,,,,,,,,,,,,,,,,,,,,,,,,,,,,,,,,,,,,,,,,,,,,,,,,,,,,,,,,,,1.1774,664.5898680999999,None,None,1,664.5898680999999,None,,P052,fencog,2,Pre,2022_Jun_11_1130,N-Back (New Version 2021),2021.1.4,119.91155323840198,
,,,,Conditions/Version_1/zeroback(2)_v1.xlsx,New rule: Press 'space' when you see the letter 'x' or 'X'.,,,,,,,,,,,0,5,5,5,,,,,,,,,,,,,,,,,,,,,,,,,,,,,,,,,,,,,,,,,,,,,,,,,,,,,,,,,,,,,,,,,,,,,,,,,,,,,,,,,P052,fencog,2,Pre,2022_Jun_11_1130,N-Back (New Version 2021),2021.1.4,119.91155323840198,
,,,,Conditions/Version_1/threeback(2)_v1.xlsx,New rule: Press 'space' when you see 3-back (i.e. the same letter as the one that appeared 3 letters ago.),q,None,,,,,,,,,0,6,6,6,0,0,0,0,,,,,,,,,,,,,,,,,,,,,,,,,,,,,,,,,,,,,,,,,,,,,,,,,,,,,,,,,,,666.6148112999999,None,669.6009291,None,space,2.878680499999973,669.6009291,None,666.6148112999999,None,1.0472,673.5557942000005,None,None,1,673.5557942000005,None,,P052,fencog,2,Pre,2022_Jun_11_1130,N-Back (New Version 2021),2021.1.4,119.91155323840198,
,,,,Conditions/Version_1/threeback(2)_v1.xlsx,New rule: Press 'space' when you see 3-back (i.e. the same letter as the one that appeared 3 letters ago.),Y,None,,,,,,,,,0,6,6,6,0,1,1,1,,,,,,,,,,,,,,,,,,,,,,,,,,,,,,,,,,,,,,,,,,,,,,,,,,,,,,,,,,,,,,,,,,,,,1.9276,677.4900164000001,None,None,1,677.4900164000001,None,,P052,fencog,2,Pre,2022_Jun_11_1130,N-Back (New Version 2021),2021.1.4,119.91155323840198,
,,,,Conditions/Version_1/threeback(2)_v1.xlsx,New rule: Press 'space' when you see 3-back (i.e. the same letter as the one that appeared 3 letters ago.),p,None,,,,,,,,,0,6,6,6,0,2,2,2,,,,,,,,,,,,,,,,,,,,,,,,,,,,,,,,,,,,,,,,,,,,,,,,,,,,,,,,,,,,,,,,,,,,,1.847,681.3592192000006,None,None,1,681.3592192000006,None,,P052,fencog,2,Pre,2022_Jun_11_1130,N-Back (New Version 2021),2021.1.4,119.91155323840198,
,,,,Conditions/Version_1/threeback(2)_v1.xlsx,New rule: Press 'space' when you see 3-back (i.e. the same letter as the one that appeared 3 letters ago.),p,None,,,,,,,,,0,6,6,6,0,3,3,3,,,,,,,,,,,,,,,,,,,,,,,,,,,,,,,,,,,,,,,,,,,,,,,,,,,,,,,,,,,,,,,,,,,,,1.6486,685.0108132000005,None,None,1,685.0108132000005,None,,P052,fencog,2,Pre,2022_Jun_11_1130,N-Back (New Version 2021),2021.1.4,119.91155323840198,
,,,,Conditions/Version_1/threeback(2)_v1.xlsx,New rule: Press 'space' when you see 3-back (i.e. the same letter as the one that appeared 3 letters ago.),y,space,,,,,,,,,0,6,6,6,0,4,4,4,,,,,,,,,,,,,,,,,,,,,,,,,,,,,,,,,,,,,,,,,,,,,,,,,,,,,,,,,,,,,,,,,,,,,1.5494,688.5707124999999,None,space,1,688.5707124999999,None,0.6530441999993855,P052,fencog,2,Pre,2022_Jun_11_1130,N-Back (New Version 2021),2021.1.4,119.91155323840198,
,,,,Conditions/Version_1/threeback(2)_v1.xlsx,New rule: Press 'space' when you see 3-back (i.e. the same letter as the one that appeared 3 letters ago.),u,None,,,,,,,,,0,6,6,6,0,5,5,5,,,,,,,,,,,,,,,,,,,,,,,,,,,,,,,,,,,,,,,,,,,,,,,,,,,,,,,,,,,,,,,,,,,,,1.8532,692.4338323000002,None,None,1,692.4338323000002,None,,P052,fencog,2,Pre,2022_Jun_11_1130,N-Back (New Version 2021),2021.1.4,119.91155323840198,
,,,,Conditions/Version_1/threeback(2)_v1.xlsx,New rule: Press 'space' when you see 3-back (i.e. the same letter as the one that appeared 3 letters ago.),P,space,,,,,,,,,0,6,6,6,0,6,6,6,,,,,,,,,,,,,,,,,,,,,,,,,,,,,,,,,,,,,,,,,,,,,,,,,,,,,,,,,,,,,,,,,,,,,1.134,695.5701537000004,None,space,1,695.5701537000004,None,0.7414310000003752,P052,fencog,2,Pre,2022_Jun_11_1130,N-Back (New Version 2021),2021.1.4,119.91155323840198,
,,,,Conditions/Version_1/threeback(2)_v1.xlsx,New rule: Press 'space' when you see 3-back (i.e. the same letter as the one that appeared 3 letters ago.),a,None,,,,,,,,,0,6,6,6,0,7,7,7,,,,,,,,,,,,,,,,,,,,,,,,,,,,,,,,,,,,,,,,,,,,,,,,,,,,,,,,,,,,,,,,,,,,,1.8718,699.4473393999997,None,None,1,699.4473393999997,None,,P052,fencog,2,Pre,2022_Jun_11_1130,N-Back (New Version 2021),2021.1.4,119.91155323840198,
,,,,Conditions/Version_1/threeback(2)_v1.xlsx,New rule: Press 'space' when you see 3-back (i.e. the same letter as the one that appeared 3 letters ago.),U,space,,,,,,,,,0,6,6,6,0,8,8,8,,,,,,,,,,,,,,,,,,,,,,,,,,,,,,,,,,,,,,,,,,,,,,,,,,,,,,,,,,,,,,,,,,,,,1.5184,702.9745412000002,None,space,1,702.9745412000002,None,0.6255587999994532,P052,fencog,2,Pre,2022_Jun_11_1130,N-Back (New Version 2021),2021.1.4,119.91155323840198,
,,,,Conditions/Version_1/threeback(2)_v1.xlsx,New rule: Press 'space' when you see 3-back (i.e. the same letter as the one that appeared 3 letters ago.),q,None,,,,,,,,,0,6,6,6,0,9,9,9,,,,,,,,,,,,,,,,,,,,,,,,,,,,,,,,,,,,,,,,,,,,,,,,,,,,,,,,,,,,,,,,,,,,,1.0906,706.0720583000002,None,None,1,706.0720583000002,None,,P052,fencog,2,Pre,2022_Jun_11_1130,N-Back (New Version 2021),2021.1.4,119.91155323840198,
,,,,Conditions/Version_1/threeback(2)_v1.xlsx,New rule: Press 'space' when you see 3-back (i.e. the same letter as the one that appeared 3 letters ago.),,,,,,,,,,,0,6,6,6,,,,,,,,,,,,,,,,,,,,,,,,,,,,,,,,,,,,,,,,,,,,,,,,,,,,,,,,,,,,,,,,,,,,,,,,,,,,,,,,,P052,fencog,2,Pre,2022_Jun_11_1130,N-Back (New Version 2021),2021.1.4,119.91155323840198,
,,,,Conditions/Version_1/twoback(2)_v1.xlsx,New rule: Press 'space' when you see 2-back (i.e. the same letter as the one that appeared 2 letters ago.),q,None,,,,,,,,,0,7,7,7,0,0,0,0,,,,,,,,,,,,,,,,,,,,,,,,,,,,,,,,,,,,,,,,,,,,,,,,,,,,,,,,,,,708.111484,None,711.0967665999997,None,space,0.7030678999999509,711.0967665999997,None,708.111484,None,1.7354,713.5608211999997,None,None,1,713.5608211999997,None,,P052,fencog,2,Pre,2022_Jun_11_1130,N-Back (New Version 2021),2021.1.4,119.91155323840198,
,,,,Conditions/Version_1/twoback(2)_v1.xlsx,New rule: Press 'space' when you see 2-back (i.e. the same letter as the one that appeared 2 letters ago.),r,None,,,,,,,,,0,7,7,7,0,1,1,1,,,,,,,,,,,,,,,,,,,,,,,,,,,,,,,,,,,,,,,,,,,,,,,,,,,,,,,,,,,,,,,,,,,,,1.5804,717.1428286,None,None,1,717.1428286,None,,P052,fencog,2,Pre,2022_Jun_11_1130,N-Back (New Version 2021),2021.1.4,119.91155323840198,
,,,,Conditions/Version_1/twoback(2)_v1.xlsx,New rule: Press 'space' when you see 2-back (i.e. the same letter as the one that appeared 2 letters ago.),q,space,,,,,,,,,0,7,7,7,0,2,2,2,,,,,,,,,,,,,,,,,,,,,,,,,,,,,,,,,,,,,,,,,,,,,,,,,,,,,,,,,,,,,,,,,,,,,1.847,720.9916736000005,None,space,1,720.9916736000005,None,0.8399215999997978,P052,fencog,2,Pre,2022_Jun_11_1130,N-Back (New Version 2021),2021.1.4,119.91155323840198,
,,,,Conditions/Version_1/twoback(2)_v1.xlsx,New rule: Press 'space' when you see 2-back (i.e. the same letter as the one that appeared 2 letters ago.),P,None,,,,,,,,,0,7,7,7,0,3,3,3,,,,,,,,,,,,,,,,,,,,,,,,,,,,,,,,,,,,,,,,,,,,,,,,,,,,,,,,,,,,,,,,,,,,,1.0844,724.0824838999997,None,None,1,724.0824838999997,None,,P052,fencog,2,Pre,2022_Jun_11_1130,N-Back (New Version 2021),2021.1.4,119.91155323840198,
,,,,Conditions/Version_1/twoback(2)_v1.xlsx,New rule: Press 'space' when you see 2-back (i.e. the same letter as the one that appeared 2 letters ago.),p,None,,,,,,,,,0,7,7,7,0,4,4,4,,,,,,,,,,,,,,,,,,,,,,,,,,,,,,,,,,,,,,,,,,,,,,,,,,,,,,,,,,,,,,,,,,,,,1.32,727.4065559000001,None,None,1,727.4065559000001,None,,P052,fencog,2,Pre,2022_Jun_11_1130,N-Back (New Version 2021),2021.1.4,119.91155323840198,
,,,,Conditions/Version_1/twoback(2)_v1.xlsx,New rule: Press 'space' when you see 2-back (i.e. the same letter as the one that appeared 2 letters ago.),H,None,,,,,,,,,0,7,7,7,0,5,5,5,,,,,,,,,,,,,,,,,,,,,,,,,,,,,,,,,,,,,,,,,,,,,,,,,,,,,,,,,,,,,,,,,,,,,1.5928,731.0094950000002,None,None,1,731.0094950000002,None,,P052,fencog,2,Pre,2022_Jun_11_1130,N-Back (New Version 2021),2021.1.4,119.91155323840198,
,,,,Conditions/Version_1/twoback(2)_v1.xlsx,New rule: Press 'space' when you see 2-back (i.e. the same letter as the one that appeared 2 letters ago.),g,None,,,,,,,,,0,7,7,7,0,6,6,6,,,,,,,,,,,,,,,,,,,,,,,,,,,,,,,,,,,,,,,,,,,,,,,,,,,,,,,,,,,,,,,,,,,,,1.2084,734.2274671000005,None,None,1,734.2274671000005,None,,P052,fencog,2,Pre,2022_Jun_11_1130,N-Back (New Version 2021),2021.1.4,119.91155323840198,
,,,,Conditions/Version_1/twoback(2)_v1.xlsx,New rule: Press 'space' when you see 2-back (i.e. the same letter as the one that appeared 2 letters ago.),j,None,,,,,,,,,0,7,7,7,0,7,7,7,,,,,,,,,,,,,,,,,,,,,,,,,,,,,,,,,,,,,,,,,,,,,,,,,,,,,,,,,,,,,,,,,,,,,1.537,737.7699941999999,None,None,1,737.7699941999999,None,,P052,fencog,2,Pre,2022_Jun_11_1130,N-Back (New Version 2021),2021.1.4,119.91155323840198,
,,,,Conditions/Version_1/twoback(2)_v1.xlsx,New rule: Press 'space' when you see 2-back (i.e. the same letter as the one that appeared 2 letters ago.),g,space,,,,,,,,,0,7,7,7,0,8,8,8,,,,,,,,,,,,,,,,,,,,,,,,,,,,,,,,,,,,,,,,,,,,,,,,,,,,,,,,,,,,,,,,,,,,,1.816,741.5856695000002,None,space,1,741.5856695000002,None,0.6538713999998436,P052,fencog,2,Pre,2022_Jun_11_1130,N-Back (New Version 2021),2021.1.4,119.91155323840198,
,,,,Conditions/Version_1/twoback(2)_v1.xlsx,New rule: Press 'space' when you see 2-back (i.e. the same letter as the one that appeared 2 letters ago.),G,None,,,,,,,,,0,7,7,7,0,9,9,9,,,,,,,,,,,,,,,,,,,,,,,,,,,,,,,,,,,,,,,,,,,,,,,,,,,,,,,,,,,,,,,,,,,,,1.01,744.6032052,None,None,1,744.6032052,None,,P052,fencog,2,Pre,2022_Jun_11_1130,N-Back (New Version 2021),2021.1.4,119.91155323840198,
,,,,Conditions/Version_1/twoback(2)_v1.xlsx,New rule: Press 'space' when you see 2-back (i.e. the same letter as the one that appeared 2 letters ago.),,,,,,,,,,,0,7,7,7,,,,,,,,,,,,,,,,,,,,,,,,,,,,,,,,,,,,,,,,,,,,,,,,,,,,,,,,,,,,,,,,,,,,,,,,,,,,,,,,,P052,fencog,2,Pre,2022_Jun_11_1130,N-Back (New Version 2021),2021.1.4,119.91155323840198,
,,,,Conditions/Version_1/threeback(3)_v1.xlsx,New rule: Press 'space' when you see 3-back (i.e. the same letter as the one that appeared 3 letters ago.),w,None,,,,,,,,,0,8,8,8,0,0,0,0,,,,,,,,,,,,,,,,,,,,,,,,,,,,,,,,,,,,,,,,,,,,,,,,,,,,,,,,,,,746.6306420999999,None,749.6207018000005,None,space,5.314915900000415,749.6207018000005,None,746.6306420999999,None,1.9896,756.9646537999997,None,None,1,756.9646537999997,None,,P052,fencog,2,Pre,2022_Jun_11_1130,N-Back (New Version 2021),2021.1.4,119.91155323840198,
,,,,Conditions/Version_1/threeback(3)_v1.xlsx,New rule: Press 'space' when you see 3-back (i.e. the same letter as the one that appeared 3 letters ago.),p,None,,,,,,,,,0,8,8,8,0,1,1,1,,,,,,,,,,,,,,,,,,,,,,,,,,,,,,,,,,,,,,,,,,,,,,,,,,,,,,,,,,,,,,,,,,,,,1.6982,760.6658032000005,None,None,1,760.6658032000005,None,,P052,fencog,2,Pre,2022_Jun_11_1130,N-Back (New Version 2021),2021.1.4,119.91155323840198,
,,,,Conditions/Version_1/threeback(3)_v1.xlsx,New rule: Press 'space' when you see 3-back (i.e. the same letter as the one that appeared 3 letters ago.),P,None,,,,,,,,,0,8,8,8,0,2,2,2,,,,,,,,,,,,,,,,,,,,,,,,,,,,,,,,,,,,,,,,,,,,,,,,,,,,,,,,,,,,,,,,,,,,,1.01,763.6880001999998,None,None,1,763.6880001999998,None,,P052,fencog,2,Pre,2022_Jun_11_1130,N-Back (New Version 2021),2021.1.4,119.91155323840198,
,,,,Conditions/Version_1/threeback(3)_v1.xlsx,New rule: Press 'space' when you see 3-back (i.e. the same letter as the one that appeared 3 letters ago.),i,None,,,,,,,,,0,8,8,8,0,3,3,3,,,,,,,,,,,,,,,,,,,,,,,,,,,,,,,,,,,,,,,,,,,,,,,,,,,,,,,,,,,,,,,,,,,,,1.4254,767.1196551000003,None,None,1,767.1196551000003,None,,P052,fencog,2,Pre,2022_Jun_11_1130,N-Back (New Version 2021),2021.1.4,119.91155323840198,
,,,,Conditions/Version_1/threeback(3)_v1.xlsx,New rule: Press 'space' when you see 3-back (i.e. the same letter as the one that appeared 3 letters ago.),f,None,,,,,,,,,0,8,8,8,0,4,4,4,,,,,,,,,,,,,,,,,,,,,,,,,,,,,,,,,,,,,,,,,,,,,,,,,,,,,,,,,,,,,,,,,,,,,1.3138,770.4437403000002,None,None,1,770.4437403000002,None,,P052,fencog,2,Pre,2022_Jun_11_1130,N-Back (New Version 2021),2021.1.4,119.91155323840198,
,,,,Conditions/Version_1/threeback(3)_v1.xlsx,New rule: Press 'space' when you see 3-back (i.e. the same letter as the one that appeared 3 letters ago.),o,None,,,,,,,,,0,8,8,8,0,5,5,5,,,,,,,,,,,,,,,,,,,,,,,,,,,,,,,,,,,,,,,,,,,,,,,,,,,,,,,,,,,,,,,,,,,,,1.103,773.5576407999997,None,None,1,773.5576407999997,None,,P052,fencog,2,Pre,2022_Jun_11_1130,N-Back (New Version 2021),2021.1.4,119.91155323840198,
,,,,Conditions/Version_1/threeback(3)_v1.xlsx,New rule: Press 'space' when you see 3-back (i.e. the same letter as the one that appeared 3 letters ago.),w,None,,,,,,,,,0,8,8,8,0,6,6,6,,,,,,,,,,,,,,,,,,,,,,,,,,,,,,,,,,,,,,,,,,,,,,,,,,,,,,,,,,,,,,,,,,,,,1.1092,776.6761926999998,None,None,1,776.6761926999998,None,,P052,fencog,2,Pre,2022_Jun_11_1130,N-Back (New Version 2021),2021.1.4,119.91155323840198,
,,,,Conditions/Version_1/threeback(3)_v1.xlsx,New rule: Press 'space' when you see 3-back (i.e. the same letter as the one that appeared 3 letters ago.),F,space,,,,,,,,,0,8,8,8,0,7,7,7,,,,,,,,,,,,,,,,,,,,,,,,,,,,,,,,,,,,,,,,,,,,,,,,,,,,,,,,,,,,,,,,,,,,,1.475,780.1575187999997,None,space,1,780.1575187999997,None,0.6583999000004042,P052,fencog,2,Pre,2022_Jun_11_1130,N-Back (New Version 2021),2021.1.4,119.91155323840198,
,,,,Conditions/Version_1/threeback(3)_v1.xlsx,New rule: Press 'space' when you see 3-back (i.e. the same letter as the one that appeared 3 letters ago.),p,None,,,,,,,,,0,8,8,8,0,8,8,8,,,,,,,,,,,,,,,,,,,,,,,,,,,,,,,,,,,,,,,,,,,,,,,,,,,,,,,,,,,,,,,,,,,,,1.6858,783.8480875000005,None,None,1,783.8480875000005,None,,P052,fencog,2,Pre,2022_Jun_11_1130,N-Back (New Version 2021),2021.1.4,119.91155323840198,
,,,,Conditions/Version_1/threeback(3)_v1.xlsx,New rule: Press 'space' when you see 3-back (i.e. the same letter as the one that appeared 3 letters ago.),W,space,,,,,,,,,0,8,8,8,0,9,9,9,,,,,,,,,,,,,,,,,,,,,,,,,,,,,,,,,,,,,,,,,,,,,,,,,,,,,,,,,,,,,,,,,,,,,1.7726,787.6298852999998,None,space,1,787.6298852999998,None,0.8975615999997899,P052,fencog,2,Pre,2022_Jun_11_1130,N-Back (New Version 2021),2021.1.4,119.91155323840198,
,,,,Conditions/Version_1/threeback(3)_v1.xlsx,New rule: Press 'space' when you see 3-back (i.e. the same letter as the one that appeared 3 letters ago.),,,,,,,,,,,0,8,8,8,,,,,,,,,,,,,,,,,,,,,,,,,,,,,,,,,,,,,,,,,,,,,,,,,,,,,,,,,,,,,,,,,,,,,,,,,,,,,,,,,P052,fencog,2,Pre,2022_Jun_11_1130,N-Back (New Version 2021),2021.1.4,119.91155323840198,
,,,,Conditions/Version_1/zeroback(3)_v1.xlsx,New rule: Press 'space' when you see the letter 'x' or 'X'.,X,space,,,,,,,,,0,9,9,9,0,0,0,0,,,,,,,,,,,,,,,,,,,,,,,,,,,,,,,,,,,,,,,,,,,,,,,,,,,,,,,,,,,789.6552807999997,None,792.6532109999998,None,space,0.3305870000003779,792.6532109999998,None,789.6552807999997,None,1.9958,795.0114958000004,None,space,1,795.0114958000004,None,0.7400860999996439,P052,fencog,2,Pre,2022_Jun_11_1130,N-Back (New Version 2021),2021.1.4,119.91155323840198,
,,,,Conditions/Version_1/zeroback(3)_v1.xlsx,New rule: Press 'space' when you see the letter 'x' or 'X'.,B,None,,,,,,,,,0,9,9,9,0,1,1,1,,,,,,,,,,,,,,,,,,,,,,,,,,,,,,,,,,,,,,,,,,,,,,,,,,,,,,,,,,,,,,,,,,,,,1.8222,798.8405864000006,None,None,1,798.8405864000006,None,,P052,fencog,2,Pre,2022_Jun_11_1130,N-Back (New Version 2021),2021.1.4,119.91155323840198,
,,,,Conditions/Version_1/zeroback(3)_v1.xlsx,New rule: Press 'space' when you see the letter 'x' or 'X'.,m,None,,,,,,,,,0,9,9,9,0,2,2,2,,,,,,,,,,,,,,,,,,,,,,,,,,,,,,,,,,,,,,,,,,,,,,,,,,,,,,,,,,,,,,,,,,,,,1.8036,802.6508217,None,None,1,802.6508217,None,,P052,fencog,2,Pre,2022_Jun_11_1130,N-Back (New Version 2021),2021.1.4,119.91155323840198,
,,,,Conditions/Version_1/zeroback(3)_v1.xlsx,New rule: Press 'space' when you see the letter 'x' or 'X'.,m,None,,,,,,,,,0,9,9,9,0,3,3,3,,,,,,,,,,,,,,,,,,,,,,,,,,,,,,,,,,,,,,,,,,,,,,,,,,,,,,,,,,,,,,,,,,,,,1.2084,805.8668250000001,None,None,1,805.8668250000001,None,,P052,fencog,2,Pre,2022_Jun_11_1130,N-Back (New Version 2021),2021.1.4,119.91155323840198,
,,,,Conditions/Version_1/zeroback(3)_v1.xlsx,New rule: Press 'space' when you see the letter 'x' or 'X'.,o,None,,,,,,,,,0,9,9,9,0,4,4,4,,,,,,,,,,,,,,,,,,,,,,,,,,,,,,,,,,,,,,,,,,,,,,,,,,,,,,,,,,,,,,,,,,,,,1.9586,809.8250557000001,None,None,1,809.8250557000001,None,,P052,fencog,2,Pre,2022_Jun_11_1130,N-Back (New Version 2021),2021.1.4,119.91155323840198,
,,,,Conditions/Version_1/zeroback(3)_v1.xlsx,New rule: Press 'space' when you see the letter 'x' or 'X'.,p,None,,,,,,,,,0,9,9,9,0,5,5,5,,,,,,,,,,,,,,,,,,,,,,,,,,,,,,,,,,,,,,,,,,,,,,,,,,,,,,,,,,,,,,,,,,,,,1.0906,812.9231013999997,None,None,1,812.9231013999997,None,,P052,fencog,2,Pre,2022_Jun_11_1130,N-Back (New Version 2021),2021.1.4,119.91155323840198,
,,,,Conditions/Version_1/zeroback(3)_v1.xlsx,New rule: Press 'space' when you see the letter 'x' or 'X'.,G,None,,,,,,,,,0,9,9,9,0,6,6,6,,,,,,,,,,,,,,,,,,,,,,,,,,,,,,,,,,,,,,,,,,,,,,,,,,,,,,,,,,,,,,,,,,,,,1.444,816.3717993999999,None,None,1,816.3717993999999,None,,P052,fencog,2,Pre,2022_Jun_11_1130,N-Back (New Version 2021),2021.1.4,119.91155323840198,
,,,,Conditions/Version_1/zeroback(3)_v1.xlsx,New rule: Press 'space' when you see the letter 'x' or 'X'.,X,space,,,,,,,,,0,9,9,9,0,7,7,7,,,,,,,,,,,,,,,,,,,,,,,,,,,,,,,,,,,,,,,,,,,,,,,,,,,,,,,,,,,,,,,,,,,,,1.1154,819.4958223000003,None,space,1,819.4958223000003,None,0.7918710000003557,P052,fencog,2,Pre,2022_Jun_11_1130,N-Back (New Version 2021),2021.1.4,119.91155323840198,
,,,,Conditions/Version_1/zeroback(3)_v1.xlsx,New rule: Press 'space' when you see the letter 'x' or 'X'.,p,None,,,,,,,,,0,9,9,9,0,8,8,8,,,,,,,,,,,,,,,,,,,,,,,,,,,,,,,,,,,,,,,,,,,,,,,,,,,,,,,,,,,,,,,,,,,,,1.7788,823.2791183999998,None,None,1,823.2791183999998,None,,P052,fencog,2,Pre,2022_Jun_11_1130,N-Back (New Version 2021),2021.1.4,119.91155323840198,
,,,,Conditions/Version_1/zeroback(3)_v1.xlsx,New rule: Press 'space' when you see the letter 'x' or 'X'.,x,space,,,,,,,,,0,9,9,9,0,9,9,9,,,,,,,,,,,,,,,,,,,,,,,,,,,,,,,,,,,,,,,,,,,,,,,,,,,,,,,,,,,,,,,,,,,,,1.5246,826.8115589999998,None,space,1,826.8115589999998,None,0.6438976999997976,P052,fencog,2,Pre,2022_Jun_11_1130,N-Back (New Version 2021),2021.1.4,119.91155323840198,
,,,,Conditions/Version_1/zeroback(3)_v1.xlsx,New rule: Press 'space' when you see the letter 'x' or 'X'.,,,,,,,,,,,0,9,9,9,,,,,,,,,,,,,,,,,,,,,,,,,,,,,,,,,,,,,,,,,,,,,,,,,,,,,,,,,,,,,,,,,,,,,,,,,,,,,,,,,P052,fencog,2,Pre,2022_Jun_11_1130,N-Back (New Version 2021),2021.1.4,119.91155323840198,
,,,,Conditions/Version_1/twoback(3)_v1.xlsx,New rule: Press 'space' when you see 2-back (i.e. the same letter as the one that appeared 2 letters ago.),e,None,,,,,,,,,0,10,10,10,0,0,0,0,,,,,,,,,,,,,,,,,,,,,,,,,,,,,,,,,,,,,,,,,,,,,,,,,,,,,,,,,,,828.8385542000005,None,831.8279526000006,None,space,2.139801499999521,831.8279526000006,None,828.8385542000005,None,1.4316,835.4327970000004,None,None,1,835.4327970000004,None,,P052,fencog,2,Pre,2022_Jun_11_1130,N-Back (New Version 2021),2021.1.4,119.91155323840198,
,,,,Conditions/Version_1/twoback(3)_v1.xlsx,New rule: Press 'space' when you see 2-back (i.e. the same letter as the one that appeared 2 letters ago.),o,None,,,,,,,,,0,10,10,10,0,1,1,1,,,,,,,,,,,,,,,,,,,,,,,,,,,,,,,,,,,,,,,,,,,,,,,,,,,,,,,,,,,,,,,,,,,,,1.9834,839.4162801000002,None,None,1,839.4162801000002,None,,P052,fencog,2,Pre,2022_Jun_11_1130,N-Back (New Version 2021),2021.1.4,119.91155323840198,
,,,,Conditions/Version_1/twoback(3)_v1.xlsx,New rule: Press 'space' when you see 2-back (i.e. the same letter as the one that appeared 2 letters ago.),P,None,,,,,,,,,0,10,10,10,0,2,2,2,,,,,,,,,,,,,,,,,,,,,,,,,,,,,,,,,,,,,,,,,,,,,,,,,,,,,,,,,,,,,,,,,,,,,1.6734,843.0971924000005,None,None,1,843.0971924000005,None,,P052,fencog,2,Pre,2022_Jun_11_1130,N-Back (New Version 2021),2021.1.4,119.91155323840198,
,,,,Conditions/Version_1/twoback(3)_v1.xlsx,New rule: Press 'space' when you see 2-back (i.e. the same letter as the one that appeared 2 letters ago.),z,None,,,,,,,,,0,10,10,10,0,3,3,3,,,,,,,,,,,,,,,,,,,,,,,,,,,,,,,,,,,,,,,,,,,,,,,,,,,,,,,,,,,,,,,,,,,,,1.8966,846.9992191000001,None,None,1,846.9992191000001,None,,P052,fencog,2,Pre,2022_Jun_11_1130,N-Back (New Version 2021),2021.1.4,119.91155323840198,
,,,,Conditions/Version_1/twoback(3)_v1.xlsx,New rule: Press 'space' when you see 2-back (i.e. the same letter as the one that appeared 2 letters ago.),X,None,,,,,,,,,0,10,10,10,0,4,4,4,,,,,,,,,,,,,,,,,,,,,,,,,,,,,,,,,,,,,,,,,,,,,,,,,,,,,,,,,,,,,,,,,,,,,1.7106,850.7200675000004,None,None,1,850.7200675000004,None,,P052,fencog,2,Pre,2022_Jun_11_1130,N-Back (New Version 2021),2021.1.4,119.91155323840198,
,,,,Conditions/Version_1/twoback(3)_v1.xlsx,New rule: Press 'space' when you see 2-back (i.e. the same letter as the one that appeared 2 letters ago.),z,space,,,,,,,,,0,10,10,10,0,5,5,5,,,,,,,,,,,,,,,,,,,,,,,,,,,,,,,,,,,,,,,,,,,,,,,,,,,,,,,,,,,,,,,,,,,,,1.816,854.5382383000006,None,space,1,854.5382383000006,None,0.5653254999997444,P052,fencog,2,Pre,2022_Jun_11_1130,N-Back (New Version 2021),2021.1.4,119.91155323840198,
,,,,Conditions/Version_1/twoback(3)_v1.xlsx,New rule: Press 'space' when you see 2-back (i.e. the same letter as the one that appeared 2 letters ago.),x,space,,,,,,,,,0,10,10,10,0,6,6,6,,,,,,,,,,,,,,,,,,,,,,,,,,,,,,,,,,,,,,,,,,,,,,,,,,,,,,,,,,,,,,,,,,,,,1.2332,857.7771346,None,space,1,857.7771346,None,0.7184746000002633,P052,fencog,2,Pre,2022_Jun_11_1130,N-Back (New Version 2021),2021.1.4,119.91155323840198,
,,,,Conditions/Version_1/twoback(3)_v1.xlsx,New rule: Press 'space' when you see 2-back (i.e. the same letter as the one that appeared 2 letters ago.),c,None,,,,,,,,,0,10,10,10,0,7,7,7,,,,,,,,,,,,,,,,,,,,,,,,,,,,,,,,,,,,,,,,,,,,,,,,,,,,,,,,,,,,,,,,,,,,,1.537,861.3253860000004,None,None,1,861.3253860000004,None,,P052,fencog,2,Pre,2022_Jun_11_1130,N-Back (New Version 2021),2021.1.4,119.91155323840198,
,,,,Conditions/Version_1/twoback(3)_v1.xlsx,New rule: Press 'space' when you see 2-back (i.e. the same letter as the one that appeared 2 letters ago.),i,None,,,,,,,,,0,10,10,10,0,8,8,8,,,,,,,,,,,,,,,,,,,,,,,,,,,,,,,,,,,,,,,,,,,,,,,,,,,,,,,,,,,,,,,,,,,,,1.475,864.7994767,None,None,1,864.7994767,None,,P052,fencog,2,Pre,2022_Jun_11_1130,N-Back (New Version 2021),2021.1.4,119.91155323840198,
,,,,Conditions/Version_1/twoback(3)_v1.xlsx,New rule: Press 'space' when you see 2-back (i.e. the same letter as the one that appeared 2 letters ago.),C,space,,,,,,,,,0,10,10,10,0,9,9,9,,,,,,,,,,,,,,,,,,,,,,,,,,,,,,,,,,,,,,,,,,,,,,,,,,,,,,,,,,,,,,,,,,,,,1.2518,868.0586308000002,None,space,1,868.0586308000002,None,0.7250376000001779,P052,fencog,2,Pre,2022_Jun_11_1130,N-Back (New Version 2021),2021.1.4,119.91155323840198,
,,,,Conditions/Version_1/twoback(3)_v1.xlsx,New rule: Press 'space' when you see 2-back (i.e. the same letter as the one that appeared 2 letters ago.),,,,,,,,,,,0,10,10,10,,,,,,,,,,,,,,,,,,,,,,,,,,,,,,,,,,,,,,,,,,,,,,,,,,,,,,,,,,,,,,,,,,,,,,,,,,,,,,,,,P052,fencog,2,Pre,2022_Jun_11_1130,N-Back (New Version 2021),2021.1.4,119.91155323840198,
,,,,Conditions/Version_1/oneback(3)_v1.xlsx,New rule: Press 'space' when you see 1-back (i.e. the same letter as the one that appeared 1 letter ago.),o,None,,,,,,,,,0,11,11,11,0,0,0,0,,,,,,,,,,,,,,,,,,,,,,,,,,,,,,,,,,,,,,,,,,,,,,,,,,,,,,,,,,,870.0870512000001,None,873.0764896999999,None,space,0.4909311000001253,873.0764896999999,None,870.0870512000001,None,1.5122,875.1138065000005,None,None,1,875.1138065000005,None,,P052,fencog,2,Pre,2022_Jun_11_1130,N-Back (New Version 2021),2021.1.4,119.91155323840198,
,,,,Conditions/Version_1/oneback(3)_v1.xlsx,New rule: Press 'space' when you see 1-back (i.e. the same letter as the one that appeared 1 letter ago.),O,space,,,,,,,,,0,11,11,11,0,1,1,1,,,,,,,,,,,,,,,,,,,,,,,,,,,,,,,,,,,,,,,,,,,,,,,,,,,,,,,,,,,,,,,,,,,,,1.8656,878.9873495000002,None,space,1,878.9873495000002,None,0.6841301000004023,P052,fencog,2,Pre,2022_Jun_11_1130,N-Back (New Version 2021),2021.1.4,119.91155323840198,
,,,,Conditions/Version_1/oneback(3)_v1.xlsx,New rule: Press 'space' when you see 1-back (i.e. the same letter as the one that appeared 1 letter ago.),h,None,,,,,,,,,0,11,11,11,0,2,2,2,,,,,,,,,,,,,,,,,,,,,,,,,,,,,,,,,,,,,,,,,,,,,,,,,,,,,,,,,,,,,,,,,,,,,1.3758,882.3849081999997,None,None,1,882.3849081999997,None,,P052,fencog,2,Pre,2022_Jun_11_1130,N-Back (New Version 2021),2021.1.4,119.91155323840198,
,,,,Conditions/Version_1/oneback(3)_v1.xlsx,New rule: Press 'space' when you see 1-back (i.e. the same letter as the one that appeared 1 letter ago.),g,None,,,,,,,,,0,11,11,11,0,3,3,3,,,,,,,,,,,,,,,,,,,,,,,,,,,,,,,,,,,,,,,,,,,,,,,,,,,,,,,,,,,,,,,,,,,,,1.3138,885.7014135,None,None,1,885.7014135,None,,P052,fencog,2,Pre,2022_Jun_11_1130,N-Back (New Version 2021),2021.1.4,119.91155323840198,
,,,,Conditions/Version_1/oneback(3)_v1.xlsx,New rule: Press 'space' when you see 1-back (i.e. the same letter as the one that appeared 1 letter ago.),n,None,,,,,,,,,0,11,11,11,0,4,4,4,,,,,,,,,,,,,,,,,,,,,,,,,,,,,,,,,,,,,,,,,,,,,,,,,,,,,,,,,,,,,,,,,,,,,1.5618,889.2715097999999,None,None,1,889.2715097999999,None,,P052,fencog,2,Pre,2022_Jun_11_1130,N-Back (New Version 2021),2021.1.4,119.91155323840198,
,,,,Conditions/Version_1/oneback(3)_v1.xlsx,New rule: Press 'space' when you see 1-back (i.e. the same letter as the one that appeared 1 letter ago.),z,None,,,,,,,,,0,11,11,11,0,5,5,5,,,,,,,,,,,,,,,,,,,,,,,,,,,,,,,,,,,,,,,,,,,,,,,,,,,,,,,,,,,,,,,,,,,,,1.3882,892.6670009,None,None,1,892.6670009,None,,P052,fencog,2,Pre,2022_Jun_11_1130,N-Back (New Version 2021),2021.1.4,119.91155323840198,
,,,,Conditions/Version_1/oneback(3)_v1.xlsx,New rule: Press 'space' when you see 1-back (i.e. the same letter as the one that appeared 1 letter ago.),X,None,,,,,,,,,0,11,11,11,0,6,6,6,,,,,,,,,,,,,,,,,,,,,,,,,,,,,,,,,,,,,,,,,,,,,,,,,,,,,,,,,,,,,,,,,,,,,1.4006,896.0732162000004,None,None,1,896.0732162000004,None,,P052,fencog,2,Pre,2022_Jun_11_1130,N-Back (New Version 2021),2021.1.4,119.91155323840198,
,,,,Conditions/Version_1/oneback(3)_v1.xlsx,New rule: Press 'space' when you see 1-back (i.e. the same letter as the one that appeared 1 letter ago.),r,None,,,,,,,,,0,11,11,11,0,7,7,7,,,,,,,,,,,,,,,,,,,,,,,,,,,,,,,,,,,,,,,,,,,,,,,,,,,,,,,,,,,,,,,,,,,,,1.9152,899.9912988000005,None,None,1,899.9912988000005,None,,P052,fencog,2,Pre,2022_Jun_11_1130,N-Back (New Version 2021),2021.1.4,119.91155323840198,
,,,,Conditions/Version_1/oneback(3)_v1.xlsx,New rule: Press 'space' when you see 1-back (i.e. the same letter as the one that appeared 1 letter ago.),r,space,,,,,,,,,0,11,11,11,0,8,8,8,,,,,,,,,,,,,,,,,,,,,,,,,,,,,,,,,,,,,,,,,,,,,,,,,,,,,,,,,,,,,,,,,,,,,1.2518,903.2480424000005,None,space,1,903.2480424000005,None,0.6956415999993624,P052,fencog,2,Pre,2022_Jun_11_1130,N-Back (New Version 2021),2021.1.4,119.91155323840198,
,,,,Conditions/Version_1/oneback(3)_v1.xlsx,New rule: Press 'space' when you see 1-back (i.e. the same letter as the one that appeared 1 letter ago.),P,None,,,,,,,,,0,11,11,11,0,9,9,9,,,,,,,,,,,,,,,,,,,,,,,,,,,,,,,,,,,,,,,,,,,,,,,,,,,,,,,,,,,,,,,,,,,,,1.4254,906.7143612999998,None,None,1,906.7143612999998,None,,P052,fencog,2,Pre,2022_Jun_11_1130,N-Back (New Version 2021),2021.1.4,119.91155323840198,
,,,,Conditions/Version_1/oneback(3)_v1.xlsx,New rule: Press 'space' when you see 1-back (i.e. the same letter as the one that appeared 1 letter ago.),,,,,,,,,,,0,11,11,11,,,,,,,,,,,,,,,,,,,,,,,,,,,,,,,,,,,,,,,,,,,,,,,,,,,,,,,,,,,,,,,,,,,,,,,,,,,,,,,,,P052,fencog,2,Pre,2022_Jun_11_1130,N-Back (New Version 2021),2021.1.4,119.91155323840198,
,,,,Conditions/Version_1/twoback(4)_v1.xlsx,New rule: Press 'space' when you see 2-back (i.e. the same letter as the one that appeared 2 letters ago.),r,None,,,,,,,,,0,12,12,12,0,0,0,0,,,,,,,,,,,,,,,,,,,,,,,,,,,,,,,,,,,,,,,,,,,,,,,,,,,,,,,,,,,908.7090304000003,None,911.6971375000003,None,space,0.6463481000000684,911.6971375000003,None,908.7090304000003,None,1.9896,914.3677950000001,None,None,1,914.3677950000001,None,,P052,fencog,2,Pre,2022_Jun_11_1130,N-Back (New Version 2021),2021.1.4,119.91155323840198,
,,,,Conditions/Version_1/twoback(4)_v1.xlsx,New rule: Press 'space' when you see 2-back (i.e. the same letter as the one that appeared 2 letters ago.),T,None,,,,,,,,,0,12,12,12,0,1,1,1,,,,,,,,,,,,,,,,,,,,,,,,,,,,,,,,,,,,,,,,,,,,,,,,,,,,,,,,,,,,,,,,,,,,,1.4192,917.7927531000005,None,None,1,917.7927531000005,None,,P052,fencog,2,Pre,2022_Jun_11_1130,N-Back (New Version 2021),2021.1.4,119.91155323840198,
,,,,Conditions/Version_1/twoback(4)_v1.xlsx,New rule: Press 'space' when you see 2-back (i.e. the same letter as the one that appeared 2 letters ago.),o,None,,,,,,,,,0,12,12,12,0,2,2,2,,,,,,,,,,,,,,,,,,,,,,,,,,,,,,,,,,,,,,,,,,,,,,,,,,,,,,,,,,,,,,,,,,,,,1.4874,921.2940104999998,None,None,1,921.2940104999998,None,,P052,fencog,2,Pre,2022_Jun_11_1130,N-Back (New Version 2021),2021.1.4,119.91155323840198,
,,,,Conditions/Version_1/twoback(4)_v1.xlsx,New rule: Press 'space' when you see 2-back (i.e. the same letter as the one that appeared 2 letters ago.),p,None,,,,,,,,,0,12,12,12,0,3,3,3,,,,,,,,,,,,,,,,,,,,,,,,,,,,,,,,,,,,,,,,,,,,,,,,,,,,,,,,,,,,,,,,,,,,,1.9214,925.2230092999998,None,None,1,925.2230092999998,None,,P052,fencog,2,Pre,2022_Jun_11_1130,N-Back (New Version 2021),2021.1.4,119.91155323840198,
,,,,Conditions/Version_1/twoback(4)_v1.xlsx,New rule: Press 'space' when you see 2-back (i.e. the same letter as the one that appeared 2 letters ago.),p,None,,,,,,,,,0,12,12,12,0,4,4,4,,,,,,,,,,,,,,,,,,,,,,,,,,,,,,,,,,,,,,,,,,,,,,,,,,,,,,,,,,,,,,,,,,,,,1.6548,928.8895367000005,None,None,1,928.8895367000005,None,,P052,fencog,2,Pre,2022_Jun_11_1130,N-Back (New Version 2021),2021.1.4,119.91155323840198,
,,,,Conditions/Version_1/twoback(4)_v1.xlsx,New rule: Press 'space' when you see 2-back (i.e. the same letter as the one that appeared 2 letters ago.),y,None,,,,,,,,,0,12,12,12,0,5,5,5,,,,,,,,,,,,,,,,,,,,,,,,,,,,,,,,,,,,,,,,,,,,,,,,,,,,,,,,,,,,,,,,,,,,,1.8904,932.7873398000002,None,None,1,932.7873398000002,None,,P052,fencog,2,Pre,2022_Jun_11_1130,N-Back (New Version 2021),2021.1.4,119.91155323840198,
,,,,Conditions/Version_1/twoback(4)_v1.xlsx,New rule: Press 'space' when you see 2-back (i.e. the same letter as the one that appeared 2 letters ago.),P,space,,,,,,,,,0,12,12,12,0,6,6,6,,,,,,,,,,,,,,,,,,,,,,,,,,,,,,,,,,,,,,,,,,,,,,,,,,,,,,,,,,,,,,,,,,,,,1.4936,936.2863613,None,space,1,936.2863613,None,0.617109700000583,P052,fencog,2,Pre,2022_Jun_11_1130,N-Back (New Version 2021),2021.1.4,119.91155323840198,
,,,,Conditions/Version_1/twoback(4)_v1.xlsx,New rule: Press 'space' when you see 2-back (i.e. the same letter as the one that appeared 2 letters ago.),y,None,,,,,,,,,0,12,12,12,0,7,7,7,,,,,,,,,,,,,,,,,,,,,,,,,,,,,,,,,,,,,,,,,,,,,,,,,,,,,,,,,,,,,,,,,,,,,1.7106,940.0061912000001,None,space,0,940.0061912000001,None,0.7213906999995743,P052,fencog,2,Pre,2022_Jun_11_1130,N-Back (New Version 2021),2021.1.4,119.91155323840198,
,,,,Conditions/Version_1/twoback(4)_v1.xlsx,New rule: Press 'space' when you see 2-back (i.e. the same letter as the one that appeared 2 letters ago.),y,space,,,,,,,,,0,12,12,12,0,8,8,8,,,,,,,,,,,,,,,,,,,,,,,,,,,,,,,,,,,,,,,,,,,,,,,,,,,,,,,,,,,,,,,,,,,,,1.0162,943.0263335999998,None,None,0,943.0263335999998,None,,P052,fencog,2,Pre,2022_Jun_11_1130,N-Back (New Version 2021),2021.1.4,119.91155323840198,
,,,,Conditions/Version_1/twoback(4)_v1.xlsx,New rule: Press 'space' when you see 2-back (i.e. the same letter as the one that appeared 2 letters ago.),,,,,,,,,,,0,12,12,12,,,,,,,,,,,,,,,,,,,,,,,,,,,,,,,,,,,,,,,,,,,,,,,,,,,,,,,,,,,,,,,,,,,,,,,,,,,,,,,,,P052,fencog,2,Pre,2022_Jun_11_1130,N-Back (New Version 2021),2021.1.4,119.91155323840198,
,,,,Conditions/Version_1/zeroback(4)_v1.xlsx,New rule: Press 'space' when you see the letter 'x' or 'X'.,o,None,,,,,,,,,0,13,13,13,0,0,0,0,,,,,,,,,,,,,,,,,,,,,,,,,,,,,,,,,,,,,,,,,,,,,,,,,,,,,,,,,,,945.0474317999997,None,948.0358649,None,space,0.6436228000002302,948.0358649,None,945.0474317999997,None,1.7292,950.4405955000002,None,None,1,950.4405955000002,None,,P052,fencog,2,Pre,2022_Jun_11_1130,N-Back (New Version 2021),2021.1.4,119.91155323840198,
,,,,Conditions/Version_1/zeroback(4)_v1.xlsx,New rule: Press 'space' when you see the letter 'x' or 'X'.,X,space,,,,,,,,,0,13,13,13,0,1,1,1,,,,,,,,,,,,,,,,,,,,,,,,,,,,,,,,,,,,,,,,,,,,,,,,,,,,,,,,,,,,,,,,,,,,,1.692,954.1395303999998,None,space,1,954.1395303999998,None,0.939931500000057,P052,fencog,2,Pre,2022_Jun_11_1130,N-Back (New Version 2021),2021.1.4,119.91155323840198,
,,,,Conditions/Version_1/zeroback(4)_v1.xlsx,New rule: Press 'space' when you see the letter 'x' or 'X'.,p,None,,,,,,,,,0,13,13,13,0,2,2,2,,,,,,,,,,,,,,,,,,,,,,,,,,,,,,,,,,,,,,,,,,,,,,,,,,,,,,,,,,,,,,,,,,,,,1.444,957.5883546000005,None,None,1,957.5883546000005,None,,P052,fencog,2,Pre,2022_Jun_11_1130,N-Back (New Version 2021),2021.1.4,119.91155323840198,
,,,,Conditions/Version_1/zeroback(4)_v1.xlsx,New rule: Press 'space' when you see the letter 'x' or 'X'.,m,None,,,,,,,,,0,13,13,13,0,3,3,3,,,,,,,,,,,,,,,,,,,,,,,,,,,,,,,,,,,,,,,,,,,,,,,,,,,,,,,,,,,,,,,,,,,,,1.0844,960.6803446000004,None,None,1,960.6803446000004,None,,P052,fencog,2,Pre,2022_Jun_11_1130,N-Back (New Version 2021),2021.1.4,119.91155323840198,
,,,,Conditions/Version_1/zeroback(4)_v1.xlsx,New rule: Press 'space' when you see the letter 'x' or 'X'.,n,None,,,,,,,,,0,13,13,13,0,4,4,4,,,,,,,,,,,,,,,,,,,,,,,,,,,,,,,,,,,,,,,,,,,,,,,,,,,,,,,,,,,,,,,,,,,,,1.1588,963.8448278000005,None,None,1,963.8448278000005,None,,P052,fencog,2,Pre,2022_Jun_11_1130,N-Back (New Version 2021),2021.1.4,119.91155323840198,
,,,,Conditions/Version_1/zeroback(4)_v1.xlsx,New rule: Press 'space' when you see the letter 'x' or 'X'.,m,None,,,,,,,,,0,13,13,13,0,5,5,5,,,,,,,,,,,,,,,,,,,,,,,,,,,,,,,,,,,,,,,,,,,,,,,,,,,,,,,,,,,,,,,,,,,,,1.289,967.1355363000002,None,None,1,967.1355363000002,None,,P052,fencog,2,Pre,2022_Jun_11_1130,N-Back (New Version 2021),2021.1.4,119.91155323840198,
,,,,Conditions/Version_1/zeroback(4)_v1.xlsx,New rule: Press 'space' when you see the letter 'x' or 'X'.,C,None,,,,,,,,,0,13,13,13,0,6,6,6,,,,,,,,,,,,,,,,,,,,,,,,,,,,,,,,,,,,,,,,,,,,,,,,,,,,,,,,,,,,,,,,,,,,,1.785,970.926066,None,None,1,970.926066,None,,P052,fencog,2,Pre,2022_Jun_11_1130,N-Back (New Version 2021),2021.1.4,119.91155323840198,
,,,,Conditions/Version_1/zeroback(4)_v1.xlsx,New rule: Press 'space' when you see the letter 'x' or 'X'.,m,None,,,,,,,,,0,13,13,13,0,7,7,7,,,,,,,,,,,,,,,,,,,,,,,,,,,,,,,,,,,,,,,,,,,,,,,,,,,,,,,,,,,,,,,,,,,,,1.351,974.2838665999998,None,None,1,974.2838665999998,None,,P052,fencog,2,Pre,2022_Jun_11_1130,N-Back (New Version 2021),2021.1.4,119.91155323840198,
,,,,Conditions/Version_1/zeroback(4)_v1.xlsx,New rule: Press 'space' when you see the letter 'x' or 'X'.,p,None,,,,,,,,,0,13,13,13,0,8,8,8,,,,,,,,,,,,,,,,,,,,,,,,,,,,,,,,,,,,,,,,,,,,,,,,,,,,,,,,,,,,,,,,,,,,,1.63,977.9161188999997,None,None,1,977.9161188999997,None,,P052,fencog,2,Pre,2022_Jun_11_1130,N-Back (New Version 2021),2021.1.4,119.91155323840198,
,,,,Conditions/Version_1/zeroback(4)_v1.xlsx,New rule: Press 'space' when you see the letter 'x' or 'X'.,X,space,,,,,,,,,0,13,13,13,0,9,9,9,,,,,,,,,,,,,,,,,,,,,,,,,,,,,,,,,,,,,,,,,,,,,,,,,,,,,,,,,,,,,,,,,,,,,1.3944,981.3158961999998,None,space,1,981.3158961999998,None,0.8194344000003184,P052,fencog,2,Pre,2022_Jun_11_1130,N-Back (New Version 2021),2021.1.4,119.91155323840198,
,,,,Conditions/Version_1/zeroback(4)_v1.xlsx,New rule: Press 'space' when you see the letter 'x' or 'X'.,,,,,,,,,,,0,13,13,13,,,,,,,,,,,,,,,,,,,,,,,,,,,,,,,,,,,,,,,,,,,,,,,,,,,,,,,,,,,,,,,,,,,,,,,,,,,,,,,,,P052,fencog,2,Pre,2022_Jun_11_1130,N-Back (New Version 2021),2021.1.4,119.91155323840198,
,,,,Conditions/Version_1/oneback(4)_v1.xlsx,New rule: Press 'space' when you see 1-back (i.e. the same letter as the one that appeared 1 letter ago.),w,None,,,,,,,,,0,14,14,14,0,0,0,0,,,,,,,,,,,,,,,,,,,,,,,,,,,,,,,,,,,,,,,,,,,,,,,,,,,,,,,,,,,983.3441118000001,None,986.3319879000001,None,space,2.587439599999925,986.3319879000001,None,983.3441118000001,None,1.5618,990.5120502999998,None,None,1,990.5120502999998,None,,P052,fencog,2,Pre,2022_Jun_11_1130,N-Back (New Version 2021),2021.1.4,119.91155323840198,
,,,,Conditions/Version_1/oneback(4)_v1.xlsx,New rule: Press 'space' when you see 1-back (i.e. the same letter as the one that appeared 1 letter ago.),q,None,,,,,,,,,0,14,14,14,0,1,1,1,,,,,,,,,,,,,,,,,,,,,,,,,,,,,,,,,,,,,,,,,,,,,,,,,,,,,,,,,,,,,,,,,,,,,1.041,993.5539626999998,None,None,1,993.5539626999998,None,,P052,fencog,2,Pre,2022_Jun_11_1130,N-Back (New Version 2021),2021.1.4,119.91155323840198,
,,,,Conditions/Version_1/oneback(4)_v1.xlsx,New rule: Press 'space' when you see 1-back (i.e. the same letter as the one that appeared 1 letter ago.),i,None,,,,,,,,,0,14,14,14,0,2,2,2,,,,,,,,,,,,,,,,,,,,,,,,,,,,,,,,,,,,,,,,,,,,,,,,,,,,,,,,,,,,,,,,,,,,,1.8594,997.4265525999999,None,None,1,997.4265525999999,None,,P052,fencog,2,Pre,2022_Jun_11_1130,N-Back (New Version 2021),2021.1.4,119.91155323840198,
,,,,Conditions/Version_1/oneback(4)_v1.xlsx,New rule: Press 'space' when you see 1-back (i.e. the same letter as the one that appeared 1 letter ago.),t,None,,,,,,,,,0,14,14,14,0,3,3,3,,,,,,,,,,,,,,,,,,,,,,,,,,,,,,,,,,,,,,,,,,,,,,,,,,,,,,,,,,,,,,,,,,,,,1.196,1000.6261605,None,None,1,1000.6261605,None,,P052,fencog,2,Pre,2022_Jun_11_1130,N-Back (New Version 2021),2021.1.4,119.91155323840198,
,,,,Conditions/Version_1/oneback(4)_v1.xlsx,New rule: Press 'space' when you see 1-back (i.e. the same letter as the one that appeared 1 letter ago.),v,None,,,,,,,,,0,14,14,14,0,4,4,4,,,,,,,,,,,,,,,,,,,,,,,,,,,,,,,,,,,,,,,,,,,,,,,,,,,,,,,,,,,,,,,,,,,,,1.1154,1003.7500804000001,None,None,1,1003.7500804000001,None,,P052,fencog,2,Pre,2022_Jun_11_1130,N-Back (New Version 2021),2021.1.4,119.91155323840198,
,,,,Conditions/Version_1/oneback(4)_v1.xlsx,New rule: Press 'space' when you see 1-back (i.e. the same letter as the one that appeared 1 letter ago.),V,space,,,,,,,,,0,14,14,14,0,5,5,5,,,,,,,,,,,,,,,,,,,,,,,,,,,,,,,,,,,,,,,,,,,,,,,,,,,,,,,,,,,,,,,,,,,,,1.9152,1007.6764241000001,None,space,1,1007.6764241000001,None,0.8350316000005478,P052,fencog,2,Pre,2022_Jun_11_1130,N-Back (New Version 2021),2021.1.4,119.91155323840198,
,,,,Conditions/Version_1/oneback(4)_v1.xlsx,New rule: Press 'space' when you see 1-back (i.e. the same letter as the one that appeared 1 letter ago.),v,space,,,,,,,,,0,14,14,14,0,6,6,6,,,,,,,,,,,,,,,,,,,,,,,,,,,,,,,,,,,,,,,,,,,,,,,,,,,,,,,,,,,,,,,,,,,,,1.3076,1010.9895175000001,None,space,1,1010.9895175000001,None,1.026022600000033,P052,fencog,2,Pre,2022_Jun_11_1130,N-Back (New Version 2021),2021.1.4,119.91155323840198,
,,,,Conditions/Version_1/oneback(4)_v1.xlsx,New rule: Press 'space' when you see 1-back (i.e. the same letter as the one that appeared 1 letter ago.),p,None,,,,,,,,,0,14,14,14,0,7,7,7,,,,,,,,,,,,,,,,,,,,,,,,,,,,,,,,,,,,,,,,,,,,,,,,,,,,,,,,,,,,,,,,,,,,,1.0968,1014.0924900999998,None,None,1,1014.0924900999998,None,,P052,fencog,2,Pre,2022_Jun_11_1130,N-Back (New Version 2021),2021.1.4,119.91155323840198,
,,,,Conditions/Version_1/oneback(4)_v1.xlsx,New rule: Press 'space' when you see 1-back (i.e. the same letter as the one that appeared 1 letter ago.),w,None,,,,,,,,,0,14,14,14,0,8,8,8,,,,,,,,,,,,,,,,,,,,,,,,,,,,,,,,,,,,,,,,,,,,,,,,,,,,,,,,,,,,,,,,,,,,,1.0658,1017.1633270000002,None,None,1,1017.1633270000002,None,,P052,fencog,2,Pre,2022_Jun_11_1130,N-Back (New Version 2021),2021.1.4,119.91155323840198,
,,,,Conditions/Version_1/oneback(4)_v1.xlsx,New rule: Press 'space' when you see 1-back (i.e. the same letter as the one that appeared 1 letter ago.),W,space,,,,,,,,,0,14,14,14,0,9,9,9,,,,,,,,,,,,,,,,,,,,,,,,,,,,,,,,,,,,,,,,,,,,,,,,,,,,,,,,,,,,,,,,,,,,,1.8098,1020.9788858000002,None,space,1,1020.9788858000002,None,0.6287270999991961,P052,fencog,2,Pre,2022_Jun_11_1130,N-Back (New Version 2021),2021.1.4,119.91155323840198,
,,,,Conditions/Version_1/oneback(4)_v1.xlsx,New rule: Press 'space' when you see 1-back (i.e. the same letter as the one that appeared 1 letter ago.),,,,,,,,,,,0,14,14,14,,,,,,,,,,,,,,,,,,,,,,,,,,,,,,,,,,,,,,,,,,,,,,,,,,,,,,,,,,,,,,,,,,,,,,,,,,,,,,,,,P052,fencog,2,Pre,2022_Jun_11_1130,N-Back (New Version 2021),2021.1.4,119.91155323840198,
,,,,Conditions/Version_1/threeback(4)_v1.xlsx,New rule: Press 'space' when you see 3-back (i.e. the same letter as the one that appeared 3 letters ago.),A,None,,,,,,,,,0,15,15,15,0,0,0,0,,,,,,,,,,,,,,,,,,,,,,,,,,,,,,,,,,,,,,,,,,,,,,,,,,,,,,,,,,,1023.0086651000001,None,1025.9951081999998,None,space,1.6601893000006385,1025.9951081999998,None,1023.0086651000001,None,1.6052,1029.2953769000005,None,None,1,1029.2953769000005,None,,P052,fencog,2,Pre,2022_Jun_11_1130,N-Back (New Version 2021),2021.1.4,119.91155323840198,
,,,,Conditions/Version_1/threeback(4)_v1.xlsx,New rule: Press 'space' when you see 3-back (i.e. the same letter as the one that appeared 3 letters ago.),n,None,,,,,,,,,0,15,15,15,0,1,1,1,,,,,,,,,,,,,,,,,,,,,,,,,,,,,,,,,,,,,,,,,,,,,,,,,,,,,,,,,,,,,,,,,,,,,1.2022,1032.5132116000004,None,None,1,1032.5132116000004,None,,P052,fencog,2,Pre,2022_Jun_11_1130,N-Back (New Version 2021),2021.1.4,119.91155323840198,
,,,,Conditions/Version_1/threeback(4)_v1.xlsx,New rule: Press 'space' when you see 3-back (i.e. the same letter as the one that appeared 3 letters ago.),g,None,,,,,,,,,0,15,15,15,0,2,2,2,,,,,,,,,,,,,,,,,,,,,,,,,,,,,,,,,,,,,,,,,,,,,,,,,,,,,,,,,,,,,,,,,,,,,1.7602,1036.2817807000001,None,None,1,1036.2817807000001,None,,P052,fencog,2,Pre,2022_Jun_11_1130,N-Back (New Version 2021),2021.1.4,119.91155323840198,
,,,,Conditions/Version_1/threeback(4)_v1.xlsx,New rule: Press 'space' when you see 3-back (i.e. the same letter as the one that appeared 3 letters ago.),A,space,,,,,,,,,0,15,15,15,0,3,3,3,,,,,,,,,,,,,,,,,,,,,,,,,,,,,,,,,,,,,,,,,,,,,,,,,,,,,,,,,,,,,,,,,,,,,1.599,1039.8812156000004,None,space,1,1039.8812156000004,None,0.8860506999999416,P052,fencog,2,Pre,2022_Jun_11_1130,N-Back (New Version 2021),2021.1.4,119.91155323840198,
,,,,Conditions/Version_1/threeback(4)_v1.xlsx,New rule: Press 'space' when you see 3-back (i.e. the same letter as the one that appeared 3 letters ago.),p,None,,,,,,,,,0,15,15,15,0,4,4,4,,,,,,,,,,,,,,,,,,,,,,,,,,,,,,,,,,,,,,,,,,,,,,,,,,,,,,,,,,,,,,,,,,,,,1.785,1043.6740162000006,None,None,1,1043.6740162000006,None,,P052,fencog,2,Pre,2022_Jun_11_1130,N-Back (New Version 2021),2021.1.4,119.91155323840198,
,,,,Conditions/Version_1/threeback(4)_v1.xlsx,New rule: Press 'space' when you see 3-back (i.e. the same letter as the one that appeared 3 letters ago.),O,None,,,,,,,,,0,15,15,15,0,5,5,5,,,,,,,,,,,,,,,,,,,,,,,,,,,,,,,,,,,,,,,,,,,,,,,,,,,,,,,,,,,,,,,,,,,,,1.2766,1046.9620525999999,None,None,1,1046.9620525999999,None,,P052,fencog,2,Pre,2022_Jun_11_1130,N-Back (New Version 2021),2021.1.4,119.91155323840198,
,,,,Conditions/Version_1/threeback(4)_v1.xlsx,New rule: Press 'space' when you see 3-back (i.e. the same letter as the one that appeared 3 letters ago.),a,space,,,,,,,,,0,15,15,15,0,6,6,6,,,,,,,,,,,,,,,,,,,,,,,,,,,,,,,,,,,,,,,,,,,,,,,,,,,,,,,,,,,,,,,,,,,,,1.5928,1050.5607596999998,None,space,1,1050.5607596999998,None,0.7504324000001361,P052,fencog,2,Pre,2022_Jun_11_1130,N-Back (New Version 2021),2021.1.4,119.91155323840198,
,,,,Conditions/Version_1/threeback(4)_v1.xlsx,New rule: Press 'space' when you see 3-back (i.e. the same letter as the one that appeared 3 letters ago.),p,space,,,,,,,,,0,15,15,15,0,7,7,7,,,,,,,,,,,,,,,,,,,,,,,,,,,,,,,,,,,,,,,,,,,,,,,,,,,,,,,,,,,,,,,,,,,,,1.227,1053.7952928000004,None,space,1,1053.7952928000004,None,0.6680323000000499,P052,fencog,2,Pre,2022_Jun_11_1130,N-Back (New Version 2021),2021.1.4,119.91155323840198,
,,,,Conditions/Version_1/threeback(4)_v1.xlsx,New rule: Press 'space' when you see 3-back (i.e. the same letter as the one that appeared 3 letters ago.),x,None,,,,,,,,,0,15,15,15,0,8,8,8,,,,,,,,,,,,,,,,,,,,,,,,,,,,,,,,,,,,,,,,,,,,,,,,,,,,,,,,,,,,,,,,,,,,,1.568,1057.3798475000003,None,None,1,1057.3798475000003,None,,P052,fencog,2,Pre,2022_Jun_11_1130,N-Back (New Version 2021),2021.1.4,119.91155323840198,
,,,,Conditions/Version_1/threeback(4)_v1.xlsx,New rule: Press 'space' when you see 3-back (i.e. the same letter as the one that appeared 3 letters ago.),X,None,,,,,,,,,0,15,15,15,0,9,9,9,,,,,,,,,,,,,,,,,,,,,,,,,,,,,,,,,,,,,,,,,,,,,,,,,,,,,,,,,,,,,,,,,,,,,1.5432,1060.9347048999998,None,None,1,1060.9347048999998,None,,P052,fencog,2,Pre,2022_Jun_11_1130,N-Back (New Version 2021),2021.1.4,119.91155323840198,
,,,,Conditions/Version_1/threeback(4)_v1.xlsx,New rule: Press 'space' when you see 3-back (i.e. the same letter as the one that appeared 3 letters ago.),,,,,,,,,,,0,15,15,15,,,,,,,,,,,,,,,,,,,,,,,,,,,,,,,,,,,,,,,,,,,,,,,,,,,,,,,,,,,,,,,,,,,,,,,,,,,,,,,,,P052,fencog,2,Pre,2022_Jun_11_1130,N-Back (New Version 2021),2021.1.4,119.91155323840198,
