CondFileP,InstructionsP,LettersDisplayedP,CorrectnessP,CondFile,Instructions,LettersDisplayed,Correctness,practicetrials.thisRepN,practicetrials.thisTrialN,practicetrials.thisN,practicetrials.thisIndex,InnerLoopPractice.thisRepN,InnerLoopPractice.thisTrialN,InnerLoopPractice.thisN,InnerLoopPractice.thisIndex,trials.thisRepN,trials.thisTrialN,trials.thisN,trials.thisIndex,InnerLoop.thisRepN,InnerLoop.thisTrialN,InnerLoop.thisN,InnerLoop.thisIndex,TaskVersionText.started,TaskVersionText.stopped,InstrKey1.keys,InstrKey1.rt,InstrKey1.started,InstrKey1.stopped,text.started,text.stopped,key_resp_4.keys,key_resp_4.rt,key_resp_4.started,key_resp_4.stopped,text_2.started,text_2.stopped,key_resp_3.keys,key_resp_3.rt,key_resp_3.started,key_resp_3.stopped,text_3.started,text_3.stopped,key_resp_2.keys,key_resp_2.rt,key_resp_2.started,key_resp_2.stopped,PractIn1.started,PractIn1.stopped,PractIn2.started,PractIn2.stopped,PractInstructionPass.keys,PractInstructionPass.rt,PractInstructionPass.started,PractInstructionPass.stopped,PractBlock1.started,PractBlock1.stopped,ISIjitterPractice,ISI_Pract_Fixation.started,ISI_Pract_Fixation.stopped,N_backP.started,N_backP.stopped,KeyPractice.keys,KeyPractice.corr,KeyPractice.started,KeyPractice.stopped,text_4.started,text_4.stopped,KeyPractice.rt,TransitionText.started,TransitionText.stopped,key_resp_6.keys,key_resp_6.rt,key_resp_6.started,key_resp_6.stopped,text_5.started,text_5.stopped,key_resp_5.keys,key_resp_5.rt,key_resp_5.started,key_resp_5.stopped,MainInt1.started,MainInt1.stopped,MainInt2.started,MainInt2.stopped,InstructionPass.keys,InstructionPass.rt,InstructionPass.started,InstructionPass.stopped,Blocks1.started,Blocks1.stopped,ISIjitter,N_backD.started,N_backD.stopped,key_resp.keys,key_resp.corr,key_resp.started,key_resp.stopped,key_resp.rt,participant,Study Name,Task Version (required to run),PRE/POST,date,expName,psychopyVersion,frameRate
,,,,,,,,,,,,,,,,,,,,,,,,34.1013802,None,space,5.2977669,34.5949107,None,,,,,,,,,,,,,,,,,,,,,,,,,,,,,,,,,,,,,,,,,,,,,,,,,,,,,,,,,,,,,,,,,,,,,,,P052,fencog,1,Post,2022_Jun_18_1144,N-Back (New Version 2021),2021.1.4,120.7484471
,,,,,,,,,,,,,,,,,,,,,,,,,,,,,,39.922447,None,space,1.4100641,40.4186868,None,,,,,,,,,,,,,,,,,,,,,,,,,,,,,,,,,,,,,,,,,,,,,,,,,,,,,,,,,,,,,,,,,P052,fencog,1,Post,2022_Jun_18_1144,N-Back (New Version 2021),2021.1.4,120.7484471
,,,,,,,,,,,,,,,,,,,,,,,,,,,,,,,,,,,,41.8674438,None,space,2.7891657,42.3600219,None,,,,,,,,,,,,,,,,,,,,,,,,,,,,,,,,,,,,,,,,,,,,,,,,,,,,,,,,,,,P052,fencog,1,Post,2022_Jun_18_1144,N-Back (New Version 2021),2021.1.4,120.7484471
,,,,,,,,,,,,,,,,,,,,,,,,,,,,,,,,,,,,,,,,,,45.189553,None,space,1.7450278,45.6754877,None,,,,,,,,,,,,,,,,,,,,,,,,,,,,,,,,,,,,,,,,,,,,,,,,,,,,,P052,fencog,1,Post,2022_Jun_18_1144,N-Back (New Version 2021),2021.1.4,120.7484471
Conditions/Version_1Pr/zeroback(1)_v1.xlsx,Rule: Press 'space' when you see the letter 'x' or 'X'.,Z,None,,,,,0,0,0,0,0,0,0,0,,,,,,,,,,,,,,,,,,,,,,,,,,,,,,,,,48.8068386,None,51.7912768,None,space,1.1814206,51.7912768,None,48.8068386,None,1.99,53.0096222,None,55.0106139,None,None,1,55.0106139,None,57.0153388,None,,,,,,,,,,,,,,,,,,,,,,,,,,,,,,,,P052,fencog,1,Post,2022_Jun_18_1144,N-Back (New Version 2021),2021.1.4,120.7484471
Conditions/Version_1Pr/zeroback(1)_v1.xlsx,Rule: Press 'space' when you see the letter 'x' or 'X'.,r,None,,,,,0,0,0,0,0,1,1,1,,,,,,,,,,,,,,,,,,,,,,,,,,,,,,,,,,,,,,,,,,,2.015,58.5122469,None,60.5303296,None,None,1,60.5303296,None,62.5297433,None,,,,,,,,,,,,,,,,,,,,,,,,,,,,,,,,P052,fencog,1,Post,2022_Jun_18_1144,N-Back (New Version 2021),2021.1.4,120.7484471
Conditions/Version_1Pr/zeroback(1)_v1.xlsx,Rule: Press 'space' when you see the letter 'x' or 'X'.,X,space,,,,,0,0,0,0,0,2,2,2,,,,,,,,,,,,,,,,,,,,,,,,,,,,,,,,,,,,,,,,,,,1.84,64.0359991,None,65.8807151,None,space,1,65.8807151,None,66.5118505,None,0.6198988,,,,,,,,,,,,,,,,,,,,,,,,,,,,,,,P052,fencog,1,Post,2022_Jun_18_1144,N-Back (New Version 2021),2021.1.4,120.7484471
Conditions/Version_1Pr/zeroback(1)_v1.xlsx,Rule: Press 'space' when you see the letter 'x' or 'X'.,p,None,,,,,0,0,0,0,0,3,3,3,,,,,,,,,,,,,,,,,,,,,,,,,,,,,,,,,,,,,,,,,,,1.19,68.0181191,None,69.2115076,None,None,1,69.2115076,None,71.217025,None,,,,,,,,,,,,,,,,,,,,,,,,,,,,,,,,P052,fencog,1,Post,2022_Jun_18_1144,N-Back (New Version 2021),2021.1.4,120.7484471
Conditions/Version_1Pr/zeroback(1)_v1.xlsx,Rule: Press 'space' when you see the letter 'x' or 'X'.,w,None,,,,,0,0,0,0,0,4,4,4,,,,,,,,,,,,,,,,,,,,,,,,,,,,,,,,,,,,,,,,,,,1.065,72.7167599,None,73.7847526,None,None,1,73.7847526,None,75.7908397,None,,,,,,,,,,,,,,,,,,,,,,,,,,,,,,,,P052,fencog,1,Post,2022_Jun_18_1144,N-Back (New Version 2021),2021.1.4,120.7484471
Conditions/Version_1Pr/zeroback(1)_v1.xlsx,Rule: Press 'space' when you see the letter 'x' or 'X'.,e,None,,,,,0,0,0,0,0,5,5,5,,,,,,,,,,,,,,,,,,,,,,,,,,,,,,,,,,,,,,,,,,,1.215,77.2901838,None,78.5082576,None,None,1,78.5082576,None,80.5144813,None,,,,,,,,,,,,,,,,,,,,,,,,,,,,,,,,P052,fencog,1,Post,2022_Jun_18_1144,N-Back (New Version 2021),2021.1.4,120.7484471
Conditions/Version_1Pr/zeroback(1)_v1.xlsx,Rule: Press 'space' when you see the letter 'x' or 'X'.,X,space,,,,,0,0,0,0,0,6,6,6,,,,,,,,,,,,,,,,,,,,,,,,,,,,,,,,,,,,,,,,,,,1.94,82.0140181,None,83.9559756,None,space,1,83.9559756,None,84.6480745,None,0.6805687,,,,,,,,,,,,,,,,,,,,,,,,,,,,,,,P052,fencog,1,Post,2022_Jun_18_1144,N-Back (New Version 2021),2021.1.4,120.7484471
Conditions/Version_1Pr/zeroback(1)_v1.xlsx,Rule: Press 'space' when you see the letter 'x' or 'X'.,x,space,,,,,0,0,0,0,0,7,7,7,,,,,,,,,,,,,,,,,,,,,,,,,,,,,,,,,,,,,,,,,,,1.765,86.1541984,None,87.9222484,None,space,1,87.9222484,None,88.4470894,None,0.5143985,,,,,,,,,,,,,,,,,,,,,,,,,,,,,,,P052,fencog,1,Post,2022_Jun_18_1144,N-Back (New Version 2021),2021.1.4,120.7484471
Conditions/Version_1Pr/zeroback(1)_v1.xlsx,Rule: Press 'space' when you see the letter 'x' or 'X'.,p,None,,,,,0,0,0,0,0,8,8,8,,,,,,,,,,,,,,,,,,,,,,,,,,,,,,,,,,,,,,,,,,,1.54,89.9531124,None,91.4968186,None,None,1,91.4968186,None,93.5023194,None,,,,,,,,,,,,,,,,,,,,,,,,,,,,,,,,P052,fencog,1,Post,2022_Jun_18_1144,N-Back (New Version 2021),2021.1.4,120.7484471
Conditions/Version_1Pr/zeroback(1)_v1.xlsx,Rule: Press 'space' when you see the letter 'x' or 'X'.,r,None,,,,,0,0,0,0,0,9,9,9,,,,,,,,,,,,,,,,,,,,,,,,,,,,,,,,,,,,,,,,,,,1.74,95.0019534,None,96.7437114,None,None,1,96.7437114,None,98.7507321,None,,,,,,,,,,,,,,,,,,,,,,,,,,,,,,,,P052,fencog,1,Post,2022_Jun_18_1144,N-Back (New Version 2021),2021.1.4,120.7484471
Conditions/Version_1Pr/zeroback(1)_v1.xlsx,Rule: Press 'space' when you see the letter 'x' or 'X'.,,,,,,,0,0,0,0,,,,,,,,,,,,,,,,,,,,,,,,,,,,,,,,,,,,,,,,,,,,,,,,,,,,,,,,,,,,,,,,,,,,,,,,,,,,,,,,,,,,,,,,,P052,fencog,1,Post,2022_Jun_18_1144,N-Back (New Version 2021),2021.1.4,120.7484471
Conditions/Version_1Pr/oneback(1)_v1.xlsx,New rule: Press 'space' when you see 1-back (i.e. the same letter as the one that appeared 1 letter ago.),a,None,,,,,0,1,1,1,0,0,0,0,,,,,,,,,,,,,,,,,,,,,,,,,,,,,,,,,100.2727962,None,103.259275,None,space,1.7453729,103.259275,None,100.2727962,None,1.115,105.0371635,None,106.1592242,None,None,1,106.1592242,None,108.1645908,None,,,,,,,,,,,,,,,,,,,,,,,,,,,,,,,,P052,fencog,1,Post,2022_Jun_18_1144,N-Back (New Version 2021),2021.1.4,120.7484471
Conditions/Version_1Pr/oneback(1)_v1.xlsx,New rule: Press 'space' when you see 1-back (i.e. the same letter as the one that appeared 1 letter ago.),x,None,,,,,0,1,1,1,0,1,1,1,,,,,,,,,,,,,,,,,,,,,,,,,,,,,,,,,,,,,,,,,,,1.565,109.6640516,None,111.2312425,None,None,1,111.2312425,None,113.2380353,None,,,,,,,,,,,,,,,,,,,,,,,,,,,,,,,,P052,fencog,1,Post,2022_Jun_18_1144,N-Back (New Version 2021),2021.1.4,120.7484471
Conditions/Version_1Pr/oneback(1)_v1.xlsx,New rule: Press 'space' when you see 1-back (i.e. the same letter as the one that appeared 1 letter ago.),g,None,,,,,0,1,1,1,0,2,2,2,,,,,,,,,,,,,,,,,,,,,,,,,,,,,,,,,,,,,,,,,,,1.69,114.7375937,None,116.4305671,None,None,1,116.4305671,None,118.4366442,None,,,,,,,,,,,,,,,,,,,,,,,,,,,,,,,,P052,fencog,1,Post,2022_Jun_18_1144,N-Back (New Version 2021),2021.1.4,120.7484471
Conditions/Version_1Pr/oneback(1)_v1.xlsx,New rule: Press 'space' when you see 1-back (i.e. the same letter as the one that appeared 1 letter ago.),G,space,,,,,0,1,1,1,0,3,3,3,,,,,,,,,,,,,,,,,,,,,,,,,,,,,,,,,,,,,,,,,,,1.64,119.936184,None,121.5801609,None,space,1,121.5801609,None,121.9869271,None,0.3923668,,,,,,,,,,,,,,,,,,,,,,,,,,,,,,,P052,fencog,1,Post,2022_Jun_18_1144,N-Back (New Version 2021),2021.1.4,120.7484471
Conditions/Version_1Pr/oneback(1)_v1.xlsx,New rule: Press 'space' when you see 1-back (i.e. the same letter as the one that appeared 1 letter ago.),u,None,,,,,0,1,1,1,0,4,4,4,,,,,,,,,,,,,,,,,,,,,,,,,,,,,,,,,,,,,,,,,,,1.34,123.4930642,None,124.8364395,None,None,1,124.8364395,None,126.8424543,None,,,,,,,,,,,,,,,,,,,,,,,,,,,,,,,,P052,fencog,1,Post,2022_Jun_18_1144,N-Back (New Version 2021),2021.1.4,120.7484471
Conditions/Version_1Pr/oneback(1)_v1.xlsx,New rule: Press 'space' when you see 1-back (i.e. the same letter as the one that appeared 1 letter ago.),y,None,,,,,0,1,1,1,0,5,5,5,,,,,,,,,,,,,,,,,,,,,,,,,,,,,,,,,,,,,,,,,,,1.715,128.3422622,None,130.0597366,None,None,1,130.0597366,None,132.0659109,None,,,,,,,,,,,,,,,,,,,,,,,,,,,,,,,,P052,fencog,1,Post,2022_Jun_18_1144,N-Back (New Version 2021),2021.1.4,120.7484471
Conditions/Version_1Pr/oneback(1)_v1.xlsx,New rule: Press 'space' when you see 1-back (i.e. the same letter as the one that appeared 1 letter ago.),y,space,,,,,0,1,1,1,0,6,6,6,,,,,,,,,,,,,,,,,,,,,,,,,,,,,,,,,,,,,,,,,,,1.465,133.5654682,None,135.0316822,None,space,1,135.0316822,None,135.758042,None,0.7167428,,,,,,,,,,,,,,,,,,,,,,,,,,,,,,,P052,fencog,1,Post,2022_Jun_18_1144,N-Back (New Version 2021),2021.1.4,120.7484471
Conditions/Version_1Pr/oneback(1)_v1.xlsx,New rule: Press 'space' when you see 1-back (i.e. the same letter as the one that appeared 1 letter ago.),k,None,,,,,0,1,1,1,0,7,7,7,,,,,,,,,,,,,,,,,,,,,,,,,,,,,,,,,,,,,,,,,,,1.44,137.2643319,None,138.7083175,None,None,1,138.7083175,None,140.7133945,None,,,,,,,,,,,,,,,,,,,,,,,,,,,,,,,,P052,fencog,1,Post,2022_Jun_18_1144,N-Back (New Version 2021),2021.1.4,120.7484471
Conditions/Version_1Pr/oneback(1)_v1.xlsx,New rule: Press 'space' when you see 1-back (i.e. the same letter as the one that appeared 1 letter ago.),c,None,,,,,0,1,1,1,0,8,8,8,,,,,,,,,,,,,,,,,,,,,,,,,,,,,,,,,,,,,,,,,,,1.04,142.2128927,None,143.2626379,None,None,1,143.2626379,None,145.2620337,None,,,,,,,,,,,,,,,,,,,,,,,,,,,,,,,,P052,fencog,1,Post,2022_Jun_18_1144,N-Back (New Version 2021),2021.1.4,120.7484471
Conditions/Version_1Pr/oneback(1)_v1.xlsx,New rule: Press 'space' when you see 1-back (i.e. the same letter as the one that appeared 1 letter ago.),r,None,,,,,0,1,1,1,0,9,9,9,,,,,,,,,,,,,,,,,,,,,,,,,,,,,,,,,,,,,,,,,,,1.315,146.7616615,None,148.0775844,None,None,1,148.0775844,None,150.0771298,None,,,,,,,,,,,,,,,,,,,,,,,,,,,,,,,,P052,fencog,1,Post,2022_Jun_18_1144,N-Back (New Version 2021),2021.1.4,120.7484471
Conditions/Version_1Pr/oneback(1)_v1.xlsx,New rule: Press 'space' when you see 1-back (i.e. the same letter as the one that appeared 1 letter ago.),,,,,,,0,1,1,1,,,,,,,,,,,,,,,,,,,,,,,,,,,,,,,,,,,,,,,,,,,,,,,,,,,,,,,,,,,,,,,,,,,,,,,,,,,,,,,,,,,,,,,,,P052,fencog,1,Post,2022_Jun_18_1144,N-Back (New Version 2021),2021.1.4,120.7484471
Conditions/Version_1Pr/twoback(1)_v1.xlsx,New rule: Press 'space' when you see 2-back (i.e. the same letter as the one that appeared 2 letters ago.),E,None,,,,,0,2,2,2,0,0,0,0,,,,,,,,,,,,,,,,,,,,,,,,,,,,,,,,,151.6041006,None,154.5864475,None,space,1.090174,154.5864475,None,151.6041006,None,1.965,155.7067797,None,157.6772509,None,None,1,157.6772509,None,159.6828315,None,,,,,,,,,,,,,,,,,,,,,,,,,,,,,,,,P052,fencog,1,Post,2022_Jun_18_1144,N-Back (New Version 2021),2021.1.4,120.7484471
Conditions/Version_1Pr/twoback(1)_v1.xlsx,New rule: Press 'space' when you see 2-back (i.e. the same letter as the one that appeared 2 letters ago.),p,None,,,,,0,2,2,2,0,1,1,1,,,,,,,,,,,,,,,,,,,,,,,,,,,,,,,,,,,,,,,,,,,1.265,161.1822557,None,162.4490282,None,None,1,162.4490282,None,164.4563084,None,,,,,,,,,,,,,,,,,,,,,,,,,,,,,,,,P052,fencog,1,Post,2022_Jun_18_1144,N-Back (New Version 2021),2021.1.4,120.7484471
Conditions/Version_1Pr/twoback(1)_v1.xlsx,New rule: Press 'space' when you see 2-back (i.e. the same letter as the one that appeared 2 letters ago.),e,space,,,,,0,2,2,2,0,2,2,2,,,,,,,,,,,,,,,,,,,,,,,,,,,,,,,,,,,,,,,,,,,1.915,165.9557912,None,167.8728365,None,space,1,167.8728365,None,168.6731734,None,0.7877836,,,,,,,,,,,,,,,,,,,,,,,,,,,,,,,P052,fencog,1,Post,2022_Jun_18_1144,N-Back (New Version 2021),2021.1.4,120.7484471
Conditions/Version_1Pr/twoback(1)_v1.xlsx,New rule: Press 'space' when you see 2-back (i.e. the same letter as the one that appeared 2 letters ago.),s,None,,,,,0,2,2,2,0,3,3,3,,,,,,,,,,,,,,,,,,,,,,,,,,,,,,,,,,,,,,,,,,,1.69,170.1794382,None,171.8734565,None,None,1,171.8734565,None,173.8785723,None,,,,,,,,,,,,,,,,,,,,,,,,,,,,,,,,P052,fencog,1,Post,2022_Jun_18_1144,N-Back (New Version 2021),2021.1.4,120.7484471
Conditions/Version_1Pr/twoback(1)_v1.xlsx,New rule: Press 'space' when you see 2-back (i.e. the same letter as the one that appeared 2 letters ago.),S,None,,,,,0,2,2,2,0,4,4,4,,,,,,,,,,,,,,,,,,,,,,,,,,,,,,,,,,,,,,,,,,,1.39,175.3776818,None,176.7716839,None,None,1,176.7716839,None,178.7826385,None,,,,,,,,,,,,,,,,,,,,,,,,,,,,,,,,P052,fencog,1,Post,2022_Jun_18_1144,N-Back (New Version 2021),2021.1.4,120.7484471
Conditions/Version_1Pr/twoback(1)_v1.xlsx,New rule: Press 'space' when you see 2-back (i.e. the same letter as the one that appeared 2 letters ago.),s,space,,,,,0,2,2,2,0,5,5,5,,,,,,,,,,,,,,,,,,,,,,,,,,,,,,,,,,,,,,,,,,,1.24,180.2762391,None,181.5186172,None,space,1,181.5186172,None,182.4098674,None,0.8777596,,,,,,,,,,,,,,,,,,,,,,,,,,,,,,,P052,fencog,1,Post,2022_Jun_18_1144,N-Back (New Version 2021),2021.1.4,120.7484471
Conditions/Version_1Pr/twoback(1)_v1.xlsx,New rule: Press 'space' when you see 2-back (i.e. the same letter as the one that appeared 2 letters ago.),P,None,,,,,0,2,2,2,0,6,6,6,,,,,,,,,,,,,,,,,,,,,,,,,,,,,,,,,,,,,,,,,,,1.79,183.9088813,None,185.7015566,None,None,1,185.7015566,None,187.7079136,None,,,,,,,,,,,,,,,,,,,,,,,,,,,,,,,,P052,fencog,1,Post,2022_Jun_18_1144,N-Back (New Version 2021),2021.1.4,120.7484471
Conditions/Version_1Pr/twoback(1)_v1.xlsx,New rule: Press 'space' when you see 2-back (i.e. the same letter as the one that appeared 2 letters ago.),C,None,,,,,0,2,2,2,0,7,7,7,,,,,,,,,,,,,,,,,,,,,,,,,,,,,,,,,,,,,,,,,,,1.415,189.2073218,None,190.6271849,None,None,1,190.6271849,None,192.6312745,None,,,,,,,,,,,,,,,,,,,,,,,,,,,,,,,,P052,fencog,1,Post,2022_Jun_18_1144,N-Back (New Version 2021),2021.1.4,120.7484471
Conditions/Version_1Pr/twoback(1)_v1.xlsx,New rule: Press 'space' when you see 2-back (i.e. the same letter as the one that appeared 2 letters ago.),x,None,,,,,0,2,2,2,0,8,8,8,,,,,,,,,,,,,,,,,,,,,,,,,,,,,,,,,,,,,,,,,,,1.165,194.1308986,None,195.2981827,None,None,1,195.2981827,None,197.3049614,None,,,,,,,,,,,,,,,,,,,,,,,,,,,,,,,,P052,fencog,1,Post,2022_Jun_18_1144,N-Back (New Version 2021),2021.1.4,120.7484471
Conditions/Version_1Pr/twoback(1)_v1.xlsx,New rule: Press 'space' when you see 2-back (i.e. the same letter as the one that appeared 2 letters ago.),Z,None,,,,,0,2,2,2,0,9,9,9,,,,,,,,,,,,,,,,,,,,,,,,,,,,,,,,,,,,,,,,,,,1.065,198.8044506,None,199.8710004,None,None,1,199.8710004,None,201.8700333,None,,,,,,,,,,,,,,,,,,,,,,,,,,,,,,,,P052,fencog,1,Post,2022_Jun_18_1144,N-Back (New Version 2021),2021.1.4,120.7484471
Conditions/Version_1Pr/twoback(1)_v1.xlsx,New rule: Press 'space' when you see 2-back (i.e. the same letter as the one that appeared 2 letters ago.),,,,,,,0,2,2,2,,,,,,,,,,,,,,,,,,,,,,,,,,,,,,,,,,,,,,,,,,,,,,,,,,,,,,,,,,,,,,,,,,,,,,,,,,,,,,,,,,,,,,,,,P052,fencog,1,Post,2022_Jun_18_1144,N-Back (New Version 2021),2021.1.4,120.7484471
Conditions/Version_1Pr/threeback(1)_v1.xlsx,New rule: Press 'space' when you see 3-back (i.e. the same letter as the one that appeared 3 letters ago.),r,None,,,,,0,3,3,3,0,0,0,0,,,,,,,,,,,,,,,,,,,,,,,,,,,,,,,,,203.3964902,None,206.3792916,None,space,2.4890346,206.3792916,None,203.3964902,None,1.34,208.8991837,None,210.2427862,None,None,1,210.2427862,None,212.2420288,None,,,,,,,,,,,,,,,,,,,,,,,,,,,,,,,,P052,fencog,1,Post,2022_Jun_18_1144,N-Back (New Version 2021),2021.1.4,120.7484471
Conditions/Version_1Pr/threeback(1)_v1.xlsx,New rule: Press 'space' when you see 3-back (i.e. the same letter as the one that appeared 3 letters ago.),a,None,,,,,0,3,3,3,0,1,1,1,,,,,,,,,,,,,,,,,,,,,,,,,,,,,,,,,,,,,,,,,,,1.315,213.7417098,None,215.0590851,None,None,1,215.0590851,None,217.0657192,None,,,,,,,,,,,,,,,,,,,,,,,,,,,,,,,,P052,fencog,1,Post,2022_Jun_18_1144,N-Back (New Version 2021),2021.1.4,120.7484471
Conditions/Version_1Pr/threeback(1)_v1.xlsx,New rule: Press 'space' when you see 3-back (i.e. the same letter as the one that appeared 3 letters ago.),t,None,,,,,0,3,3,3,0,2,2,2,,,,,,,,,,,,,,,,,,,,,,,,,,,,,,,,,,,,,,,,,,,1.74,218.5651297,None,220.3081667,None,None,1,220.3081667,None,222.3142362,None,,,,,,,,,,,,,,,,,,,,,,,,,,,,,,,,P052,fencog,1,Post,2022_Jun_18_1144,N-Back (New Version 2021),2021.1.4,120.7484471
Conditions/Version_1Pr/threeback(1)_v1.xlsx,New rule: Press 'space' when you see 3-back (i.e. the same letter as the one that appeared 3 letters ago.),r,space,,,,,0,3,3,3,0,3,3,3,,,,,,,,,,,,,,,,,,,,,,,,,,,,,,,,,,,,,,,,,,,1.59,223.814433,None,225.4060077,None,space,1,225.4060077,None,225.8981731,None,0.4783558,,,,,,,,,,,,,,,,,,,,,,,,,,,,,,,P052,fencog,1,Post,2022_Jun_18_1144,N-Back (New Version 2021),2021.1.4,120.7484471
Conditions/Version_1Pr/threeback(1)_v1.xlsx,New rule: Press 'space' when you see 3-back (i.e. the same letter as the one that appeared 3 letters ago.),a,None,,,,,0,3,3,3,0,4,4,4,,,,,,,,,,,,,,,,,,,,,,,,,,,,,,,,,,,,,,,,,,,1.865,227.4043313,None,229.2703446,None,space,0,229.2703446,None,230.4173619,None,1.1341672,,,,,,,,,,,,,,,,,,,,,,,,,,,,,,,P052,fencog,1,Post,2022_Jun_18_1144,N-Back (New Version 2021),2021.1.4,120.7484471
Conditions/Version_1Pr/threeback(1)_v1.xlsx,New rule: Press 'space' when you see 3-back (i.e. the same letter as the one that appeared 3 letters ago.),Y,None,,,,,0,3,3,3,0,5,5,5,,,,,,,,,,,,,,,,,,,,,,,,,,,,,,,,,,,,,,,,,,,1.815,231.9195046,None,233.7390064,None,None,1,233.7390064,None,235.7431816,None,,,,,,,,,,,,,,,,,,,,,,,,,,,,,,,,P052,fencog,1,Post,2022_Jun_18_1144,N-Back (New Version 2021),2021.1.4,120.7484471
Conditions/Version_1Pr/threeback(1)_v1.xlsx,New rule: Press 'space' when you see 3-back (i.e. the same letter as the one that appeared 3 letters ago.),q,None,,,,,0,3,3,3,0,6,6,6,,,,,,,,,,,,,,,,,,,,,,,,,,,,,,,,,,,,,,,,,,,1.465,237.2430305,None,238.7096325,None,None,1,238.7096325,None,240.7167054,None,,,,,,,,,,,,,,,,,,,,,,,,,,,,,,,,P052,fencog,1,Post,2022_Jun_18_1144,N-Back (New Version 2021),2021.1.4,120.7484471
Conditions/Version_1Pr/threeback(1)_v1.xlsx,New rule: Press 'space' when you see 3-back (i.e. the same letter as the one that appeared 3 letters ago.),A,space,,,,,0,3,3,3,0,7,7,7,,,,,,,,,,,,,,,,,,,,,,,,,,,,,,,,,,,,,,,,,,,1.965,242.2166494,None,244.1870703,None,None,0,244.1870703,None,246.1959756,None,,,,,,,,,,,,,,,,,,,,,,,,,,,,,,,,P052,fencog,1,Post,2022_Jun_18_1144,N-Back (New Version 2021),2021.1.4,120.7484471
Conditions/Version_1Pr/threeback(1)_v1.xlsx,New rule: Press 'space' when you see 3-back (i.e. the same letter as the one that appeared 3 letters ago.),y,None,,,,,0,3,3,3,0,8,8,8,,,,,,,,,,,,,,,,,,,,,,,,,,,,,,,,,,,,,,,,,,,1.515,247.6898676,None,249.2060402,None,space,0,249.2060402,None,250.041964,None,0.8146097,,,,,,,,,,,,,,,,,,,,,,,,,,,,,,,P052,fencog,1,Post,2022_Jun_18_1144,N-Back (New Version 2021),2021.1.4,120.7484471
Conditions/Version_1Pr/threeback(1)_v1.xlsx,New rule: Press 'space' when you see 3-back (i.e. the same letter as the one that appeared 3 letters ago.),r,None,,,,,0,3,3,3,0,9,9,9,,,,,,,,,,,,,,,,,,,,,,,,,,,,,,,,,,,,,,,,,,,1.94,251.5472758,None,253.4893891,None,space,0,253.4893891,None,254.4634754,None,0.9632407,,,,,,,,,,,,,,,,,,,,,,,,,,,,,,,P052,fencog,1,Post,2022_Jun_18_1144,N-Back (New Version 2021),2021.1.4,120.7484471
Conditions/Version_1Pr/threeback(1)_v1.xlsx,New rule: Press 'space' when you see 3-back (i.e. the same letter as the one that appeared 3 letters ago.),,,,,,,0,3,3,3,,,,,,,,,,,,,,,,,,,,,,,,,,,,,,,,,,,,,,,,,,,,,,,,,,,,,,,,,,,,,,,,,,,,,,,,,,,,,,,,,,,,,,,,,P052,fencog,1,Post,2022_Jun_18_1144,N-Back (New Version 2021),2021.1.4,120.7484471
,,,,,,,,,,,,,,,,,,,,,,,,,,,,,,,,,,,,,,,,,,,,,,,,,,,,,,,,,,,,,,,,,,,,,,255.9710951,None,space,4.7977415,256.4627058,None,,,,,,,,,,,,,,,,,,,,,,,,,P052,fencog,1,Post,2022_Jun_18_1144,N-Back (New Version 2021),2021.1.4,120.7484471
,,,,,,,,,,,,,,,,,,,,,,,,,,,,,,,,,,,,,,,,,,,,,,,,,,,,,,,,,,,,,,,,,,,,,,,,,,,,261.2841474,None,space,1.1622961,261.7780978,None,,,,,,,,,,,,,,,,,,,P052,fencog,1,Post,2022_Jun_18_1144,N-Back (New Version 2021),2021.1.4,120.7484471
,,,,Conditions/Version_1/zeroback(1)_v1.xlsx,Rule: Press 'space' when you see the letter 'x' or 'X'.,b,None,,,,,,,,,0,0,0,0,0,0,0,0,,,,,,,,,,,,,,,,,,,,,,,,,,,,,,,,,,,,,,,,,,,,,,,,,,,,,,,,,,,263.0540228,None,266.0449098,None,space,0.3275239,266.0449098,None,263.0540228,None,1.3324,267.7438463,None,None,1,267.7438463,None,,P052,fencog,1,Post,2022_Jun_18_1144,N-Back (New Version 2021),2021.1.4,120.7484471
,,,,Conditions/Version_1/zeroback(1)_v1.xlsx,Rule: Press 'space' when you see the letter 'x' or 'X'.,T,None,,,,,,,,,0,0,0,0,0,1,1,1,,,,,,,,,,,,,,,,,,,,,,,,,,,,,,,,,,,,,,,,,,,,,,,,,,,,,,,,,,,,,,,,,,,,,1.4998,271.2500121,None,None,1,271.2500121,None,,P052,fencog,1,Post,2022_Jun_18_1144,N-Back (New Version 2021),2021.1.4,120.7484471
,,,,Conditions/Version_1/zeroback(1)_v1.xlsx,Rule: Press 'space' when you see the letter 'x' or 'X'.,L,None,,,,,,,,,0,0,0,0,0,2,2,2,,,,,,,,,,,,,,,,,,,,,,,,,,,,,,,,,,,,,,,,,,,,,,,,,,,,,,,,,,,,,,,,,,,,,1.8966,275.1501204,None,None,1,275.1501204,None,,P052,fencog,1,Post,2022_Jun_18_1144,N-Back (New Version 2021),2021.1.4,120.7484471
,,,,Conditions/Version_1/zeroback(1)_v1.xlsx,Rule: Press 'space' when you see the letter 'x' or 'X'.,x,space,,,,,,,,,0,0,0,0,0,3,3,3,,,,,,,,,,,,,,,,,,,,,,,,,,,,,,,,,,,,,,,,,,,,,,,,,,,,,,,,,,,,,,,,,,,,,1.5866,278.7472897,None,space,1,278.7472897,None,0.3290142,P052,fencog,1,Post,2022_Jun_18_1144,N-Back (New Version 2021),2021.1.4,120.7484471
,,,,Conditions/Version_1/zeroback(1)_v1.xlsx,Rule: Press 'space' when you see the letter 'x' or 'X'.,o,None,,,,,,,,,0,0,0,0,0,4,4,4,,,,,,,,,,,,,,,,,,,,,,,,,,,,,,,,,,,,,,,,,,,,,,,,,,,,,,,,,,,,,,,,,,,,,1.7912,282.5388487,None,None,1,282.5388487,None,,P052,fencog,1,Post,2022_Jun_18_1144,N-Back (New Version 2021),2021.1.4,120.7484471
,,,,Conditions/Version_1/zeroback(1)_v1.xlsx,Rule: Press 'space' when you see the letter 'x' or 'X'.,P,None,,,,,,,,,0,0,0,0,0,5,5,5,,,,,,,,,,,,,,,,,,,,,,,,,,,,,,,,,,,,,,,,,,,,,,,,,,,,,,,,,,,,,,,,,,,,,1.599,286.1467314,None,None,1,286.1467314,None,,P052,fencog,1,Post,2022_Jun_18_1144,N-Back (New Version 2021),2021.1.4,120.7484471
,,,,Conditions/Version_1/zeroback(1)_v1.xlsx,Rule: Press 'space' when you see the letter 'x' or 'X'.,X,space,,,,,,,,,0,0,0,0,0,6,6,6,,,,,,,,,,,,,,,,,,,,,,,,,,,,,,,,,,,,,,,,,,,,,,,,,,,,,,,,,,,,,,,,,,,,,1.5494,289.7026084,None,space,1,289.7026084,None,0.4218215,P052,fencog,1,Post,2022_Jun_18_1144,N-Back (New Version 2021),2021.1.4,120.7484471
,,,,Conditions/Version_1/zeroback(1)_v1.xlsx,Rule: Press 'space' when you see the letter 'x' or 'X'.,n,None,,,,,,,,,0,0,0,0,0,7,7,7,,,,,,,,,,,,,,,,,,,,,,,,,,,,,,,,,,,,,,,,,,,,,,,,,,,,,,,,,,,,,,,,,,,,,1.7354,293.4448148,None,None,1,293.4448148,None,,P052,fencog,1,Post,2022_Jun_18_1144,N-Back (New Version 2021),2021.1.4,120.7484471
,,,,Conditions/Version_1/zeroback(1)_v1.xlsx,Rule: Press 'space' when you see the letter 'x' or 'X'.,M,None,,,,,,,,,0,0,0,0,0,8,8,8,,,,,,,,,,,,,,,,,,,,,,,,,,,,,,,,,,,,,,,,,,,,,,,,,,,,,,,,,,,,,,,,,,,,,1.1712,296.6270034,None,None,1,296.6270034,None,,P052,fencog,1,Post,2022_Jun_18_1144,N-Back (New Version 2021),2021.1.4,120.7484471
,,,,Conditions/Version_1/zeroback(1)_v1.xlsx,Rule: Press 'space' when you see the letter 'x' or 'X'.,a,None,,,,,,,,,0,0,0,0,0,9,9,9,,,,,,,,,,,,,,,,,,,,,,,,,,,,,,,,,,,,,,,,,,,,,,,,,,,,,,,,,,,,,,,,,,,,,1.909,300.5503384,None,None,1,300.5503384,None,,P052,fencog,1,Post,2022_Jun_18_1144,N-Back (New Version 2021),2021.1.4,120.7484471
,,,,Conditions/Version_1/zeroback(1)_v1.xlsx,Rule: Press 'space' when you see the letter 'x' or 'X'.,,,,,,,,,,,0,0,0,0,,,,,,,,,,,,,,,,,,,,,,,,,,,,,,,,,,,,,,,,,,,,,,,,,,,,,,,,,,,,,,,,,,,,,,,,,,,,,,,,,P052,fencog,1,Post,2022_Jun_18_1144,N-Back (New Version 2021),2021.1.4,120.7484471
,,,,Conditions/Version_1/oneback(1)_v1.xlsx,New rule: Press 'space' when you see 1-back (i.e. the same letter as the one that appeared 1 letter ago.),b,None,,,,,,,,,0,1,1,1,0,0,0,0,,,,,,,,,,,,,,,,,,,,,,,,,,,,,,,,,,,,,,,,,,,,,,,,,,,,,,,,,,,302.5798481,None,305.566249,None,space,0.3660587,305.566249,None,302.5798481,None,1.1402,307.1114557,None,None,1,307.1114557,None,,P052,fencog,1,Post,2022_Jun_18_1144,N-Back (New Version 2021),2021.1.4,120.7484471
,,,,Conditions/Version_1/oneback(1)_v1.xlsx,New rule: Press 'space' when you see 1-back (i.e. the same letter as the one that appeared 1 letter ago.),p,None,,,,,,,,,0,1,1,1,0,1,1,1,,,,,,,,,,,,,,,,,,,,,,,,,,,,,,,,,,,,,,,,,,,,,,,,,,,,,,,,,,,,,,,,,,,,,1.3324,310.4462717,None,None,1,310.4462717,None,,P052,fencog,1,Post,2022_Jun_18_1144,N-Back (New Version 2021),2021.1.4,120.7484471
,,,,Conditions/Version_1/oneback(1)_v1.xlsx,New rule: Press 'space' when you see 1-back (i.e. the same letter as the one that appeared 1 letter ago.),M,None,,,,,,,,,0,1,1,1,0,2,2,2,,,,,,,,,,,,,,,,,,,,,,,,,,,,,,,,,,,,,,,,,,,,,,,,,,,,,,,,,,,,,,,,,,,,,1.382,313.8286077,None,None,1,313.8286077,None,,P052,fencog,1,Post,2022_Jun_18_1144,N-Back (New Version 2021),2021.1.4,120.7484471
,,,,Conditions/Version_1/oneback(1)_v1.xlsx,New rule: Press 'space' when you see 1-back (i.e. the same letter as the one that appeared 1 letter ago.),M,space,,,,,,,,,0,1,1,1,0,3,3,3,,,,,,,,,,,,,,,,,,,,,,,,,,,,,,,,,,,,,,,,,,,,,,,,,,,,,,,,,,,,,,,,,,,,,1.0968,316.9360405,None,space,1,316.9360405,None,0.5963849,P052,fencog,1,Post,2022_Jun_18_1144,N-Back (New Version 2021),2021.1.4,120.7484471
,,,,Conditions/Version_1/oneback(1)_v1.xlsx,New rule: Press 'space' when you see 1-back (i.e. the same letter as the one that appeared 1 letter ago.),n,None,,,,,,,,,0,1,1,1,0,4,4,4,,,,,,,,,,,,,,,,,,,,,,,,,,,,,,,,,,,,,,,,,,,,,,,,,,,,,,,,,,,,,,,,,,,,,1.6982,320.6369709,None,None,1,320.6369709,None,,P052,fencog,1,Post,2022_Jun_18_1144,N-Back (New Version 2021),2021.1.4,120.7484471
,,,,Conditions/Version_1/oneback(1)_v1.xlsx,New rule: Press 'space' when you see 1-back (i.e. the same letter as the one that appeared 1 letter ago.),g,None,,,,,,,,,0,1,1,1,0,5,5,5,,,,,,,,,,,,,,,,,,,,,,,,,,,,,,,,,,,,,,,,,,,,,,,,,,,,,,,,,,,,,,,,,,,,,1.1216,323.7685337,None,None,1,323.7685337,None,,P052,fencog,1,Post,2022_Jun_18_1144,N-Back (New Version 2021),2021.1.4,120.7484471
,,,,Conditions/Version_1/oneback(1)_v1.xlsx,New rule: Press 'space' when you see 1-back (i.e. the same letter as the one that appeared 1 letter ago.),P,None,,,,,,,,,0,1,1,1,0,6,6,6,,,,,,,,,,,,,,,,,,,,,,,,,,,,,,,,,,,,,,,,,,,,,,,,,,,,,,,,,,,,,,,,,,,,,1.0224,326.8006628,None,None,1,326.8006628,None,,P052,fencog,1,Post,2022_Jun_18_1144,N-Back (New Version 2021),2021.1.4,120.7484471
,,,,Conditions/Version_1/oneback(1)_v1.xlsx,New rule: Press 'space' when you see 1-back (i.e. the same letter as the one that appeared 1 letter ago.),o,None,,,,,,,,,0,1,1,1,0,7,7,7,,,,,,,,,,,,,,,,,,,,,,,,,,,,,,,,,,,,,,,,,,,,,,,,,,,,,,,,,,,,,,,,,,,,,1.3696,330.181979,None,None,1,330.181979,None,,P052,fencog,1,Post,2022_Jun_18_1144,N-Back (New Version 2021),2021.1.4,120.7484471
,,,,Conditions/Version_1/oneback(1)_v1.xlsx,New rule: Press 'space' when you see 1-back (i.e. the same letter as the one that appeared 1 letter ago.),f,None,,,,,,,,,0,1,1,1,0,8,8,8,,,,,,,,,,,,,,,,,,,,,,,,,,,,,,,,,,,,,,,,,,,,,,,,,,,,,,,,,,,,,,,,,,,,,1.1278,333.3153879,None,None,1,333.3153879,None,,P052,fencog,1,Post,2022_Jun_18_1144,N-Back (New Version 2021),2021.1.4,120.7484471
,,,,Conditions/Version_1/oneback(1)_v1.xlsx,New rule: Press 'space' when you see 1-back (i.e. the same letter as the one that appeared 1 letter ago.),F,space,,,,,,,,,0,1,1,1,0,9,9,9,,,,,,,,,,,,,,,,,,,,,,,,,,,,,,,,,,,,,,,,,,,,,,,,,,,,,,,,,,,,,,,,,,,,,1.537,336.8650649,None,space,1,336.8650649,None,0.5313435,P052,fencog,1,Post,2022_Jun_18_1144,N-Back (New Version 2021),2021.1.4,120.7484471
,,,,Conditions/Version_1/oneback(1)_v1.xlsx,New rule: Press 'space' when you see 1-back (i.e. the same letter as the one that appeared 1 letter ago.),,,,,,,,,,,0,1,1,1,,,,,,,,,,,,,,,,,,,,,,,,,,,,,,,,,,,,,,,,,,,,,,,,,,,,,,,,,,,,,,,,,,,,,,,,,,,,,,,,,P052,fencog,1,Post,2022_Jun_18_1144,N-Back (New Version 2021),2021.1.4,120.7484471
,,,,Conditions/Version_1/twoback(1)_v1.xlsx,New rule: Press 'space' when you see 2-back (i.e. the same letter as the one that appeared 2 letters ago.),b,None,,,,,,,,,0,2,2,2,0,0,0,0,,,,,,,,,,,,,,,,,,,,,,,,,,,,,,,,,,,,,,,,,,,,,,,,,,,,,,,,,,,338.8920734,None,341.8809229,None,space,3.9474188,341.8809229,None,338.8920734,None,1.2456,347.1030242,None,None,1,347.1030242,None,,P052,fencog,1,Post,2022_Jun_18_1144,N-Back (New Version 2021),2021.1.4,120.7484471
,,,,Conditions/Version_1/twoback(1)_v1.xlsx,New rule: Press 'space' when you see 2-back (i.e. the same letter as the one that appeared 2 letters ago.),h,None,,,,,,,,,0,2,2,2,0,1,1,1,,,,,,,,,,,,,,,,,,,,,,,,,,,,,,,,,,,,,,,,,,,,,,,,,,,,,,,,,,,,,,,,,,,,,1.4254,350.5354099,None,None,1,350.5354099,None,,P052,fencog,1,Post,2022_Jun_18_1144,N-Back (New Version 2021),2021.1.4,120.7484471
,,,,Conditions/Version_1/twoback(1)_v1.xlsx,New rule: Press 'space' when you see 2-back (i.e. the same letter as the one that appeared 2 letters ago.),j,None,,,,,,,,,0,2,2,2,0,2,2,2,,,,,,,,,,,,,,,,,,,,,,,,,,,,,,,,,,,,,,,,,,,,,,,,,,,,,,,,,,,,,,,,,,,,,1.2704,353.8191121,None,None,1,353.8191121,None,,P052,fencog,1,Post,2022_Jun_18_1144,N-Back (New Version 2021),2021.1.4,120.7484471
,,,,Conditions/Version_1/twoback(1)_v1.xlsx,New rule: Press 'space' when you see 2-back (i.e. the same letter as the one that appeared 2 letters ago.),H,space,,,,,,,,,0,2,2,2,0,3,3,3,,,,,,,,,,,,,,,,,,,,,,,,,,,,,,,,,,,,,,,,,,,,,,,,,,,,,,,,,,,,,,,,,,,,,1.01,356.8445496,None,space,1,356.8445496,None,0.8395881,P052,fencog,1,Post,2022_Jun_18_1144,N-Back (New Version 2021),2021.1.4,120.7484471
,,,,Conditions/Version_1/twoback(1)_v1.xlsx,New rule: Press 'space' when you see 2-back (i.e. the same letter as the one that appeared 2 letters ago.),p,None,,,,,,,,,0,2,2,2,0,4,4,4,,,,,,,,,,,,,,,,,,,,,,,,,,,,,,,,,,,,,,,,,,,,,,,,,,,,,,,,,,,,,,,,,,,,,1.3944,360.2502768,None,None,1,360.2502768,None,,P052,fencog,1,Post,2022_Jun_18_1144,N-Back (New Version 2021),2021.1.4,120.7484471
,,,,Conditions/Version_1/twoback(1)_v1.xlsx,New rule: Press 'space' when you see 2-back (i.e. the same letter as the one that appeared 2 letters ago.),p,None,,,,,,,,,0,2,2,2,0,5,5,5,,,,,,,,,,,,,,,,,,,,,,,,,,,,,,,,,,,,,,,,,,,,,,,,,,,,,,,,,,,,,,,,,,,,,1.7726,364.0306499,None,None,1,364.0306499,None,,P052,fencog,1,Post,2022_Jun_18_1144,N-Back (New Version 2021),2021.1.4,120.7484471
,,,,Conditions/Version_1/twoback(1)_v1.xlsx,New rule: Press 'space' when you see 2-back (i.e. the same letter as the one that appeared 2 letters ago.),w,None,,,,,,,,,0,2,2,2,0,6,6,6,,,,,,,,,,,,,,,,,,,,,,,,,,,,,,,,,,,,,,,,,,,,,,,,,,,,,,,,,,,,,,,,,,,,,1.9338,367.9720871,None,None,1,367.9720871,None,,P052,fencog,1,Post,2022_Jun_18_1144,N-Back (New Version 2021),2021.1.4,120.7484471
,,,,Conditions/Version_1/twoback(1)_v1.xlsx,New rule: Press 'space' when you see 2-back (i.e. the same letter as the one that appeared 2 letters ago.),R,None,,,,,,,,,0,2,2,2,0,7,7,7,,,,,,,,,,,,,,,,,,,,,,,,,,,,,,,,,,,,,,,,,,,,,,,,,,,,,,,,,,,,,,,,,,,,,1.1588,371.1455126,None,None,1,371.1455126,None,,P052,fencog,1,Post,2022_Jun_18_1144,N-Back (New Version 2021),2021.1.4,120.7484471
,,,,Conditions/Version_1/twoback(1)_v1.xlsx,New rule: Press 'space' when you see 2-back (i.e. the same letter as the one that appeared 2 letters ago.),a,None,,,,,,,,,0,2,2,2,0,8,8,8,,,,,,,,,,,,,,,,,,,,,,,,,,,,,,,,,,,,,,,,,,,,,,,,,,,,,,,,,,,,,,,,,,,,,1.8842,375.0357625,None,None,1,375.0357625,None,,P052,fencog,1,Post,2022_Jun_18_1144,N-Back (New Version 2021),2021.1.4,120.7484471
,,,,Conditions/Version_1/twoback(1)_v1.xlsx,New rule: Press 'space' when you see 2-back (i.e. the same letter as the one that appeared 2 letters ago.),r,space,,,,,,,,,0,2,2,2,0,9,9,9,,,,,,,,,,,,,,,,,,,,,,,,,,,,,,,,,,,,,,,,,,,,,,,,,,,,,,,,,,,,,,,,,,,,,1.8098,378.8511796,None,space,1,378.8511796,None,0.6975722,P052,fencog,1,Post,2022_Jun_18_1144,N-Back (New Version 2021),2021.1.4,120.7484471
,,,,Conditions/Version_1/twoback(1)_v1.xlsx,New rule: Press 'space' when you see 2-back (i.e. the same letter as the one that appeared 2 letters ago.),,,,,,,,,,,0,2,2,2,,,,,,,,,,,,,,,,,,,,,,,,,,,,,,,,,,,,,,,,,,,,,,,,,,,,,,,,,,,,,,,,,,,,,,,,,,,,,,,,,P052,fencog,1,Post,2022_Jun_18_1144,N-Back (New Version 2021),2021.1.4,120.7484471
,,,,Conditions/Version_1/threeback(1)_v1.xlsx,New rule: Press 'space' when you see 3-back (i.e. the same letter as the one that appeared 3 letters ago.),r,None,,,,,,,,,0,3,3,3,0,0,0,0,,,,,,,,,,,,,,,,,,,,,,,,,,,,,,,,,,,,,,,,,,,,,,,,,,,,,,,,,,,380.8729343,None,383.8602625,None,space,0.3840072,383.8602625,None,380.8729343,None,1.0534,385.332463,None,None,1,385.332463,None,,P052,fencog,1,Post,2022_Jun_18_1144,N-Back (New Version 2021),2021.1.4,120.7484471
,,,,Conditions/Version_1/threeback(1)_v1.xlsx,New rule: Press 'space' when you see 3-back (i.e. the same letter as the one that appeared 3 letters ago.),o,None,,,,,,,,,0,3,3,3,0,1,1,1,,,,,,,,,,,,,,,,,,,,,,,,,,,,,,,,,,,,,,,,,,,,,,,,,,,,,,,,,,,,,,,,,,,,,1.8718,389.2065722,None,None,1,389.2065722,None,,P052,fencog,1,Post,2022_Jun_18_1144,N-Back (New Version 2021),2021.1.4,120.7484471
,,,,Conditions/Version_1/threeback(1)_v1.xlsx,New rule: Press 'space' when you see 3-back (i.e. the same letter as the one that appeared 3 letters ago.),P,None,,,,,,,,,0,3,3,3,0,2,2,2,,,,,,,,,,,,,,,,,,,,,,,,,,,,,,,,,,,,,,,,,,,,,,,,,,,,,,,,,,,,,,,,,,,,,1.878,393.0904338,None,None,1,393.0904338,None,,P052,fencog,1,Post,2022_Jun_18_1144,N-Back (New Version 2021),2021.1.4,120.7484471
,,,,Conditions/Version_1/threeback(1)_v1.xlsx,New rule: Press 'space' when you see 3-back (i.e. the same letter as the one that appeared 3 letters ago.),R,space,,,,,,,,,0,3,3,3,0,3,3,3,,,,,,,,,,,,,,,,,,,,,,,,,,,,,,,,,,,,,,,,,,,,,,,,,,,,,,,,,,,,,,,,,,,,,1.4874,396.5874654,None,space,1,396.5874654,None,1.1690205,P052,fencog,1,Post,2022_Jun_18_1144,N-Back (New Version 2021),2021.1.4,120.7484471
,,,,Conditions/Version_1/threeback(1)_v1.xlsx,New rule: Press 'space' when you see 3-back (i.e. the same letter as the one that appeared 3 letters ago.),p,None,,,,,,,,,0,3,3,3,0,4,4,4,,,,,,,,,,,,,,,,,,,,,,,,,,,,,,,,,,,,,,,,,,,,,,,,,,,,,,,,,,,,,,,,,,,,,1.2394,399.8292931,None,None,1,399.8292931,None,,P052,fencog,1,Post,2022_Jun_18_1144,N-Back (New Version 2021),2021.1.4,120.7484471
,,,,Conditions/Version_1/threeback(1)_v1.xlsx,New rule: Press 'space' when you see 3-back (i.e. the same letter as the one that appeared 3 letters ago.),E,None,,,,,,,,,0,3,3,3,0,5,5,5,,,,,,,,,,,,,,,,,,,,,,,,,,,,,,,,,,,,,,,,,,,,,,,,,,,,,,,,,,,,,,,,,,,,,1.0224,402.8607233,None,None,1,402.8607233,None,,P052,fencog,1,Post,2022_Jun_18_1144,N-Back (New Version 2021),2021.1.4,120.7484471
,,,,Conditions/Version_1/threeback(1)_v1.xlsx,New rule: Press 'space' when you see 3-back (i.e. the same letter as the one that appeared 3 letters ago.),e,None,,,,,,,,,0,3,3,3,0,6,6,6,,,,,,,,,,,,,,,,,,,,,,,,,,,,,,,,,,,,,,,,,,,,,,,,,,,,,,,,,,,,,,,,,,,,,1.1278,405.9938816,None,None,1,405.9938816,None,,P052,fencog,1,Post,2022_Jun_18_1144,N-Back (New Version 2021),2021.1.4,120.7484471
,,,,Conditions/Version_1/threeback(1)_v1.xlsx,New rule: Press 'space' when you see 3-back (i.e. the same letter as the one that appeared 3 letters ago.),m,None,,,,,,,,,0,3,3,3,0,7,7,7,,,,,,,,,,,,,,,,,,,,,,,,,,,,,,,,,,,,,,,,,,,,,,,,,,,,,,,,,,,,,,,,,,,,,1.041,409.0444595,None,None,1,409.0444595,None,,P052,fencog,1,Post,2022_Jun_18_1144,N-Back (New Version 2021),2021.1.4,120.7484471
,,,,Conditions/Version_1/threeback(1)_v1.xlsx,New rule: Press 'space' when you see 3-back (i.e. the same letter as the one that appeared 3 letters ago.),n,None,,,,,,,,,0,3,3,3,0,8,8,8,,,,,,,,,,,,,,,,,,,,,,,,,,,,,,,,,,,,,,,,,,,,,,,,,,,,,,,,,,,,,,,,,,,,,1.0472,412.1041823,None,None,1,412.1041823,None,,P052,fencog,1,Post,2022_Jun_18_1144,N-Back (New Version 2021),2021.1.4,120.7484471
,,,,Conditions/Version_1/threeback(1)_v1.xlsx,New rule: Press 'space' when you see 3-back (i.e. the same letter as the one that appeared 3 letters ago.),e,space,,,,,,,,,0,3,3,3,0,9,9,9,,,,,,,,,,,,,,,,,,,,,,,,,,,,,,,,,,,,,,,,,,,,,,,,,,,,,,,,,,,,,,,,,,,,,1.6114,415.7245754,None,space,1,415.7245754,None,0.7996488,P052,fencog,1,Post,2022_Jun_18_1144,N-Back (New Version 2021),2021.1.4,120.7484471
,,,,Conditions/Version_1/threeback(1)_v1.xlsx,New rule: Press 'space' when you see 3-back (i.e. the same letter as the one that appeared 3 letters ago.),,,,,,,,,,,0,3,3,3,,,,,,,,,,,,,,,,,,,,,,,,,,,,,,,,,,,,,,,,,,,,,,,,,,,,,,,,,,,,,,,,,,,,,,,,,,,,,,,,,P052,fencog,1,Post,2022_Jun_18_1144,N-Back (New Version 2021),2021.1.4,120.7484471
,,,,Conditions/Version_1/oneback(2)_v1.xlsx,New rule: Press 'space' when you see 1-back (i.e. the same letter as the one that appeared 1 letter ago.),q,None,,,,,,,,,0,4,4,4,0,0,0,0,,,,,,,,,,,,,,,,,,,,,,,,,,,,,,,,,,,,,,,,,,,,,,,,,,,,,,,,,,,417.7544336,None,420.7405527,None,space,0.2719058,420.7405527,None,417.7544336,None,1.1836,422.2297173,None,None,1,422.2297173,None,,P052,fencog,1,Post,2022_Jun_18_1144,N-Back (New Version 2021),2021.1.4,120.7484471
,,,,Conditions/Version_1/oneback(2)_v1.xlsx,New rule: Press 'space' when you see 1-back (i.e. the same letter as the one that appeared 1 letter ago.),Q,space,,,,,,,,,0,4,4,4,0,1,1,1,,,,,,,,,,,,,,,,,,,,,,,,,,,,,,,,,,,,,,,,,,,,,,,,,,,,,,,,,,,,,,,,,,,,,1.9648,426.197963,None,space,1,426.197963,None,0.8224808,P052,fencog,1,Post,2022_Jun_18_1144,N-Back (New Version 2021),2021.1.4,120.7484471
,,,,Conditions/Version_1/oneback(2)_v1.xlsx,New rule: Press 'space' when you see 1-back (i.e. the same letter as the one that appeared 1 letter ago.),P,None,,,,,,,,,0,4,4,4,0,2,2,2,,,,,,,,,,,,,,,,,,,,,,,,,,,,,,,,,,,,,,,,,,,,,,,,,,,,,,,,,,,,,,,,,,,,,1.8718,430.077604,None,None,1,430.077604,None,,P052,fencog,1,Post,2022_Jun_18_1144,N-Back (New Version 2021),2021.1.4,120.7484471
,,,,Conditions/Version_1/oneback(2)_v1.xlsx,New rule: Press 'space' when you see 1-back (i.e. the same letter as the one that appeared 1 letter ago.),o,None,,,,,,,,,0,4,4,4,0,3,3,3,,,,,,,,,,,,,,,,,,,,,,,,,,,,,,,,,,,,,,,,,,,,,,,,,,,,,,,,,,,,,,,,,,,,,1.8098,433.8931342,None,None,1,433.8931342,None,,P052,fencog,1,Post,2022_Jun_18_1144,N-Back (New Version 2021),2021.1.4,120.7484471
,,,,Conditions/Version_1/oneback(2)_v1.xlsx,New rule: Press 'space' when you see 1-back (i.e. the same letter as the one that appeared 1 letter ago.),m,None,,,,,,,,,0,4,4,4,0,4,4,4,,,,,,,,,,,,,,,,,,,,,,,,,,,,,,,,,,,,,,,,,,,,,,,,,,,,,,,,,,,,,,,,,,,,,1.7912,437.6836435,None,None,1,437.6836435,None,,P052,fencog,1,Post,2022_Jun_18_1144,N-Back (New Version 2021),2021.1.4,120.7484471
,,,,Conditions/Version_1/oneback(2)_v1.xlsx,New rule: Press 'space' when you see 1-back (i.e. the same letter as the one that appeared 1 letter ago.),Z,None,,,,,,,,,0,4,4,4,0,5,5,5,,,,,,,,,,,,,,,,,,,,,,,,,,,,,,,,,,,,,,,,,,,,,,,,,,,,,,,,,,,,,,,,,,,,,1.0782,440.7674725,None,None,1,440.7674725,None,,P052,fencog,1,Post,2022_Jun_18_1144,N-Back (New Version 2021),2021.1.4,120.7484471
,,,,Conditions/Version_1/oneback(2)_v1.xlsx,New rule: Press 'space' when you see 1-back (i.e. the same letter as the one that appeared 1 letter ago.),c,None,,,,,,,,,0,4,4,4,0,6,6,6,,,,,,,,,,,,,,,,,,,,,,,,,,,,,,,,,,,,,,,,,,,,,,,,,,,,,,,,,,,,,,,,,,,,,1.413,444.1901226,None,None,1,444.1901226,None,,P052,fencog,1,Post,2022_Jun_18_1144,N-Back (New Version 2021),2021.1.4,120.7484471
,,,,Conditions/Version_1/oneback(2)_v1.xlsx,New rule: Press 'space' when you see 1-back (i.e. the same letter as the one that appeared 1 letter ago.),c,space,,,,,,,,,0,4,4,4,0,7,7,7,,,,,,,,,,,,,,,,,,,,,,,,,,,,,,,,,,,,,,,,,,,,,,,,,,,,,,,,,,,,,,,,,,,,,1.382,447.5726619,None,space,1,447.5726619,None,0.8076713,P052,fencog,1,Post,2022_Jun_18_1144,N-Back (New Version 2021),2021.1.4,120.7484471
,,,,Conditions/Version_1/oneback(2)_v1.xlsx,New rule: Press 'space' when you see 1-back (i.e. the same letter as the one that appeared 1 letter ago.),P,None,,,,,,,,,0,4,4,4,0,8,8,8,,,,,,,,,,,,,,,,,,,,,,,,,,,,,,,,,,,,,,,,,,,,,,,,,,,,,,,,,,,,,,,,,,,,,1.7974,451.3824037,None,None,1,451.3824037,None,,P052,fencog,1,Post,2022_Jun_18_1144,N-Back (New Version 2021),2021.1.4,120.7484471
,,,,Conditions/Version_1/oneback(2)_v1.xlsx,New rule: Press 'space' when you see 1-back (i.e. the same letter as the one that appeared 1 letter ago.),p,space,,,,,,,,,0,4,4,4,0,9,9,9,,,,,,,,,,,,,,,,,,,,,,,,,,,,,,,,,,,,,,,,,,,,,,,,,,,,,,,,,,,,,,,,,,,,,1.0162,454.403713,None,space,1,454.403713,None,0.5767316,P052,fencog,1,Post,2022_Jun_18_1144,N-Back (New Version 2021),2021.1.4,120.7484471
,,,,Conditions/Version_1/oneback(2)_v1.xlsx,New rule: Press 'space' when you see 1-back (i.e. the same letter as the one that appeared 1 letter ago.),,,,,,,,,,,0,4,4,4,,,,,,,,,,,,,,,,,,,,,,,,,,,,,,,,,,,,,,,,,,,,,,,,,,,,,,,,,,,,,,,,,,,,,,,,,,,,,,,,,P052,fencog,1,Post,2022_Jun_18_1144,N-Back (New Version 2021),2021.1.4,120.7484471
,,,,Conditions/Version_1/zeroback(2)_v1.xlsx,New rule: Press 'space' when you see the letter 'x' or 'X'.,p,None,,,,,,,,,0,5,5,5,0,0,0,0,,,,,,,,,,,,,,,,,,,,,,,,,,,,,,,,,,,,,,,,,,,,,,,,,,,,,,,,,,,456.4227672,None,459.4124395,None,space,0.2876499,459.4124395,None,456.4227672,None,1.0162,460.7521901,None,None,1,460.7521901,None,,P052,fencog,1,Post,2022_Jun_18_1144,N-Back (New Version 2021),2021.1.4,120.7484471
,,,,Conditions/Version_1/zeroback(2)_v1.xlsx,New rule: Press 'space' when you see the letter 'x' or 'X'.,L,None,,,,,,,,,0,5,5,5,0,1,1,1,,,,,,,,,,,,,,,,,,,,,,,,,,,,,,,,,,,,,,,,,,,,,,,,,,,,,,,,,,,,,,,,,,,,,1.1092,463.859234,None,None,1,463.859234,None,,P052,fencog,1,Post,2022_Jun_18_1144,N-Back (New Version 2021),2021.1.4,120.7484471
,,,,Conditions/Version_1/zeroback(2)_v1.xlsx,New rule: Press 'space' when you see the letter 'x' or 'X'.,G,None,,,,,,,,,0,5,5,5,0,2,2,2,,,,,,,,,,,,,,,,,,,,,,,,,,,,,,,,,,,,,,,,,,,,,,,,,,,,,,,,,,,,,,,,,,,,,1.0224,466.8854732,None,None,1,466.8854732,None,,P052,fencog,1,Post,2022_Jun_18_1144,N-Back (New Version 2021),2021.1.4,120.7484471
,,,,Conditions/Version_1/zeroback(2)_v1.xlsx,New rule: Press 'space' when you see the letter 'x' or 'X'.,y,None,,,,,,,,,0,5,5,5,0,3,3,3,,,,,,,,,,,,,,,,,,,,,,,,,,,,,,,,,,,,,,,,,,,,,,,,,,,,,,,,,,,,,,,,,,,,,1.2146,470.1078039,None,None,1,470.1078039,None,,P052,fencog,1,Post,2022_Jun_18_1144,N-Back (New Version 2021),2021.1.4,120.7484471
,,,,Conditions/Version_1/zeroback(2)_v1.xlsx,New rule: Press 'space' when you see the letter 'x' or 'X'.,Y,None,,,,,,,,,0,5,5,5,0,4,4,4,,,,,,,,,,,,,,,,,,,,,,,,,,,,,,,,,,,,,,,,,,,,,,,,,,,,,,,,,,,,,,,,,,,,,1.7354,473.8491031,None,None,1,473.8491031,None,,P052,fencog,1,Post,2022_Jun_18_1144,N-Back (New Version 2021),2021.1.4,120.7484471
,,,,Conditions/Version_1/zeroback(2)_v1.xlsx,New rule: Press 'space' when you see the letter 'x' or 'X'.,W,None,,,,,,,,,0,5,5,5,0,5,5,5,,,,,,,,,,,,,,,,,,,,,,,,,,,,,,,,,,,,,,,,,,,,,,,,,,,,,,,,,,,,,,,,,,,,,1.01,476.8768644,None,None,1,476.8768644,None,,P052,fencog,1,Post,2022_Jun_18_1144,N-Back (New Version 2021),2021.1.4,120.7484471
,,,,Conditions/Version_1/zeroback(2)_v1.xlsx,New rule: Press 'space' when you see the letter 'x' or 'X'.,x,space,,,,,,,,,0,5,5,5,0,6,6,6,,,,,,,,,,,,,,,,,,,,,,,,,,,,,,,,,,,,,,,,,,,,,,,,,,,,,,,,,,,,,,,,,,,,,1.1154,479.997235,None,space,1,479.997235,None,0.6229635,P052,fencog,1,Post,2022_Jun_18_1144,N-Back (New Version 2021),2021.1.4,120.7484471
,,,,Conditions/Version_1/zeroback(2)_v1.xlsx,New rule: Press 'space' when you see the letter 'x' or 'X'.,X,space,,,,,,,,,0,5,5,5,0,7,7,7,,,,,,,,,,,,,,,,,,,,,,,,,,,,,,,,,,,,,,,,,,,,,,,,,,,,,,,,,,,,,,,,,,,,,1.7974,483.8043777,None,space,1,483.8043777,None,0.7839368,P052,fencog,1,Post,2022_Jun_18_1144,N-Back (New Version 2021),2021.1.4,120.7484471
,,,,Conditions/Version_1/zeroback(2)_v1.xlsx,New rule: Press 'space' when you see the letter 'x' or 'X'.,p,None,,,,,,,,,0,5,5,5,0,8,8,8,,,,,,,,,,,,,,,,,,,,,,,,,,,,,,,,,,,,,,,,,,,,,,,,,,,,,,,,,,,,,,,,,,,,,1.5556,487.3690934,None,None,1,487.3690934,None,,P052,fencog,1,Post,2022_Jun_18_1144,N-Back (New Version 2021),2021.1.4,120.7484471
,,,,Conditions/Version_1/zeroback(2)_v1.xlsx,New rule: Press 'space' when you see the letter 'x' or 'X'.,h,None,,,,,,,,,0,5,5,5,0,9,9,9,,,,,,,,,,,,,,,,,,,,,,,,,,,,,,,,,,,,,,,,,,,,,,,,,,,,,,,,,,,,,,,,,,,,,1.4254,490.7941244,None,None,1,490.7941244,None,,P052,fencog,1,Post,2022_Jun_18_1144,N-Back (New Version 2021),2021.1.4,120.7484471
,,,,Conditions/Version_1/zeroback(2)_v1.xlsx,New rule: Press 'space' when you see the letter 'x' or 'X'.,,,,,,,,,,,0,5,5,5,,,,,,,,,,,,,,,,,,,,,,,,,,,,,,,,,,,,,,,,,,,,,,,,,,,,,,,,,,,,,,,,,,,,,,,,,,,,,,,,,P052,fencog,1,Post,2022_Jun_18_1144,N-Back (New Version 2021),2021.1.4,120.7484471
,,,,Conditions/Version_1/threeback(2)_v1.xlsx,New rule: Press 'space' when you see 3-back (i.e. the same letter as the one that appeared 3 letters ago.),q,None,,,,,,,,,0,6,6,6,0,0,0,0,,,,,,,,,,,,,,,,,,,,,,,,,,,,,,,,,,,,,,,,,,,,,,,,,,,,,,,,,,,492.825124,None,495.8106554,None,space,0.2734862,495.8106554,None,492.825124,None,1.5184,497.6410453,None,None,1,497.6410453,None,,P052,fencog,1,Post,2022_Jun_18_1144,N-Back (New Version 2021),2021.1.4,120.7484471
,,,,Conditions/Version_1/threeback(2)_v1.xlsx,New rule: Press 'space' when you see 3-back (i.e. the same letter as the one that appeared 3 letters ago.),Y,None,,,,,,,,,0,6,6,6,0,1,1,1,,,,,,,,,,,,,,,,,,,,,,,,,,,,,,,,,,,,,,,,,,,,,,,,,,,,,,,,,,,,,,,,,,,,,1.4006,501.042407,None,None,1,501.042407,None,,P052,fencog,1,Post,2022_Jun_18_1144,N-Back (New Version 2021),2021.1.4,120.7484471
,,,,Conditions/Version_1/threeback(2)_v1.xlsx,New rule: Press 'space' when you see 3-back (i.e. the same letter as the one that appeared 3 letters ago.),p,None,,,,,,,,,0,6,6,6,0,2,2,2,,,,,,,,,,,,,,,,,,,,,,,,,,,,,,,,,,,,,,,,,,,,,,,,,,,,,,,,,,,,,,,,,,,,,1.196,504.2477001,None,None,1,504.2477001,None,,P052,fencog,1,Post,2022_Jun_18_1144,N-Back (New Version 2021),2021.1.4,120.7484471
,,,,Conditions/Version_1/threeback(2)_v1.xlsx,New rule: Press 'space' when you see 3-back (i.e. the same letter as the one that appeared 3 letters ago.),p,None,,,,,,,,,0,6,6,6,0,3,3,3,,,,,,,,,,,,,,,,,,,,,,,,,,,,,,,,,,,,,,,,,,,,,,,,,,,,,,,,,,,,,,,,,,,,,1.9896,508.238029,None,None,1,508.238029,None,,P052,fencog,1,Post,2022_Jun_18_1144,N-Back (New Version 2021),2021.1.4,120.7484471
,,,,Conditions/Version_1/threeback(2)_v1.xlsx,New rule: Press 'space' when you see 3-back (i.e. the same letter as the one that appeared 3 letters ago.),y,space,,,,,,,,,0,6,6,6,0,4,4,4,,,,,,,,,,,,,,,,,,,,,,,,,,,,,,,,,,,,,,,,,,,,,,,,,,,,,,,,,,,,,,,,,,,,,1.9834,512.2284456,None,space,1,512.2284456,None,0.8959239,P052,fencog,1,Post,2022_Jun_18_1144,N-Back (New Version 2021),2021.1.4,120.7484471
,,,,Conditions/Version_1/threeback(2)_v1.xlsx,New rule: Press 'space' when you see 3-back (i.e. the same letter as the one that appeared 3 letters ago.),u,None,,,,,,,,,0,6,6,6,0,5,5,5,,,,,,,,,,,,,,,,,,,,,,,,,,,,,,,,,,,,,,,,,,,,,,,,,,,,,,,,,,,,,,,,,,,,,1.3138,515.5450452,None,None,1,515.5450452,None,,P052,fencog,1,Post,2022_Jun_18_1144,N-Back (New Version 2021),2021.1.4,120.7484471
,,,,Conditions/Version_1/threeback(2)_v1.xlsx,New rule: Press 'space' when you see 3-back (i.e. the same letter as the one that appeared 3 letters ago.),P,space,,,,,,,,,0,6,6,6,0,6,6,6,,,,,,,,,,,,,,,,,,,,,,,,,,,,,,,,,,,,,,,,,,,,,,,,,,,,,,,,,,,,,,,,,,,,,1.5308,519.0856332,None,space,1,519.0856332,None,0.9587335,P052,fencog,1,Post,2022_Jun_18_1144,N-Back (New Version 2021),2021.1.4,120.7484471
,,,,Conditions/Version_1/threeback(2)_v1.xlsx,New rule: Press 'space' when you see 3-back (i.e. the same letter as the one that appeared 3 letters ago.),a,None,,,,,,,,,0,6,6,6,0,7,7,7,,,,,,,,,,,,,,,,,,,,,,,,,,,,,,,,,,,,,,,,,,,,,,,,,,,,,,,,,,,,,,,,,,,,,1.6486,522.7428048,None,None,1,522.7428048,None,,P052,fencog,1,Post,2022_Jun_18_1144,N-Back (New Version 2021),2021.1.4,120.7484471
,,,,Conditions/Version_1/threeback(2)_v1.xlsx,New rule: Press 'space' when you see 3-back (i.e. the same letter as the one that appeared 3 letters ago.),U,space,,,,,,,,,0,6,6,6,0,8,8,8,,,,,,,,,,,,,,,,,,,,,,,,,,,,,,,,,,,,,,,,,,,,,,,,,,,,,,,,,,,,,,,,,,,,,1.5618,526.3184457,None,space,1,526.3184457,None,0.669871,P052,fencog,1,Post,2022_Jun_18_1144,N-Back (New Version 2021),2021.1.4,120.7484471
,,,,Conditions/Version_1/threeback(2)_v1.xlsx,New rule: Press 'space' when you see 3-back (i.e. the same letter as the one that appeared 3 letters ago.),q,None,,,,,,,,,0,6,6,6,0,9,9,9,,,,,,,,,,,,,,,,,,,,,,,,,,,,,,,,,,,,,,,,,,,,,,,,,,,,,,,,,,,,,,,,,,,,,1.3944,529.7289961,None,None,1,529.7289961,None,,P052,fencog,1,Post,2022_Jun_18_1144,N-Back (New Version 2021),2021.1.4,120.7484471
,,,,Conditions/Version_1/threeback(2)_v1.xlsx,New rule: Press 'space' when you see 3-back (i.e. the same letter as the one that appeared 3 letters ago.),,,,,,,,,,,0,6,6,6,,,,,,,,,,,,,,,,,,,,,,,,,,,,,,,,,,,,,,,,,,,,,,,,,,,,,,,,,,,,,,,,,,,,,,,,,,,,,,,,,P052,fencog,1,Post,2022_Jun_18_1144,N-Back (New Version 2021),2021.1.4,120.7484471
,,,,Conditions/Version_1/twoback(2)_v1.xlsx,New rule: Press 'space' when you see 2-back (i.e. the same letter as the one that appeared 2 letters ago.),q,None,,,,,,,,,0,7,7,7,0,0,0,0,,,,,,,,,,,,,,,,,,,,,,,,,,,,,,,,,,,,,,,,,,,,,,,,,,,,,,,,,,,531.7544156,None,534.7407596,None,space,0.367292,534.7407596,None,531.7544156,None,1.4874,536.629625,None,None,1,536.629625,None,,P052,fencog,1,Post,2022_Jun_18_1144,N-Back (New Version 2021),2021.1.4,120.7484471
,,,,Conditions/Version_1/twoback(2)_v1.xlsx,New rule: Press 'space' when you see 2-back (i.e. the same letter as the one that appeared 2 letters ago.),r,None,,,,,,,,,0,7,7,7,0,1,1,1,,,,,,,,,,,,,,,,,,,,,,,,,,,,,,,,,,,,,,,,,,,,,,,,,,,,,,,,,,,,,,,,,,,,,1.6548,540.2866941,None,None,1,540.2866941,None,,P052,fencog,1,Post,2022_Jun_18_1144,N-Back (New Version 2021),2021.1.4,120.7484471
,,,,Conditions/Version_1/twoback(2)_v1.xlsx,New rule: Press 'space' when you see 2-back (i.e. the same letter as the one that appeared 2 letters ago.),q,space,,,,,,,,,0,7,7,7,0,2,2,2,,,,,,,,,,,,,,,,,,,,,,,,,,,,,,,,,,,,,,,,,,,,,,,,,,,,,,,,,,,,,,,,,,,,,1.8656,544.1534199,None,space,1,544.1534199,None,1.058583,P052,fencog,1,Post,2022_Jun_18_1144,N-Back (New Version 2021),2021.1.4,120.7484471
,,,,Conditions/Version_1/twoback(2)_v1.xlsx,New rule: Press 'space' when you see 2-back (i.e. the same letter as the one that appeared 2 letters ago.),P,None,,,,,,,,,0,7,7,7,0,3,3,3,,,,,,,,,,,,,,,,,,,,,,,,,,,,,,,,,,,,,,,,,,,,,,,,,,,,,,,,,,,,,,,,,,,,,1.878,548.0427239,None,None,1,548.0427239,None,,P052,fencog,1,Post,2022_Jun_18_1144,N-Back (New Version 2021),2021.1.4,120.7484471
,,,,Conditions/Version_1/twoback(2)_v1.xlsx,New rule: Press 'space' when you see 2-back (i.e. the same letter as the one that appeared 2 letters ago.),p,None,,,,,,,,,0,7,7,7,0,4,4,4,,,,,,,,,,,,,,,,,,,,,,,,,,,,,,,,,,,,,,,,,,,,,,,,,,,,,,,,,,,,,,,,,,,,,1.7726,551.8166128,None,None,1,551.8166128,None,,P052,fencog,1,Post,2022_Jun_18_1144,N-Back (New Version 2021),2021.1.4,120.7484471
,,,,Conditions/Version_1/twoback(2)_v1.xlsx,New rule: Press 'space' when you see 2-back (i.e. the same letter as the one that appeared 2 letters ago.),H,None,,,,,,,,,0,7,7,7,0,5,5,5,,,,,,,,,,,,,,,,,,,,,,,,,,,,,,,,,,,,,,,,,,,,,,,,,,,,,,,,,,,,,,,,,,,,,1.2146,555.0323207,None,None,1,555.0323207,None,,P052,fencog,1,Post,2022_Jun_18_1144,N-Back (New Version 2021),2021.1.4,120.7484471
,,,,Conditions/Version_1/twoback(2)_v1.xlsx,New rule: Press 'space' when you see 2-back (i.e. the same letter as the one that appeared 2 letters ago.),g,None,,,,,,,,,0,7,7,7,0,6,6,6,,,,,,,,,,,,,,,,,,,,,,,,,,,,,,,,,,,,,,,,,,,,,,,,,,,,,,,,,,,,,,,,,,,,,1.506,558.5416969,None,None,1,558.5416969,None,,P052,fencog,1,Post,2022_Jun_18_1144,N-Back (New Version 2021),2021.1.4,120.7484471
,,,,Conditions/Version_1/twoback(2)_v1.xlsx,New rule: Press 'space' when you see 2-back (i.e. the same letter as the one that appeared 2 letters ago.),j,None,,,,,,,,,0,7,7,7,0,7,7,7,,,,,,,,,,,,,,,,,,,,,,,,,,,,,,,,,,,,,,,,,,,,,,,,,,,,,,,,,,,,,,,,,,,,,1.63,562.1812392,None,None,1,562.1812392,None,,P052,fencog,1,Post,2022_Jun_18_1144,N-Back (New Version 2021),2021.1.4,120.7484471
,,,,Conditions/Version_1/twoback(2)_v1.xlsx,New rule: Press 'space' when you see 2-back (i.e. the same letter as the one that appeared 2 letters ago.),g,space,,,,,,,,,0,7,7,7,0,8,8,8,,,,,,,,,,,,,,,,,,,,,,,,,,,,,,,,,,,,,,,,,,,,,,,,,,,,,,,,,,,,,,,,,,,,,1.8842,566.080339,None,space,1,566.080339,None,1.1716204,P052,fencog,1,Post,2022_Jun_18_1144,N-Back (New Version 2021),2021.1.4,120.7484471
,,,,Conditions/Version_1/twoback(2)_v1.xlsx,New rule: Press 'space' when you see 2-back (i.e. the same letter as the one that appeared 2 letters ago.),G,None,,,,,,,,,0,7,7,7,0,9,9,9,,,,,,,,,,,,,,,,,,,,,,,,,,,,,,,,,,,,,,,,,,,,,,,,,,,,,,,,,,,,,,,,,,,,,1.1216,569.2127327,None,None,1,569.2127327,None,,P052,fencog,1,Post,2022_Jun_18_1144,N-Back (New Version 2021),2021.1.4,120.7484471
,,,,Conditions/Version_1/twoback(2)_v1.xlsx,New rule: Press 'space' when you see 2-back (i.e. the same letter as the one that appeared 2 letters ago.),,,,,,,,,,,0,7,7,7,,,,,,,,,,,,,,,,,,,,,,,,,,,,,,,,,,,,,,,,,,,,,,,,,,,,,,,,,,,,,,,,,,,,,,,,,,,,,,,,,P052,fencog,1,Post,2022_Jun_18_1144,N-Back (New Version 2021),2021.1.4,120.7484471
,,,,Conditions/Version_1/threeback(3)_v1.xlsx,New rule: Press 'space' when you see 3-back (i.e. the same letter as the one that appeared 3 letters ago.),w,None,,,,,,,,,0,8,8,8,0,0,0,0,,,,,,,,,,,,,,,,,,,,,,,,,,,,,,,,,,,,,,,,,,,,,,,,,,,,,,,,,,,571.2433061,None,574.2294924,None,space,0.2466375,574.2294924,None,571.2433061,None,1.1898,575.7012109,None,None,1,575.7012109,None,,P052,fencog,1,Post,2022_Jun_18_1144,N-Back (New Version 2021),2021.1.4,120.7484471
,,,,Conditions/Version_1/threeback(3)_v1.xlsx,New rule: Press 'space' when you see 3-back (i.e. the same letter as the one that appeared 3 letters ago.),p,None,,,,,,,,,0,8,8,8,0,1,1,1,,,,,,,,,,,,,,,,,,,,,,,,,,,,,,,,,,,,,,,,,,,,,,,,,,,,,,,,,,,,,,,,,,,,,1.0348,578.7419767,None,None,1,578.7419767,None,,P052,fencog,1,Post,2022_Jun_18_1144,N-Back (New Version 2021),2021.1.4,120.7484471
,,,,Conditions/Version_1/threeback(3)_v1.xlsx,New rule: Press 'space' when you see 3-back (i.e. the same letter as the one that appeared 3 letters ago.),P,None,,,,,,,,,0,8,8,8,0,2,2,2,,,,,,,,,,,,,,,,,,,,,,,,,,,,,,,,,,,,,,,,,,,,,,,,,,,,,,,,,,,,,,,,,,,,,1.1588,581.9018896,None,None,1,581.9018896,None,,P052,fencog,1,Post,2022_Jun_18_1144,N-Back (New Version 2021),2021.1.4,120.7484471
,,,,Conditions/Version_1/threeback(3)_v1.xlsx,New rule: Press 'space' when you see 3-back (i.e. the same letter as the one that appeared 3 letters ago.),i,None,,,,,,,,,0,8,8,8,0,3,3,3,,,,,,,,,,,,,,,,,,,,,,,,,,,,,,,,,,,,,,,,,,,,,,,,,,,,,,,,,,,,,,,,,,,,,1.072,584.9835418,None,None,1,584.9835418,None,,P052,fencog,1,Post,2022_Jun_18_1144,N-Back (New Version 2021),2021.1.4,120.7484471
,,,,Conditions/Version_1/threeback(3)_v1.xlsx,New rule: Press 'space' when you see 3-back (i.e. the same letter as the one that appeared 3 letters ago.),f,None,,,,,,,,,0,8,8,8,0,4,4,4,,,,,,,,,,,,,,,,,,,,,,,,,,,,,,,,,,,,,,,,,,,,,,,,,,,,,,,,,,,,,,,,,,,,,1.9896,588.9807946,None,None,1,588.9807946,None,,P052,fencog,1,Post,2022_Jun_18_1144,N-Back (New Version 2021),2021.1.4,120.7484471
,,,,Conditions/Version_1/threeback(3)_v1.xlsx,New rule: Press 'space' when you see 3-back (i.e. the same letter as the one that appeared 3 letters ago.),o,None,,,,,,,,,0,8,8,8,0,5,5,5,,,,,,,,,,,,,,,,,,,,,,,,,,,,,,,,,,,,,,,,,,,,,,,,,,,,,,,,,,,,,,,,,,,,,1.9648,592.9469356,None,None,1,592.9469356,None,,P052,fencog,1,Post,2022_Jun_18_1144,N-Back (New Version 2021),2021.1.4,120.7484471
,,,,Conditions/Version_1/threeback(3)_v1.xlsx,New rule: Press 'space' when you see 3-back (i.e. the same letter as the one that appeared 3 letters ago.),w,None,,,,,,,,,0,8,8,8,0,6,6,6,,,,,,,,,,,,,,,,,,,,,,,,,,,,,,,,,,,,,,,,,,,,,,,,,,,,,,,,,,,,,,,,,,,,,1.506,596.4618646,None,None,1,596.4618646,None,,P052,fencog,1,Post,2022_Jun_18_1144,N-Back (New Version 2021),2021.1.4,120.7484471
,,,,Conditions/Version_1/threeback(3)_v1.xlsx,New rule: Press 'space' when you see 3-back (i.e. the same letter as the one that appeared 3 letters ago.),F,space,,,,,,,,,0,8,8,8,0,7,7,7,,,,,,,,,,,,,,,,,,,,,,,,,,,,,,,,,,,,,,,,,,,,,,,,,,,,,,,,,,,,,,,,,,,,,1.568,600.0409749,None,space,1,600.0409749,None,0.7313219,P052,fencog,1,Post,2022_Jun_18_1144,N-Back (New Version 2021),2021.1.4,120.7484471
,,,,Conditions/Version_1/threeback(3)_v1.xlsx,New rule: Press 'space' when you see 3-back (i.e. the same letter as the one that appeared 3 letters ago.),p,None,,,,,,,,,0,8,8,8,0,8,8,8,,,,,,,,,,,,,,,,,,,,,,,,,,,,,,,,,,,,,,,,,,,,,,,,,,,,,,,,,,,,,,,,,,,,,1.3386,603.3846999,None,None,1,603.3846999,None,,P052,fencog,1,Post,2022_Jun_18_1144,N-Back (New Version 2021),2021.1.4,120.7484471
,,,,Conditions/Version_1/threeback(3)_v1.xlsx,New rule: Press 'space' when you see 3-back (i.e. the same letter as the one that appeared 3 letters ago.),W,space,,,,,,,,,0,8,8,8,0,9,9,9,,,,,,,,,,,,,,,,,,,,,,,,,,,,,,,,,,,,,,,,,,,,,,,,,,,,,,,,,,,,,,,,,,,,,1.8842,607.2752464,None,space,1,607.2752464,None,0.8573377,P052,fencog,1,Post,2022_Jun_18_1144,N-Back (New Version 2021),2021.1.4,120.7484471
,,,,Conditions/Version_1/threeback(3)_v1.xlsx,New rule: Press 'space' when you see 3-back (i.e. the same letter as the one that appeared 3 letters ago.),,,,,,,,,,,0,8,8,8,,,,,,,,,,,,,,,,,,,,,,,,,,,,,,,,,,,,,,,,,,,,,,,,,,,,,,,,,,,,,,,,,,,,,,,,,,,,,,,,,P052,fencog,1,Post,2022_Jun_18_1144,N-Back (New Version 2021),2021.1.4,120.7484471
,,,,Conditions/Version_1/zeroback(3)_v1.xlsx,New rule: Press 'space' when you see the letter 'x' or 'X'.,X,space,,,,,,,,,0,9,9,9,0,0,0,0,,,,,,,,,,,,,,,,,,,,,,,,,,,,,,,,,,,,,,,,,,,,,,,,,,,,,,,,,,,609.3057351,None,612.2920449,None,space,0.3601286,612.2920449,None,609.3057351,None,1.1154,613.7995608,None,space,1,613.7995608,None,1.028462,P052,fencog,1,Post,2022_Jun_18_1144,N-Back (New Version 2021),2021.1.4,120.7484471
,,,,Conditions/Version_1/zeroback(3)_v1.xlsx,New rule: Press 'space' when you see the letter 'x' or 'X'.,B,None,,,,,,,,,0,9,9,9,0,1,1,1,,,,,,,,,,,,,,,,,,,,,,,,,,,,,,,,,,,,,,,,,,,,,,,,,,,,,,,,,,,,,,,,,,,,,1.8656,617.6737871,None,None,1,617.6737871,None,,P052,fencog,1,Post,2022_Jun_18_1144,N-Back (New Version 2021),2021.1.4,120.7484471
,,,,Conditions/Version_1/zeroback(3)_v1.xlsx,New rule: Press 'space' when you see the letter 'x' or 'X'.,m,None,,,,,,,,,0,9,9,9,0,2,2,2,,,,,,,,,,,,,,,,,,,,,,,,,,,,,,,,,,,,,,,,,,,,,,,,,,,,,,,,,,,,,,,,,,,,,1.258,620.9395431,None,None,1,620.9395431,None,,P052,fencog,1,Post,2022_Jun_18_1144,N-Back (New Version 2021),2021.1.4,120.7484471
,,,,Conditions/Version_1/zeroback(3)_v1.xlsx,New rule: Press 'space' when you see the letter 'x' or 'X'.,m,None,,,,,,,,,0,9,9,9,0,3,3,3,,,,,,,,,,,,,,,,,,,,,,,,,,,,,,,,,,,,,,,,,,,,,,,,,,,,,,,,,,,,,,,,,,,,,1.1836,624.1287169,None,None,1,624.1287169,None,,P052,fencog,1,Post,2022_Jun_18_1144,N-Back (New Version 2021),2021.1.4,120.7484471
,,,,Conditions/Version_1/zeroback(3)_v1.xlsx,New rule: Press 'space' when you see the letter 'x' or 'X'.,o,None,,,,,,,,,0,9,9,9,0,4,4,4,,,,,,,,,,,,,,,,,,,,,,,,,,,,,,,,,,,,,,,,,,,,,,,,,,,,,,,,,,,,,,,,,,,,,1.9586,628.0858294,None,None,1,628.0858294,None,,P052,fencog,1,Post,2022_Jun_18_1144,N-Back (New Version 2021),2021.1.4,120.7484471
,,,,Conditions/Version_1/zeroback(3)_v1.xlsx,New rule: Press 'space' when you see the letter 'x' or 'X'.,p,None,,,,,,,,,0,9,9,9,0,5,5,5,,,,,,,,,,,,,,,,,,,,,,,,,,,,,,,,,,,,,,,,,,,,,,,,,,,,,,,,,,,,,,,,,,,,,1.2828,631.3681178,None,None,1,631.3681178,None,,P052,fencog,1,Post,2022_Jun_18_1144,N-Back (New Version 2021),2021.1.4,120.7484471
,,,,Conditions/Version_1/zeroback(3)_v1.xlsx,New rule: Press 'space' when you see the letter 'x' or 'X'.,G,None,,,,,,,,,0,9,9,9,0,6,6,6,,,,,,,,,,,,,,,,,,,,,,,,,,,,,,,,,,,,,,,,,,,,,,,,,,,,,,,,,,,,,,,,,,,,,1.4006,634.7760141,None,None,1,634.7760141,None,,P052,fencog,1,Post,2022_Jun_18_1144,N-Back (New Version 2021),2021.1.4,120.7484471
,,,,Conditions/Version_1/zeroback(3)_v1.xlsx,New rule: Press 'space' when you see the letter 'x' or 'X'.,X,space,,,,,,,,,0,9,9,9,0,7,7,7,,,,,,,,,,,,,,,,,,,,,,,,,,,,,,,,,,,,,,,,,,,,,,,,,,,,,,,,,,,,,,,,,,,,,1.289,638.067162,None,space,1,638.067162,None,0.7691987,P052,fencog,1,Post,2022_Jun_18_1144,N-Back (New Version 2021),2021.1.4,120.7484471
,,,,Conditions/Version_1/zeroback(3)_v1.xlsx,New rule: Press 'space' when you see the letter 'x' or 'X'.,p,None,,,,,,,,,0,9,9,9,0,8,8,8,,,,,,,,,,,,,,,,,,,,,,,,,,,,,,,,,,,,,,,,,,,,,,,,,,,,,,,,,,,,,,,,,,,,,1.754,641.831905,None,None,1,641.831905,None,,P052,fencog,1,Post,2022_Jun_18_1144,N-Back (New Version 2021),2021.1.4,120.7484471
,,,,Conditions/Version_1/zeroback(3)_v1.xlsx,New rule: Press 'space' when you see the letter 'x' or 'X'.,x,space,,,,,,,,,0,9,9,9,0,9,9,9,,,,,,,,,,,,,,,,,,,,,,,,,,,,,,,,,,,,,,,,,,,,,,,,,,,,,,,,,,,,,,,,,,,,,1.3262,645.1650668,None,space,1,645.1650668,None,0.679384,P052,fencog,1,Post,2022_Jun_18_1144,N-Back (New Version 2021),2021.1.4,120.7484471
,,,,Conditions/Version_1/zeroback(3)_v1.xlsx,New rule: Press 'space' when you see the letter 'x' or 'X'.,,,,,,,,,,,0,9,9,9,,,,,,,,,,,,,,,,,,,,,,,,,,,,,,,,,,,,,,,,,,,,,,,,,,,,,,,,,,,,,,,,,,,,,,,,,,,,,,,,,P052,fencog,1,Post,2022_Jun_18_1144,N-Back (New Version 2021),2021.1.4,120.7484471
,,,,Conditions/Version_1/twoback(3)_v1.xlsx,New rule: Press 'space' when you see 2-back (i.e. the same letter as the one that appeared 2 letters ago.),e,None,,,,,,,,,0,10,10,10,0,0,0,0,,,,,,,,,,,,,,,,,,,,,,,,,,,,,,,,,,,,,,,,,,,,,,,,,,,,,,,,,,,647.2017915,None,650.1838995,None,space,1.5882338,650.1838995,None,647.2017915,None,1.3324,653.1368583,None,None,1,653.1368583,None,,P052,fencog,1,Post,2022_Jun_18_1144,N-Back (New Version 2021),2021.1.4,120.7484471
,,,,Conditions/Version_1/twoback(3)_v1.xlsx,New rule: Press 'space' when you see 2-back (i.e. the same letter as the one that appeared 2 letters ago.),o,None,,,,,,,,,0,10,10,10,0,1,1,1,,,,,,,,,,,,,,,,,,,,,,,,,,,,,,,,,,,,,,,,,,,,,,,,,,,,,,,,,,,,,,,,,,,,,1.7478,656.885658,None,None,1,656.885658,None,,P052,fencog,1,Post,2022_Jun_18_1144,N-Back (New Version 2021),2021.1.4,120.7484471
,,,,Conditions/Version_1/twoback(3)_v1.xlsx,New rule: Press 'space' when you see 2-back (i.e. the same letter as the one that appeared 2 letters ago.),P,None,,,,,,,,,0,10,10,10,0,2,2,2,,,,,,,,,,,,,,,,,,,,,,,,,,,,,,,,,,,,,,,,,,,,,,,,,,,,,,,,,,,,,,,,,,,,,1.8718,660.7677675,None,None,1,660.7677675,None,,P052,fencog,1,Post,2022_Jun_18_1144,N-Back (New Version 2021),2021.1.4,120.7484471
,,,,Conditions/Version_1/twoback(3)_v1.xlsx,New rule: Press 'space' when you see 2-back (i.e. the same letter as the one that appeared 2 letters ago.),z,None,,,,,,,,,0,10,10,10,0,3,3,3,,,,,,,,,,,,,,,,,,,,,,,,,,,,,,,,,,,,,,,,,,,,,,,,,,,,,,,,,,,,,,,,,,,,,1.0968,663.8699817,None,None,1,663.8699817,None,,P052,fencog,1,Post,2022_Jun_18_1144,N-Back (New Version 2021),2021.1.4,120.7484471
,,,,Conditions/Version_1/twoback(3)_v1.xlsx,New rule: Press 'space' when you see 2-back (i.e. the same letter as the one that appeared 2 letters ago.),X,None,,,,,,,,,0,10,10,10,0,4,4,4,,,,,,,,,,,,,,,,,,,,,,,,,,,,,,,,,,,,,,,,,,,,,,,,,,,,,,,,,,,,,,,,,,,,,1.4192,667.2991973,None,None,1,667.2991973,None,,P052,fencog,1,Post,2022_Jun_18_1144,N-Back (New Version 2021),2021.1.4,120.7484471
,,,,Conditions/Version_1/twoback(3)_v1.xlsx,New rule: Press 'space' when you see 2-back (i.e. the same letter as the one that appeared 2 letters ago.),z,space,,,,,,,,,0,10,10,10,0,5,5,5,,,,,,,,,,,,,,,,,,,,,,,,,,,,,,,,,,,,,,,,,,,,,,,,,,,,,,,,,,,,,,,,,,,,,1.8284,671.1314628,None,space,1,671.1314628,None,0.6647006,P052,fencog,1,Post,2022_Jun_18_1144,N-Back (New Version 2021),2021.1.4,120.7484471
,,,,Conditions/Version_1/twoback(3)_v1.xlsx,New rule: Press 'space' when you see 2-back (i.e. the same letter as the one that appeared 2 letters ago.),x,space,,,,,,,,,0,10,10,10,0,6,6,6,,,,,,,,,,,,,,,,,,,,,,,,,,,,,,,,,,,,,,,,,,,,,,,,,,,,,,,,,,,,,,,,,,,,,1.8656,674.9980169,None,space,1,674.9980169,None,0.8138718,P052,fencog,1,Post,2022_Jun_18_1144,N-Back (New Version 2021),2021.1.4,120.7484471
,,,,Conditions/Version_1/twoback(3)_v1.xlsx,New rule: Press 'space' when you see 2-back (i.e. the same letter as the one that appeared 2 letters ago.),c,None,,,,,,,,,0,10,10,10,0,7,7,7,,,,,,,,,,,,,,,,,,,,,,,,,,,,,,,,,,,,,,,,,,,,,,,,,,,,,,,,,,,,,,,,,,,,,1.3634,678.3711003,None,None,1,678.3711003,None,,P052,fencog,1,Post,2022_Jun_18_1144,N-Back (New Version 2021),2021.1.4,120.7484471
,,,,Conditions/Version_1/twoback(3)_v1.xlsx,New rule: Press 'space' when you see 2-back (i.e. the same letter as the one that appeared 2 letters ago.),i,None,,,,,,,,,0,10,10,10,0,8,8,8,,,,,,,,,,,,,,,,,,,,,,,,,,,,,,,,,,,,,,,,,,,,,,,,,,,,,,,,,,,,,,,,,,,,,1.6238,681.9948127,None,None,1,681.9948127,None,,P052,fencog,1,Post,2022_Jun_18_1144,N-Back (New Version 2021),2021.1.4,120.7484471
,,,,Conditions/Version_1/twoback(3)_v1.xlsx,New rule: Press 'space' when you see 2-back (i.e. the same letter as the one that appeared 2 letters ago.),C,space,,,,,,,,,0,10,10,10,0,9,9,9,,,,,,,,,,,,,,,,,,,,,,,,,,,,,,,,,,,,,,,,,,,,,,,,,,,,,,,,,,,,,,,,,,,,,1.444,685.4438715,None,space,1,685.4438715,None,0.6321096,P052,fencog,1,Post,2022_Jun_18_1144,N-Back (New Version 2021),2021.1.4,120.7484471
,,,,Conditions/Version_1/twoback(3)_v1.xlsx,New rule: Press 'space' when you see 2-back (i.e. the same letter as the one that appeared 2 letters ago.),,,,,,,,,,,0,10,10,10,,,,,,,,,,,,,,,,,,,,,,,,,,,,,,,,,,,,,,,,,,,,,,,,,,,,,,,,,,,,,,,,,,,,,,,,,,,,,,,,,P052,fencog,1,Post,2022_Jun_18_1144,N-Back (New Version 2021),2021.1.4,120.7484471
,,,,Conditions/Version_1/oneback(3)_v1.xlsx,New rule: Press 'space' when you see 1-back (i.e. the same letter as the one that appeared 1 letter ago.),o,None,,,,,,,,,0,11,11,11,0,0,0,0,,,,,,,,,,,,,,,,,,,,,,,,,,,,,,,,,,,,,,,,,,,,,,,,,,,,,,,,,,,687.4671977,None,690.4528418,None,space,0.2152906,690.4528418,None,687.4671977,None,1.6238,692.3345476,None,None,1,692.3345476,None,,P052,fencog,1,Post,2022_Jun_18_1144,N-Back (New Version 2021),2021.1.4,120.7484471
,,,,Conditions/Version_1/oneback(3)_v1.xlsx,New rule: Press 'space' when you see 1-back (i.e. the same letter as the one that appeared 1 letter ago.),O,space,,,,,,,,,0,11,11,11,0,1,1,1,,,,,,,,,,,,,,,,,,,,,,,,,,,,,,,,,,,,,,,,,,,,,,,,,,,,,,,,,,,,,,,,,,,,,1.6362,695.9836205,None,space,1,695.9836205,None,0.5723768,P052,fencog,1,Post,2022_Jun_18_1144,N-Back (New Version 2021),2021.1.4,120.7484471
,,,,Conditions/Version_1/oneback(3)_v1.xlsx,New rule: Press 'space' when you see 1-back (i.e. the same letter as the one that appeared 1 letter ago.),h,None,,,,,,,,,0,11,11,11,0,2,2,2,,,,,,,,,,,,,,,,,,,,,,,,,,,,,,,,,,,,,,,,,,,,,,,,,,,,,,,,,,,,,,,,,,,,,1.0844,699.0834581,None,None,1,699.0834581,None,,P052,fencog,1,Post,2022_Jun_18_1144,N-Back (New Version 2021),2021.1.4,120.7484471
,,,,Conditions/Version_1/oneback(3)_v1.xlsx,New rule: Press 'space' when you see 1-back (i.e. the same letter as the one that appeared 1 letter ago.),g,None,,,,,,,,,0,11,11,11,0,3,3,3,,,,,,,,,,,,,,,,,,,,,,,,,,,,,,,,,,,,,,,,,,,,,,,,,,,,,,,,,,,,,,,,,,,,,1.1278,702.2221479,None,None,1,702.2221479,None,,P052,fencog,1,Post,2022_Jun_18_1144,N-Back (New Version 2021),2021.1.4,120.7484471
,,,,Conditions/Version_1/oneback(3)_v1.xlsx,New rule: Press 'space' when you see 1-back (i.e. the same letter as the one that appeared 1 letter ago.),n,None,,,,,,,,,0,11,11,11,0,4,4,4,,,,,,,,,,,,,,,,,,,,,,,,,,,,,,,,,,,,,,,,,,,,,,,,,,,,,,,,,,,,,,,,,,,,,1.0534,705.2795583,None,None,1,705.2795583,None,,P052,fencog,1,Post,2022_Jun_18_1144,N-Back (New Version 2021),2021.1.4,120.7484471
,,,,Conditions/Version_1/oneback(3)_v1.xlsx,New rule: Press 'space' when you see 1-back (i.e. the same letter as the one that appeared 1 letter ago.),z,None,,,,,,,,,0,11,11,11,0,5,5,5,,,,,,,,,,,,,,,,,,,,,,,,,,,,,,,,,,,,,,,,,,,,,,,,,,,,,,,,,,,,,,,,,,,,,1.2704,708.5537608,None,None,1,708.5537608,None,,P052,fencog,1,Post,2022_Jun_18_1144,N-Back (New Version 2021),2021.1.4,120.7484471
,,,,Conditions/Version_1/oneback(3)_v1.xlsx,New rule: Press 'space' when you see 1-back (i.e. the same letter as the one that appeared 1 letter ago.),X,None,,,,,,,,,0,11,11,11,0,6,6,6,,,,,,,,,,,,,,,,,,,,,,,,,,,,,,,,,,,,,,,,,,,,,,,,,,,,,,,,,,,,,,,,,,,,,1.8842,712.4452698,None,None,1,712.4452698,None,,P052,fencog,1,Post,2022_Jun_18_1144,N-Back (New Version 2021),2021.1.4,120.7484471
,,,,Conditions/Version_1/oneback(3)_v1.xlsx,New rule: Press 'space' when you see 1-back (i.e. the same letter as the one that appeared 1 letter ago.),r,None,,,,,,,,,0,11,11,11,0,7,7,7,,,,,,,,,,,,,,,,,,,,,,,,,,,,,,,,,,,,,,,,,,,,,,,,,,,,,,,,,,,,,,,,,,,,,1.1774,715.6349925,None,None,1,715.6349925,None,,P052,fencog,1,Post,2022_Jun_18_1144,N-Back (New Version 2021),2021.1.4,120.7484471
,,,,Conditions/Version_1/oneback(3)_v1.xlsx,New rule: Press 'space' when you see 1-back (i.e. the same letter as the one that appeared 1 letter ago.),r,space,,,,,,,,,0,11,11,11,0,8,8,8,,,,,,,,,,,,,,,,,,,,,,,,,,,,,,,,,,,,,,,,,,,,,,,,,,,,,,,,,,,,,,,,,,,,,1.4998,719.1341079,None,space,1,719.1341079,None,0.7429364,P052,fencog,1,Post,2022_Jun_18_1144,N-Back (New Version 2021),2021.1.4,120.7484471
,,,,Conditions/Version_1/oneback(3)_v1.xlsx,New rule: Press 'space' when you see 1-back (i.e. the same letter as the one that appeared 1 letter ago.),P,None,,,,,,,,,0,11,11,11,0,9,9,9,,,,,,,,,,,,,,,,,,,,,,,,,,,,,,,,,,,,,,,,,,,,,,,,,,,,,,,,,,,,,,,,,,,,,1.3014,722.4413387,None,None,1,722.4413387,None,,P052,fencog,1,Post,2022_Jun_18_1144,N-Back (New Version 2021),2021.1.4,120.7484471
,,,,Conditions/Version_1/oneback(3)_v1.xlsx,New rule: Press 'space' when you see 1-back (i.e. the same letter as the one that appeared 1 letter ago.),,,,,,,,,,,0,11,11,11,,,,,,,,,,,,,,,,,,,,,,,,,,,,,,,,,,,,,,,,,,,,,,,,,,,,,,,,,,,,,,,,,,,,,,,,,,,,,,,,,P052,fencog,1,Post,2022_Jun_18_1144,N-Back (New Version 2021),2021.1.4,120.7484471
,,,,Conditions/Version_1/twoback(4)_v1.xlsx,New rule: Press 'space' when you see 2-back (i.e. the same letter as the one that appeared 2 letters ago.),r,None,,,,,,,,,0,12,12,12,0,0,0,0,,,,,,,,,,,,,,,,,,,,,,,,,,,,,,,,,,,,,,,,,,,,,,,,,,,,,,,,,,,724.46349,None,727.4506752,None,space,0.3213882,727.4506752,None,724.46349,None,1.4936,729.3398619,None,None,1,729.3398619,None,,P052,fencog,1,Post,2022_Jun_18_1144,N-Back (New Version 2021),2021.1.4,120.7484471
,,,,Conditions/Version_1/twoback(4)_v1.xlsx,New rule: Press 'space' when you see 2-back (i.e. the same letter as the one that appeared 2 letters ago.),T,None,,,,,,,,,0,12,12,12,0,1,1,1,,,,,,,,,,,,,,,,,,,,,,,,,,,,,,,,,,,,,,,,,,,,,,,,,,,,,,,,,,,,,,,,,,,,,1.01,732.3644219,None,None,1,732.3644219,None,,P052,fencog,1,Post,2022_Jun_18_1144,N-Back (New Version 2021),2021.1.4,120.7484471
,,,,Conditions/Version_1/twoback(4)_v1.xlsx,New rule: Press 'space' when you see 2-back (i.e. the same letter as the one that appeared 2 letters ago.),o,None,,,,,,,,,0,12,12,12,0,2,2,2,,,,,,,,,,,,,,,,,,,,,,,,,,,,,,,,,,,,,,,,,,,,,,,,,,,,,,,,,,,,,,,,,,,,,1.3262,735.7052055,None,None,1,735.7052055,None,,P052,fencog,1,Post,2022_Jun_18_1144,N-Back (New Version 2021),2021.1.4,120.7484471
,,,,Conditions/Version_1/twoback(4)_v1.xlsx,New rule: Press 'space' when you see 2-back (i.e. the same letter as the one that appeared 2 letters ago.),p,None,,,,,,,,,0,12,12,12,0,3,3,3,,,,,,,,,,,,,,,,,,,,,,,,,,,,,,,,,,,,,,,,,,,,,,,,,,,,,,,,,,,,,,,,,,,,,1.444,739.1612302,None,None,1,739.1612302,None,,P052,fencog,1,Post,2022_Jun_18_1144,N-Back (New Version 2021),2021.1.4,120.7484471
,,,,Conditions/Version_1/twoback(4)_v1.xlsx,New rule: Press 'space' when you see 2-back (i.e. the same letter as the one that appeared 2 letters ago.),p,None,,,,,,,,,0,12,12,12,0,4,4,4,,,,,,,,,,,,,,,,,,,,,,,,,,,,,,,,,,,,,,,,,,,,,,,,,,,,,,,,,,,,,,,,,,,,,1.8718,743.0352907,None,None,1,743.0352907,None,,P052,fencog,1,Post,2022_Jun_18_1144,N-Back (New Version 2021),2021.1.4,120.7484471
,,,,Conditions/Version_1/twoback(4)_v1.xlsx,New rule: Press 'space' when you see 2-back (i.e. the same letter as the one that appeared 2 letters ago.),y,None,,,,,,,,,0,12,12,12,0,5,5,5,,,,,,,,,,,,,,,,,,,,,,,,,,,,,,,,,,,,,,,,,,,,,,,,,,,,,,,,,,,,,,,,,,,,,1.2952,746.3347614,None,None,1,746.3347614,None,,P052,fencog,1,Post,2022_Jun_18_1144,N-Back (New Version 2021),2021.1.4,120.7484471
,,,,Conditions/Version_1/twoback(4)_v1.xlsx,New rule: Press 'space' when you see 2-back (i.e. the same letter as the one that appeared 2 letters ago.),P,space,,,,,,,,,0,12,12,12,0,6,6,6,,,,,,,,,,,,,,,,,,,,,,,,,,,,,,,,,,,,,,,,,,,,,,,,,,,,,,,,,,,,,,,,,,,,,1.909,750.2495852,None,space,1,750.2495852,None,0.7628442,P052,fencog,1,Post,2022_Jun_18_1144,N-Back (New Version 2021),2021.1.4,120.7484471
,,,,Conditions/Version_1/twoback(4)_v1.xlsx,New rule: Press 'space' when you see 2-back (i.e. the same letter as the one that appeared 2 letters ago.),y,None,,,,,,,,,0,12,12,12,0,7,7,7,,,,,,,,,,,,,,,,,,,,,,,,,,,,,,,,,,,,,,,,,,,,,,,,,,,,,,,,,,,,,,,,,,,,,1.9276,754.1839689,None,space,0,754.1839689,None,0.7000236,P052,fencog,1,Post,2022_Jun_18_1144,N-Back (New Version 2021),2021.1.4,120.7484471
,,,,Conditions/Version_1/twoback(4)_v1.xlsx,New rule: Press 'space' when you see 2-back (i.e. the same letter as the one that appeared 2 letters ago.),y,space,,,,,,,,,0,12,12,12,0,8,8,8,,,,,,,,,,,,,,,,,,,,,,,,,,,,,,,,,,,,,,,,,,,,,,,,,,,,,,,,,,,,,,,,,,,,,1.2518,757.4475073,None,None,0,757.4475073,None,,P052,fencog,1,Post,2022_Jun_18_1144,N-Back (New Version 2021),2021.1.4,120.7484471
,,,,Conditions/Version_1/twoback(4)_v1.xlsx,New rule: Press 'space' when you see 2-back (i.e. the same letter as the one that appeared 2 letters ago.),,,,,,,,,,,0,12,12,12,,,,,,,,,,,,,,,,,,,,,,,,,,,,,,,,,,,,,,,,,,,,,,,,,,,,,,,,,,,,,,,,,,,,,,,,,,,,,,,,,P052,fencog,1,Post,2022_Jun_18_1144,N-Back (New Version 2021),2021.1.4,120.7484471
,,,,Conditions/Version_1/zeroback(4)_v1.xlsx,New rule: Press 'space' when you see the letter 'x' or 'X'.,o,None,,,,,,,,,0,13,13,13,0,0,0,0,,,,,,,,,,,,,,,,,,,,,,,,,,,,,,,,,,,,,,,,,,,,,,,,,,,,,,,,,,,759.4677981,None,762.4565473,None,space,0.331456,762.4565473,None,759.4677981,None,1.0286,763.8540562,None,None,1,763.8540562,None,,P052,fencog,1,Post,2022_Jun_18_1144,N-Back (New Version 2021),2021.1.4,120.7484471
,,,,Conditions/Version_1/zeroback(4)_v1.xlsx,New rule: Press 'space' when you see the letter 'x' or 'X'.,X,space,,,,,,,,,0,13,13,13,0,1,1,1,,,,,,,,,,,,,,,,,,,,,,,,,,,,,,,,,,,,,,,,,,,,,,,,,,,,,,,,,,,,,,,,,,,,,1.971,767.831217,None,space,1,767.831217,None,0.9167728,P052,fencog,1,Post,2022_Jun_18_1144,N-Back (New Version 2021),2021.1.4,120.7484471
,,,,Conditions/Version_1/zeroback(4)_v1.xlsx,New rule: Press 'space' when you see the letter 'x' or 'X'.,p,None,,,,,,,,,0,13,13,13,0,2,2,2,,,,,,,,,,,,,,,,,,,,,,,,,,,,,,,,,,,,,,,,,,,,,,,,,,,,,,,,,,,,,,,,,,,,,1.692,771.5277227,None,None,1,771.5277227,None,,P052,fencog,1,Post,2022_Jun_18_1144,N-Back (New Version 2021),2021.1.4,120.7484471
,,,,Conditions/Version_1/zeroback(4)_v1.xlsx,New rule: Press 'space' when you see the letter 'x' or 'X'.,m,None,,,,,,,,,0,13,13,13,0,3,3,3,,,,,,,,,,,,,,,,,,,,,,,,,,,,,,,,,,,,,,,,,,,,,,,,,,,,,,,,,,,,,,,,,,,,,1.4316,774.9681014,None,None,1,774.9681014,None,,P052,fencog,1,Post,2022_Jun_18_1144,N-Back (New Version 2021),2021.1.4,120.7484471
,,,,Conditions/Version_1/zeroback(4)_v1.xlsx,New rule: Press 'space' when you see the letter 'x' or 'X'.,n,None,,,,,,,,,0,13,13,13,0,4,4,4,,,,,,,,,,,,,,,,,,,,,,,,,,,,,,,,,,,,,,,,,,,,,,,,,,,,,,,,,,,,,,,,,,,,,1.5556,778.5333873,None,None,1,778.5333873,None,,P052,fencog,1,Post,2022_Jun_18_1144,N-Back (New Version 2021),2021.1.4,120.7484471
,,,,Conditions/Version_1/zeroback(4)_v1.xlsx,New rule: Press 'space' when you see the letter 'x' or 'X'.,m,None,,,,,,,,,0,13,13,13,0,5,5,5,,,,,,,,,,,,,,,,,,,,,,,,,,,,,,,,,,,,,,,,,,,,,,,,,,,,,,,,,,,,,,,,,,,,,1.1712,781.706991,None,None,1,781.706991,None,,P052,fencog,1,Post,2022_Jun_18_1144,N-Back (New Version 2021),2021.1.4,120.7484471
,,,,Conditions/Version_1/zeroback(4)_v1.xlsx,New rule: Press 'space' when you see the letter 'x' or 'X'.,C,None,,,,,,,,,0,13,13,13,0,6,6,6,,,,,,,,,,,,,,,,,,,,,,,,,,,,,,,,,,,,,,,,,,,,,,,,,,,,,,,,,,,,,,,,,,,,,1.4254,785.132179,None,None,1,785.132179,None,,P052,fencog,1,Post,2022_Jun_18_1144,N-Back (New Version 2021),2021.1.4,120.7484471
,,,,Conditions/Version_1/zeroback(4)_v1.xlsx,New rule: Press 'space' when you see the letter 'x' or 'X'.,m,None,,,,,,,,,0,13,13,13,0,7,7,7,,,,,,,,,,,,,,,,,,,,,,,,,,,,,,,,,,,,,,,,,,,,,,,,,,,,,,,,,,,,,,,,,,,,,1.6052,788.746716,None,None,1,788.746716,None,,P052,fencog,1,Post,2022_Jun_18_1144,N-Back (New Version 2021),2021.1.4,120.7484471
,,,,Conditions/Version_1/zeroback(4)_v1.xlsx,New rule: Press 'space' when you see the letter 'x' or 'X'.,p,None,,,,,,,,,0,13,13,13,0,8,8,8,,,,,,,,,,,,,,,,,,,,,,,,,,,,,,,,,,,,,,,,,,,,,,,,,,,,,,,,,,,,,,,,,,,,,1.4626,792.2134622,None,None,1,792.2134622,None,,P052,fencog,1,Post,2022_Jun_18_1144,N-Back (New Version 2021),2021.1.4,120.7484471
,,,,Conditions/Version_1/zeroback(4)_v1.xlsx,New rule: Press 'space' when you see the letter 'x' or 'X'.,X,space,,,,,,,,,0,13,13,13,0,9,9,9,,,,,,,,,,,,,,,,,,,,,,,,,,,,,,,,,,,,,,,,,,,,,,,,,,,,,,,,,,,,,,,,,,,,,1.7168,795.9372068,None,space,1,795.9372068,None,0.8268247,P052,fencog,1,Post,2022_Jun_18_1144,N-Back (New Version 2021),2021.1.4,120.7484471
,,,,Conditions/Version_1/zeroback(4)_v1.xlsx,New rule: Press 'space' when you see the letter 'x' or 'X'.,,,,,,,,,,,0,13,13,13,,,,,,,,,,,,,,,,,,,,,,,,,,,,,,,,,,,,,,,,,,,,,,,,,,,,,,,,,,,,,,,,,,,,,,,,,,,,,,,,,P052,fencog,1,Post,2022_Jun_18_1144,N-Back (New Version 2021),2021.1.4,120.7484471
,,,,Conditions/Version_1/oneback(4)_v1.xlsx,New rule: Press 'space' when you see 1-back (i.e. the same letter as the one that appeared 1 letter ago.),w,None,,,,,,,,,0,14,14,14,0,0,0,0,,,,,,,,,,,,,,,,,,,,,,,,,,,,,,,,,,,,,,,,,,,,,,,,,,,,,,,,,,,797.9654283,None,800.9538579,None,space,0.3458619,800.9538579,None,797.9654283,None,1.5928,802.9269933,None,None,1,802.9269933,None,,P052,fencog,1,Post,2022_Jun_18_1144,N-Back (New Version 2021),2021.1.4,120.7484471
,,,,Conditions/Version_1/oneback(4)_v1.xlsx,New rule: Press 'space' when you see 1-back (i.e. the same letter as the one that appeared 1 letter ago.),q,None,,,,,,,,,0,14,14,14,0,1,1,1,,,,,,,,,,,,,,,,,,,,,,,,,,,,,,,,,,,,,,,,,,,,,,,,,,,,,,,,,,,,,,,,,,,,,1.1154,806.0524198,None,None,1,806.0524198,None,,P052,fencog,1,Post,2022_Jun_18_1144,N-Back (New Version 2021),2021.1.4,120.7484471
,,,,Conditions/Version_1/oneback(4)_v1.xlsx,New rule: Press 'space' when you see 1-back (i.e. the same letter as the one that appeared 1 letter ago.),i,None,,,,,,,,,0,14,14,14,0,2,2,2,,,,,,,,,,,,,,,,,,,,,,,,,,,,,,,,,,,,,,,,,,,,,,,,,,,,,,,,,,,,,,,,,,,,,1.2394,809.3009839,None,None,1,809.3009839,None,,P052,fencog,1,Post,2022_Jun_18_1144,N-Back (New Version 2021),2021.1.4,120.7484471
,,,,Conditions/Version_1/oneback(4)_v1.xlsx,New rule: Press 'space' when you see 1-back (i.e. the same letter as the one that appeared 1 letter ago.),t,None,,,,,,,,,0,14,14,14,0,3,3,3,,,,,,,,,,,,,,,,,,,,,,,,,,,,,,,,,,,,,,,,,,,,,,,,,,,,,,,,,,,,,,,,,,,,,1.4874,812.7977778,None,None,1,812.7977778,None,,P052,fencog,1,Post,2022_Jun_18_1144,N-Back (New Version 2021),2021.1.4,120.7484471
,,,,Conditions/Version_1/oneback(4)_v1.xlsx,New rule: Press 'space' when you see 1-back (i.e. the same letter as the one that appeared 1 letter ago.),v,None,,,,,,,,,0,14,14,14,0,4,4,4,,,,,,,,,,,,,,,,,,,,,,,,,,,,,,,,,,,,,,,,,,,,,,,,,,,,,,,,,,,,,,,,,,,,,1.9586,816.756861,None,None,1,816.756861,None,,P052,fencog,1,Post,2022_Jun_18_1144,N-Back (New Version 2021),2021.1.4,120.7484471
,,,,Conditions/Version_1/oneback(4)_v1.xlsx,New rule: Press 'space' when you see 1-back (i.e. the same letter as the one that appeared 1 letter ago.),V,space,,,,,,,,,0,14,14,14,0,5,5,5,,,,,,,,,,,,,,,,,,,,,,,,,,,,,,,,,,,,,,,,,,,,,,,,,,,,,,,,,,,,,,,,,,,,,1.7912,820.557917,None,space,1,820.557917,None,0.7979791,P052,fencog,1,Post,2022_Jun_18_1144,N-Back (New Version 2021),2021.1.4,120.7484471
,,,,Conditions/Version_1/oneback(4)_v1.xlsx,New rule: Press 'space' when you see 1-back (i.e. the same letter as the one that appeared 1 letter ago.),v,space,,,,,,,,,0,14,14,14,0,6,6,6,,,,,,,,,,,,,,,,,,,,,,,,,,,,,,,,,,,,,,,,,,,,,,,,,,,,,,,,,,,,,,,,,,,,,1.5556,824.1230451,None,space,1,824.1230451,None,1.4807788,P052,fencog,1,Post,2022_Jun_18_1144,N-Back (New Version 2021),2021.1.4,120.7484471
,,,,Conditions/Version_1/oneback(4)_v1.xlsx,New rule: Press 'space' when you see 1-back (i.e. the same letter as the one that appeared 1 letter ago.),p,None,,,,,,,,,0,14,14,14,0,7,7,7,,,,,,,,,,,,,,,,,,,,,,,,,,,,,,,,,,,,,,,,,,,,,,,,,,,,,,,,,,,,,,,,,,,,,1.6052,827.7374387,None,None,1,827.7374387,None,,P052,fencog,1,Post,2022_Jun_18_1144,N-Back (New Version 2021),2021.1.4,120.7484471
,,,,Conditions/Version_1/oneback(4)_v1.xlsx,New rule: Press 'space' when you see 1-back (i.e. the same letter as the one that appeared 1 letter ago.),w,None,,,,,,,,,0,14,14,14,0,8,8,8,,,,,,,,,,,,,,,,,,,,,,,,,,,,,,,,,,,,,,,,,,,,,,,,,,,,,,,,,,,,,,,,,,,,,1.3696,831.1185791,None,None,1,831.1185791,None,,P052,fencog,1,Post,2022_Jun_18_1144,N-Back (New Version 2021),2021.1.4,120.7484471
,,,,Conditions/Version_1/oneback(4)_v1.xlsx,New rule: Press 'space' when you see 1-back (i.e. the same letter as the one that appeared 1 letter ago.),W,space,,,,,,,,,0,14,14,14,0,9,9,9,,,,,,,,,,,,,,,,,,,,,,,,,,,,,,,,,,,,,,,,,,,,,,,,,,,,,,,,,,,,,,,,,,,,,1.5246,834.6508599,None,space,1,834.6508599,None,0.6969566,P052,fencog,1,Post,2022_Jun_18_1144,N-Back (New Version 2021),2021.1.4,120.7484471
,,,,Conditions/Version_1/oneback(4)_v1.xlsx,New rule: Press 'space' when you see 1-back (i.e. the same letter as the one that appeared 1 letter ago.),,,,,,,,,,,0,14,14,14,,,,,,,,,,,,,,,,,,,,,,,,,,,,,,,,,,,,,,,,,,,,,,,,,,,,,,,,,,,,,,,,,,,,,,,,,,,,,,,,,P052,fencog,1,Post,2022_Jun_18_1144,N-Back (New Version 2021),2021.1.4,120.7484471
,,,,Conditions/Version_1/threeback(4)_v1.xlsx,New rule: Press 'space' when you see 3-back (i.e. the same letter as the one that appeared 3 letters ago.),A,None,,,,,,,,,0,15,15,15,0,0,0,0,,,,,,,,,,,,,,,,,,,,,,,,,,,,,,,,,,,,,,,,,,,,,,,,,,,,,,,,,,,836.6808419,None,839.6676845,None,space,0.5042118,839.6676845,None,836.6808419,None,1.2022,841.4060163,None,None,1,841.4060163,None,,P052,fencog,1,Post,2022_Jun_18_1144,N-Back (New Version 2021),2021.1.4,120.7484471
,,,,Conditions/Version_1/threeback(4)_v1.xlsx,New rule: Press 'space' when you see 3-back (i.e. the same letter as the one that appeared 3 letters ago.),n,None,,,,,,,,,0,15,15,15,0,1,1,1,,,,,,,,,,,,,,,,,,,,,,,,,,,,,,,,,,,,,,,,,,,,,,,,,,,,,,,,,,,,,,,,,,,,,1.9338,845.3393823,None,None,1,845.3393823,None,,P052,fencog,1,Post,2022_Jun_18_1144,N-Back (New Version 2021),2021.1.4,120.7484471
,,,,Conditions/Version_1/threeback(4)_v1.xlsx,New rule: Press 'space' when you see 3-back (i.e. the same letter as the one that appeared 3 letters ago.),g,None,,,,,,,,,0,15,15,15,0,2,2,2,,,,,,,,,,,,,,,,,,,,,,,,,,,,,,,,,,,,,,,,,,,,,,,,,,,,,,,,,,,,,,,,,,,,,1.444,848.7954968,None,None,1,848.7954968,None,,P052,fencog,1,Post,2022_Jun_18_1144,N-Back (New Version 2021),2021.1.4,120.7484471
,,,,Conditions/Version_1/threeback(4)_v1.xlsx,New rule: Press 'space' when you see 3-back (i.e. the same letter as the one that appeared 3 letters ago.),A,space,,,,,,,,,0,15,15,15,0,3,3,3,,,,,,,,,,,,,,,,,,,,,,,,,,,,,,,,,,,,,,,,,,,,,,,,,,,,,,,,,,,,,,,,,,,,,1.9896,852.7862019,None,space,1,852.7862019,None,0.7858363,P052,fencog,1,Post,2022_Jun_18_1144,N-Back (New Version 2021),2021.1.4,120.7484471
,,,,Conditions/Version_1/threeback(4)_v1.xlsx,New rule: Press 'space' when you see 3-back (i.e. the same letter as the one that appeared 3 letters ago.),p,None,,,,,,,,,0,15,15,15,0,4,4,4,,,,,,,,,,,,,,,,,,,,,,,,,,,,,,,,,,,,,,,,,,,,,,,,,,,,,,,,,,,,,,,,,,,,,1.165,855.9537202,None,None,1,855.9537202,None,,P052,fencog,1,Post,2022_Jun_18_1144,N-Back (New Version 2021),2021.1.4,120.7484471
,,,,Conditions/Version_1/threeback(4)_v1.xlsx,New rule: Press 'space' when you see 3-back (i.e. the same letter as the one that appeared 3 letters ago.),O,None,,,,,,,,,0,15,15,15,0,5,5,5,,,,,,,,,,,,,,,,,,,,,,,,,,,,,,,,,,,,,,,,,,,,,,,,,,,,,,,,,,,,,,,,,,,,,1.8284,859.792249,None,None,1,859.792249,None,,P052,fencog,1,Post,2022_Jun_18_1144,N-Back (New Version 2021),2021.1.4,120.7484471
,,,,Conditions/Version_1/threeback(4)_v1.xlsx,New rule: Press 'space' when you see 3-back (i.e. the same letter as the one that appeared 3 letters ago.),a,space,,,,,,,,,0,15,15,15,0,6,6,6,,,,,,,,,,,,,,,,,,,,,,,,,,,,,,,,,,,,,,,,,,,,,,,,,,,,,,,,,,,,,,,,,,,,,1.8904,863.6828725,None,space,1,863.6828725,None,1.3530726,P052,fencog,1,Post,2022_Jun_18_1144,N-Back (New Version 2021),2021.1.4,120.7484471
,,,,Conditions/Version_1/threeback(4)_v1.xlsx,New rule: Press 'space' when you see 3-back (i.e. the same letter as the one that appeared 3 letters ago.),p,space,,,,,,,,,0,15,15,15,0,7,7,7,,,,,,,,,,,,,,,,,,,,,,,,,,,,,,,,,,,,,,,,,,,,,,,,,,,,,,,,,,,,,,,,,,,,,1.0534,866.7403473,None,space,1,866.7403473,None,0.8714393,P052,fencog,1,Post,2022_Jun_18_1144,N-Back (New Version 2021),2021.1.4,120.7484471
,,,,Conditions/Version_1/threeback(4)_v1.xlsx,New rule: Press 'space' when you see 3-back (i.e. the same letter as the one that appeared 3 letters ago.),x,None,,,,,,,,,0,15,15,15,0,8,8,8,,,,,,,,,,,,,,,,,,,,,,,,,,,,,,,,,,,,,,,,,,,,,,,,,,,,,,,,,,,,,,,,,,,,,1.4626,870.207919,None,None,1,870.207919,None,,P052,fencog,1,Post,2022_Jun_18_1144,N-Back (New Version 2021),2021.1.4,120.7484471
,,,,Conditions/Version_1/threeback(4)_v1.xlsx,New rule: Press 'space' when you see 3-back (i.e. the same letter as the one that appeared 3 letters ago.),X,None,,,,,,,,,0,15,15,15,0,9,9,9,,,,,,,,,,,,,,,,,,,,,,,,,,,,,,,,,,,,,,,,,,,,,,,,,,,,,,,,,,,,,,,,,,,,,1.7044,873.9222567,None,None,1,873.9222567,None,,P052,fencog,1,Post,2022_Jun_18_1144,N-Back (New Version 2021),2021.1.4,120.7484471
,,,,Conditions/Version_1/threeback(4)_v1.xlsx,New rule: Press 'space' when you see 3-back (i.e. the same letter as the one that appeared 3 letters ago.),,,,,,,,,,,0,15,15,15,,,,,,,,,,,,,,,,,,,,,,,,,,,,,,,,,,,,,,,,,,,,,,,,,,,,,,,,,,,,,,,,,,,,,,,,,,,,,,,,,P052,fencog,1,Post,2022_Jun_18_1144,N-Back (New Version 2021),2021.1.4,120.7484471
