CondFileP,InstructionsP,LettersDisplayedP,CorrectnessP,CondFile,Instructions,LettersDisplayed,Correctness,practicetrials.thisRepN,practicetrials.thisTrialN,practicetrials.thisN,practicetrials.thisIndex,InnerLoopPractice.thisRepN,InnerLoopPractice.thisTrialN,InnerLoopPractice.thisN,InnerLoopPractice.thisIndex,trials.thisRepN,trials.thisTrialN,trials.thisN,trials.thisIndex,InnerLoop.thisRepN,InnerLoop.thisTrialN,InnerLoop.thisN,InnerLoop.thisIndex,TaskVersionText.started,TaskVersionText.stopped,InstrKey1.keys,InstrKey1.rt,InstrKey1.started,InstrKey1.stopped,text.started,text.stopped,key_resp_4.keys,key_resp_4.rt,key_resp_4.started,key_resp_4.stopped,text_2.started,text_2.stopped,key_resp_3.keys,key_resp_3.rt,key_resp_3.started,key_resp_3.stopped,text_3.started,text_3.stopped,key_resp_2.keys,key_resp_2.rt,key_resp_2.started,key_resp_2.stopped,PractIn1.started,PractIn1.stopped,PractIn2.started,PractIn2.stopped,PractInstructionPass.keys,PractInstructionPass.rt,PractInstructionPass.started,PractInstructionPass.stopped,PractBlock1.started,PractBlock1.stopped,ISIjitterPractice,ISI_Pract_Fixation.started,ISI_Pract_Fixation.stopped,N_backP.started,N_backP.stopped,KeyPractice.keys,KeyPractice.corr,KeyPractice.rt,KeyPractice.started,KeyPractice.stopped,text_4.started,text_4.stopped,TransitionText.started,TransitionText.stopped,key_resp_6.keys,key_resp_6.rt,key_resp_6.started,key_resp_6.stopped,text_5.started,text_5.stopped,key_resp_5.keys,key_resp_5.rt,key_resp_5.started,key_resp_5.stopped,MainInt1.started,MainInt1.stopped,MainInt2.started,MainInt2.stopped,InstructionPass.keys,InstructionPass.rt,InstructionPass.started,InstructionPass.stopped,Blocks1.started,Blocks1.stopped,ISIjitter,N_backD.started,N_backD.stopped,key_resp.keys,key_resp.corr,key_resp.started,key_resp.stopped,key_resp.rt,participant,Study Name,Task Version (required to run),PRE/POST,date,expName,psychopyVersion,frameRate
,,,,,,,,,,,,,,,,,,,,,,,,57.0365456,None,space,5.0692734,57.5314284,None,,,,,,,,,,,,,,,,,,,,,,,,,,,,,,,,,,,,,,,,,,,,,,,,,,,,,,,,,,,,,,,,,,,,,,,P053,FENCOG,2,Post,2022_Jun_21_1127,N-Back (New Version 2021),2021.1.4,119.4668909
,,,,,,,,,,,,,,,,,,,,,,,,,,,,,,62.6463946,None,space,3.7326437,63.1324765,None,,,,,,,,,,,,,,,,,,,,,,,,,,,,,,,,,,,,,,,,,,,,,,,,,,,,,,,,,,,,,,,,,P053,FENCOG,2,Post,2022_Jun_21_1127,N-Back (New Version 2021),2021.1.4,119.4668909
,,,,,,,,,,,,,,,,,,,,,,,,,,,,,,,,,,,,66.9253737,None,space,2.1397629,67.4210188,None,,,,,,,,,,,,,,,,,,,,,,,,,,,,,,,,,,,,,,,,,,,,,,,,,,,,,,,,,,,P053,FENCOG,2,Post,2022_Jun_21_1127,N-Back (New Version 2021),2021.1.4,119.4668909
,,,,,,,,,,,,,,,,,,,,,,,,,,,,,,,,,,,,,,,,,,69.6116356,None,space,8.2963459,70.1044253,None,,,,,,,,,,,,,,,,,,,,,,,,,,,,,,,,,,,,,,,,,,,,,,,,,,,,,P053,FENCOG,2,Post,2022_Jun_21_1127,N-Back (New Version 2021),2021.1.4,119.4668909
Conditions/Version_2Pr/zeroback(1)_v2.xlsx,Rule: Press 'space' when you see the letter 'x' or 'X'.,x,space,,,,,0,0,0,0,0,0,0,0,,,,,,,,,,,,,,,,,,,,,,,,,,,,,,,,,79.9974394,None,82.975993,None,space,0.5124751,82.975993,None,79.9974394,None,1.74,83.528602,None,85.2819235,None,space,1,1.4305563,85.2819235,None,86.7428264,None,,,,,,,,,,,,,,,,,,,,,,,,,,,,,,,P053,FENCOG,2,Post,2022_Jun_21_1127,N-Back (New Version 2021),2021.1.4,119.4668909
Conditions/Version_2Pr/zeroback(1)_v2.xlsx,Rule: Press 'space' when you see the letter 'x' or 'X'.,R,None,,,,,0,0,0,0,0,1,1,1,,,,,,,,,,,,,,,,,,,,,,,,,,,,,,,,,,,,,,,,,,,1.94,88.2499892,None,90.2002094,None,None,1,,90.2002094,None,92.1993619,None,,,,,,,,,,,,,,,,,,,,,,,,,,,,,,,P053,FENCOG,2,Post,2022_Jun_21_1127,N-Back (New Version 2021),2021.1.4,119.4668909
Conditions/Version_2Pr/zeroback(1)_v2.xlsx,Rule: Press 'space' when you see the letter 'x' or 'X'.,p,None,,,,,0,0,0,0,0,2,2,2,,,,,,,,,,,,,,,,,,,,,,,,,,,,,,,,,,,,,,,,,,,1.615,93.7038948,None,95.3221213,None,None,1,,95.3221213,None,97.3239692,None,,,,,,,,,,,,,,,,,,,,,,,,,,,,,,,P053,FENCOG,2,Post,2022_Jun_21_1127,N-Back (New Version 2021),2021.1.4,119.4668909
Conditions/Version_2Pr/zeroback(1)_v2.xlsx,Rule: Press 'space' when you see the letter 'x' or 'X'.,O,None,,,,,0,0,0,0,0,3,3,3,,,,,,,,,,,,,,,,,,,,,,,,,,,,,,,,,,,,,,,,,,,1.815,98.8272264,None,100.6523787,None,None,1,,100.6523787,None,102.6542254,None,,,,,,,,,,,,,,,,,,,,,,,,,,,,,,,P053,FENCOG,2,Post,2022_Jun_21_1127,N-Back (New Version 2021),2021.1.4,119.4668909
Conditions/Version_2Pr/zeroback(1)_v2.xlsx,Rule: Press 'space' when you see the letter 'x' or 'X'.,i,None,,,,,0,0,0,0,0,4,4,4,,,,,,,,,,,,,,,,,,,,,,,,,,,,,,,,,,,,,,,,,,,1.765,104.1510382,None,105.9271788,None,None,1,,105.9271788,None,107.9260126,None,,,,,,,,,,,,,,,,,,,,,,,,,,,,,,,P053,FENCOG,2,Post,2022_Jun_21_1127,N-Back (New Version 2021),2021.1.4,119.4668909
Conditions/Version_2Pr/zeroback(1)_v2.xlsx,Rule: Press 'space' when you see the letter 'x' or 'X'.,U,None,,,,,0,0,0,0,0,5,5,5,,,,,,,,,,,,,,,,,,,,,,,,,,,,,,,,,,,,,,,,,,,1.215,109.4244447,None,110.6437855,None,None,1,,110.6437855,None,112.6464629,None,,,,,,,,,,,,,,,,,,,,,,,,,,,,,,,P053,FENCOG,2,Post,2022_Jun_21_1127,N-Back (New Version 2021),2021.1.4,119.4668909
Conditions/Version_2Pr/zeroback(1)_v2.xlsx,Rule: Press 'space' when you see the letter 'x' or 'X'.,N,None,,,,,0,0,0,0,0,6,6,6,,,,,,,,,,,,,,,,,,,,,,,,,,,,,,,,,,,,,,,,,,,1.165,114.1477146,None,115.3210539,None,None,1,,115.3210539,None,117.3217763,None,,,,,,,,,,,,,,,,,,,,,,,,,,,,,,,P053,FENCOG,2,Post,2022_Jun_21_1127,N-Back (New Version 2021),2021.1.4,119.4668909
Conditions/Version_2Pr/zeroback(1)_v2.xlsx,Rule: Press 'space' when you see the letter 'x' or 'X'.,m,None,,,,,0,0,0,0,0,7,7,7,,,,,,,,,,,,,,,,,,,,,,,,,,,,,,,,,,,,,,,,,,,1.465,118.821433,None,120.2983756,None,None,1,,120.2983756,None,122.2962711,None,,,,,,,,,,,,,,,,,,,,,,,,,,,,,,,P053,FENCOG,2,Post,2022_Jun_21_1127,N-Back (New Version 2021),2021.1.4,119.4668909
Conditions/Version_2Pr/zeroback(1)_v2.xlsx,Rule: Press 'space' when you see the letter 'x' or 'X'.,x,space,,,,,0,0,0,0,0,8,8,8,,,,,,,,,,,,,,,,,,,,,,,,,,,,,,,,,,,,,,,,,,,1.415,123.7949306,None,125.2151191,None,space,1,0.8257084,125.2151191,None,126.0579855,None,,,,,,,,,,,,,,,,,,,,,,,,,,,,,,,P053,FENCOG,2,Post,2022_Jun_21_1127,N-Back (New Version 2021),2021.1.4,119.4668909
Conditions/Version_2Pr/zeroback(1)_v2.xlsx,Rule: Press 'space' when you see the letter 'x' or 'X'.,X,space,,,,,0,0,0,0,0,9,9,9,,,,,,,,,,,,,,,,,,,,,,,,,,,,,,,,,,,,,,,,,,,1.14,127.5629354,None,128.7131512,None,space,1,0.3835971,128.7131512,None,129.1159995,None,,,,,,,,,,,,,,,,,,,,,,,,,,,,,,,P053,FENCOG,2,Post,2022_Jun_21_1127,N-Back (New Version 2021),2021.1.4,119.4668909
Conditions/Version_2Pr/zeroback(1)_v2.xlsx,Rule: Press 'space' when you see the letter 'x' or 'X'.,,,,,,,0,0,0,0,,,,,,,,,,,,,,,,,,,,,,,,,,,,,,,,,,,,,,,,,,,,,,,,,,,,,,,,,,,,,,,,,,,,,,,,,,,,,,,,,,,,,,,,,P053,FENCOG,2,Post,2022_Jun_21_1127,N-Back (New Version 2021),2021.1.4,119.4668909
Conditions/Version_2Pr/oneback(1)_v2.xlsx,New rule: Press 'space' when you see 1-back (i.e. the same letter as the one that appeared 1 letter ago.),r,None,,,,,0,1,1,1,0,0,0,0,,,,,,,,,,,,,,,,,,,,,,,,,,,,,,,,,130.6603935,None,133.6471966,None,space,0.0250991,133.6471966,None,130.6603935,None,1.19,133.7086725,None,134.9074522,None,None,1,,134.9074522,None,136.9140019,None,,,,,,,,,,,,,,,,,,,,,,,,,,,,,,,P053,FENCOG,2,Post,2022_Jun_21_1127,N-Back (New Version 2021),2021.1.4,119.4668909
Conditions/Version_2Pr/oneback(1)_v2.xlsx,New rule: Press 'space' when you see 1-back (i.e. the same letter as the one that appeared 1 letter ago.),t,None,,,,,0,1,1,1,0,1,1,1,,,,,,,,,,,,,,,,,,,,,,,,,,,,,,,,,,,,,,,,,,,1.565,138.4072511,None,139.9798372,None,None,1,,139.9798372,None,141.9840955,None,,,,,,,,,,,,,,,,,,,,,,,,,,,,,,,P053,FENCOG,2,Post,2022_Jun_21_1127,N-Back (New Version 2021),2021.1.4,119.4668909
Conditions/Version_2Pr/oneback(1)_v2.xlsx,New rule: Press 'space' when you see 1-back (i.e. the same letter as the one that appeared 1 letter ago.),Y,None,,,,,0,1,1,1,0,2,2,2,,,,,,,,,,,,,,,,,,,,,,,,,,,,,,,,,,,,,,,,,,,1.89,143.4811011,None,145.379324,None,None,1,,145.379324,None,147.3790673,None,,,,,,,,,,,,,,,,,,,,,,,,,,,,,,,P053,FENCOG,2,Post,2022_Jun_21_1127,N-Back (New Version 2021),2021.1.4,119.4668909
Conditions/Version_2Pr/oneback(1)_v2.xlsx,New rule: Press 'space' when you see 1-back (i.e. the same letter as the one that appeared 1 letter ago.),y,space,,,,,0,1,1,1,0,3,3,3,,,,,,,,,,,,,,,,,,,,,,,,,,,,,,,,,,,,,,,,,,,1.49,148.8792203,None,150.3702641,None,space,1,0.4857954,150.3702641,None,150.8710081,None,,,,,,,,,,,,,,,,,,,,,,,,,,,,,,,P053,FENCOG,2,Post,2022_Jun_21_1127,N-Back (New Version 2021),2021.1.4,119.4668909
Conditions/Version_2Pr/oneback(1)_v2.xlsx,New rule: Press 'space' when you see 1-back (i.e. the same letter as the one that appeared 1 letter ago.),p,None,,,,,0,1,1,1,0,4,4,4,,,,,,,,,,,,,,,,,,,,,,,,,,,,,,,,,,,,,,,,,,,1.865,152.3794555,None,154.2484238,None,None,1,,154.2484238,None,156.253771,None,,,,,,,,,,,,,,,,,,,,,,,,,,,,,,,P053,FENCOG,2,Post,2022_Jun_21_1127,N-Back (New Version 2021),2021.1.4,119.4668909
Conditions/Version_2Pr/oneback(1)_v2.xlsx,New rule: Press 'space' when you see 1-back (i.e. the same letter as the one that appeared 1 letter ago.),P,space,,,,,0,1,1,1,0,5,5,5,,,,,,,,,,,,,,,,,,,,,,,,,,,,,,,,,,,,,,,,,,,1.99,157.7516542,None,159.7479495,None,space,1,0.6533082,159.7479495,None,160.4184227,None,,,,,,,,,,,,,,,,,,,,,,,,,,,,,,,P053,FENCOG,2,Post,2022_Jun_21_1127,N-Back (New Version 2021),2021.1.4,119.4668909
Conditions/Version_2Pr/oneback(1)_v2.xlsx,New rule: Press 'space' when you see 1-back (i.e. the same letter as the one that appeared 1 letter ago.),e,None,,,,,0,1,1,1,0,6,6,6,,,,,,,,,,,,,,,,,,,,,,,,,,,,,,,,,,,,,,,,,,,1.39,161.9276082,None,163.3235153,None,None,1,,163.3235153,None,165.3188913,None,,,,,,,,,,,,,,,,,,,,,,,,,,,,,,,P053,FENCOG,2,Post,2022_Jun_21_1127,N-Back (New Version 2021),2021.1.4,119.4668909
Conditions/Version_2Pr/oneback(1)_v2.xlsx,New rule: Press 'space' when you see 1-back (i.e. the same letter as the one that appeared 1 letter ago.),r,None,,,,,0,1,1,1,0,7,7,7,,,,,,,,,,,,,,,,,,,,,,,,,,,,,,,,,,,,,,,,,,,1.965,166.8239811,None,168.7951526,None,None,1,,168.7951526,None,170.7986317,None,,,,,,,,,,,,,,,,,,,,,,,,,,,,,,,P053,FENCOG,2,Post,2022_Jun_21_1127,N-Back (New Version 2021),2021.1.4,119.4668909
Conditions/Version_2Pr/oneback(1)_v2.xlsx,New rule: Press 'space' when you see 1-back (i.e. the same letter as the one that appeared 1 letter ago.),R,space,,,,,0,1,1,1,0,8,8,8,,,,,,,,,,,,,,,,,,,,,,,,,,,,,,,,,,,,,,,,,,,1.615,172.2973223,None,173.9175661,None,space,1,0.4590766,173.9175661,None,174.3972347,None,,,,,,,,,,,,,,,,,,,,,,,,,,,,,,,P053,FENCOG,2,Post,2022_Jun_21_1127,N-Back (New Version 2021),2021.1.4,119.4668909
Conditions/Version_2Pr/oneback(1)_v2.xlsx,New rule: Press 'space' when you see 1-back (i.e. the same letter as the one that appeared 1 letter ago.),p,None,,,,,0,1,1,1,0,9,9,9,,,,,,,,,,,,,,,,,,,,,,,,,,,,,,,,,,,,,,,,,,,1.09,175.8977324,None,176.9897957,None,None,1,,176.9897957,None,178.9935251,None,,,,,,,,,,,,,,,,,,,,,,,,,,,,,,,P053,FENCOG,2,Post,2022_Jun_21_1127,N-Back (New Version 2021),2021.1.4,119.4668909
Conditions/Version_2Pr/oneback(1)_v2.xlsx,New rule: Press 'space' when you see 1-back (i.e. the same letter as the one that appeared 1 letter ago.),,,,,,,0,1,1,1,,,,,,,,,,,,,,,,,,,,,,,,,,,,,,,,,,,,,,,,,,,,,,,,,,,,,,,,,,,,,,,,,,,,,,,,,,,,,,,,,,,,,,,,,P053,FENCOG,2,Post,2022_Jun_21_1127,N-Back (New Version 2021),2021.1.4,119.4668909
Conditions/Version_2Pr/twoback(1)_v2.xlsx,New rule: Press 'space' when you see 2-back (i.e. the same letter as the one that appeared 2 letters ago.),r,None,,,,,0,2,2,2,0,0,0,0,,,,,,,,,,,,,,,,,,,,,,,,,,,,,,,,,180.5360921,None,183.5209491,None,space,0.631227,183.5209491,None,180.5360921,None,1.59,184.1824864,None,185.7781939,None,None,1,,185.7781939,None,187.7873936,None,,,,,,,,,,,,,,,,,,,,,,,,,,,,,,,P053,FENCOG,2,Post,2022_Jun_21_1127,N-Back (New Version 2021),2021.1.4,119.4668909
Conditions/Version_2Pr/twoback(1)_v2.xlsx,New rule: Press 'space' when you see 2-back (i.e. the same letter as the one that appeared 2 letters ago.),P,None,,,,,0,2,2,2,0,1,1,1,,,,,,,,,,,,,,,,,,,,,,,,,,,,,,,,,,,,,,,,,,,1.365,189.2848174,None,190.6542557,None,None,1,,190.6542557,None,192.6544997,None,,,,,,,,,,,,,,,,,,,,,,,,,,,,,,,P053,FENCOG,2,Post,2022_Jun_21_1127,N-Back (New Version 2021),2021.1.4,119.4668909
Conditions/Version_2Pr/twoback(1)_v2.xlsx,New rule: Press 'space' when you see 2-back (i.e. the same letter as the one that appeared 2 letters ago.),o,None,,,,,0,2,2,2,0,2,2,2,,,,,,,,,,,,,,,,,,,,,,,,,,,,,,,,,,,,,,,,,,,1.24,194.1574079,None,195.4059011,None,None,1,,195.4059011,None,197.4040071,None,,,,,,,,,,,,,,,,,,,,,,,,,,,,,,,P053,FENCOG,2,Post,2022_Jun_21_1127,N-Back (New Version 2021),2021.1.4,119.4668909
Conditions/Version_2Pr/twoback(1)_v2.xlsx,New rule: Press 'space' when you see 2-back (i.e. the same letter as the one that appeared 2 letters ago.),p,space,,,,,0,2,2,2,0,3,3,3,,,,,,,,,,,,,,,,,,,,,,,,,,,,,,,,,,,,,,,,,,,1.815,198.9060367,None,200.7295705,None,space,1,0.4388939,200.7295705,None,201.1871161,None,,,,,,,,,,,,,,,,,,,,,,,,,,,,,,,P053,FENCOG,2,Post,2022_Jun_21_1127,N-Back (New Version 2021),2021.1.4,119.4668909
Conditions/Version_2Pr/twoback(1)_v2.xlsx,New rule: Press 'space' when you see 2-back (i.e. the same letter as the one that appeared 2 letters ago.),Y,None,,,,,0,2,2,2,0,4,4,4,,,,,,,,,,,,,,,,,,,,,,,,,,,,,,,,,,,,,,,,,,,1.215,202.689874,None,203.9087365,None,None,1,,203.9087365,None,205.9168489,None,,,,,,,,,,,,,,,,,,,,,,,,,,,,,,,P053,FENCOG,2,Post,2022_Jun_21_1127,N-Back (New Version 2021),2021.1.4,119.4668909
Conditions/Version_2Pr/twoback(1)_v2.xlsx,New rule: Press 'space' when you see 2-back (i.e. the same letter as the one that appeared 2 letters ago.),q,None,,,,,0,2,2,2,0,5,5,5,,,,,,,,,,,,,,,,,,,,,,,,,,,,,,,,,,,,,,,,,,,1.94,207.4129953,None,209.3604211,None,None,1,,209.3604211,None,211.3604138,None,,,,,,,,,,,,,,,,,,,,,,,,,,,,,,,P053,FENCOG,2,Post,2022_Jun_21_1127,N-Back (New Version 2021),2021.1.4,119.4668909
Conditions/Version_2Pr/twoback(1)_v2.xlsx,New rule: Press 'space' when you see 2-back (i.e. the same letter as the one that appeared 2 letters ago.),m,None,,,,,0,2,2,2,0,6,6,6,,,,,,,,,,,,,,,,,,,,,,,,,,,,,,,,,,,,,,,,,,,1.89,212.8609621,None,214.7577129,None,None,1,,214.7577129,None,216.7633847,None,,,,,,,,,,,,,,,,,,,,,,,,,,,,,,,P053,FENCOG,2,Post,2022_Jun_21_1127,N-Back (New Version 2021),2021.1.4,119.4668909
Conditions/Version_2Pr/twoback(1)_v2.xlsx,New rule: Press 'space' when you see 2-back (i.e. the same letter as the one that appeared 2 letters ago.),Q,space,,,,,0,2,2,2,0,7,7,7,,,,,,,,,,,,,,,,,,,,,,,,,,,,,,,,,,,,,,,,,,,1.34,218.2588162,None,219.6078904,None,space,1,0.4245828,219.6078904,None,220.0512249,None,,,,,,,,,,,,,,,,,,,,,,,,,,,,,,,P053,FENCOG,2,Post,2022_Jun_21_1127,N-Back (New Version 2021),2021.1.4,119.4668909
Conditions/Version_2Pr/twoback(1)_v2.xlsx,New rule: Press 'space' when you see 2-back (i.e. the same letter as the one that appeared 2 letters ago.),L,None,,,,,0,2,2,2,0,8,8,8,,,,,,,,,,,,,,,,,,,,,,,,,,,,,,,,,,,,,,,,,,,1.315,221.5596519,None,222.8816732,None,None,1,,222.8816732,None,224.8878224,None,,,,,,,,,,,,,,,,,,,,,,,,,,,,,,,P053,FENCOG,2,Post,2022_Jun_21_1127,N-Back (New Version 2021),2021.1.4,119.4668909
Conditions/Version_2Pr/twoback(1)_v2.xlsx,New rule: Press 'space' when you see 2-back (i.e. the same letter as the one that appeared 2 letters ago.),q,space,,,,,0,2,2,2,0,9,9,9,,,,,,,,,,,,,,,,,,,,,,,,,,,,,,,,,,,,,,,,,,,1.54,226.3812978,None,227.9277438,None,space,1,0.3527239,227.9277438,None,228.29704,None,,,,,,,,,,,,,,,,,,,,,,,,,,,,,,,P053,FENCOG,2,Post,2022_Jun_21_1127,N-Back (New Version 2021),2021.1.4,119.4668909
Conditions/Version_2Pr/twoback(1)_v2.xlsx,New rule: Press 'space' when you see 2-back (i.e. the same letter as the one that appeared 2 letters ago.),,,,,,,0,2,2,2,,,,,,,,,,,,,,,,,,,,,,,,,,,,,,,,,,,,,,,,,,,,,,,,,,,,,,,,,,,,,,,,,,,,,,,,,,,,,,,,,,,,,,,,,P053,FENCOG,2,Post,2022_Jun_21_1127,N-Back (New Version 2021),2021.1.4,119.4668909
Conditions/Version_2Pr/threeback(1)_v2.xlsx,New rule: Press 'space' when you see 3-back (i.e. the same letter as the one that appeared 3 letters ago.),u,None,,,,,0,3,3,3,0,0,0,0,,,,,,,,,,,,,,,,,,,,,,,,,,,,,,,,,229.8257034,None,232.8100293,None,space,0.6381984,232.8100293,None,229.8257034,None,1.04,233.4873437,None,234.5349105,None,None,1,,234.5349105,None,236.5352821,None,,,,,,,,,,,,,,,,,,,,,,,,,,,,,,,P053,FENCOG,2,Post,2022_Jun_21_1127,N-Back (New Version 2021),2021.1.4,119.4668909
Conditions/Version_2Pr/threeback(1)_v2.xlsx,New rule: Press 'space' when you see 3-back (i.e. the same letter as the one that appeared 3 letters ago.),U,None,,,,,0,3,3,3,0,1,1,1,,,,,,,,,,,,,,,,,,,,,,,,,,,,,,,,,,,,,,,,,,,1.89,238.0362939,None,239.9322408,None,space,0,0.6603759,239.9322408,None,240.6198095,None,,,,,,,,,,,,,,,,,,,,,,,,,,,,,,,P053,FENCOG,2,Post,2022_Jun_21_1127,N-Back (New Version 2021),2021.1.4,119.4668909
Conditions/Version_2Pr/threeback(1)_v2.xlsx,New rule: Press 'space' when you see 3-back (i.e. the same letter as the one that appeared 3 letters ago.),p,None,,,,,0,3,3,3,0,2,2,2,,,,,,,,,,,,,,,,,,,,,,,,,,,,,,,,,,,,,,,,,,,1.24,242.1286005,None,243.3712366,None,None,1,,243.3712366,None,245.3842814,None,,,,,,,,,,,,,,,,,,,,,,,,,,,,,,,P053,FENCOG,2,Post,2022_Jun_21_1127,N-Back (New Version 2021),2021.1.4,119.4668909
Conditions/Version_2Pr/threeback(1)_v2.xlsx,New rule: Press 'space' when you see 3-back (i.e. the same letter as the one that appeared 3 letters ago.),U,space,,,,,0,3,3,3,0,3,3,3,,,,,,,,,,,,,,,,,,,,,,,,,,,,,,,,,,,,,,,,,,,1.965,246.875254,None,248.845624,None,space,1,0.3947998,248.845624,None,249.2562879,None,,,,,,,,,,,,,,,,,,,,,,,,,,,,,,,P053,FENCOG,2,Post,2022_Jun_21_1127,N-Back (New Version 2021),2021.1.4,119.4668909
Conditions/Version_2Pr/threeback(1)_v2.xlsx,New rule: Press 'space' when you see 3-back (i.e. the same letter as the one that appeared 3 letters ago.),e,None,,,,,0,3,3,3,0,4,4,4,,,,,,,,,,,,,,,,,,,,,,,,,,,,,,,,,,,,,,,,,,,1.19,250.7587242,None,251.9543057,None,None,1,,251.9543057,None,253.9542006,None,,,,,,,,,,,,,,,,,,,,,,,,,,,,,,,P053,FENCOG,2,Post,2022_Jun_21_1127,N-Back (New Version 2021),2021.1.4,119.4668909
Conditions/Version_2Pr/threeback(1)_v2.xlsx,New rule: Press 'space' when you see 3-back (i.e. the same letter as the one that appeared 3 letters ago.),R,None,,,,,0,3,3,3,0,5,5,5,,,,,,,,,,,,,,,,,,,,,,,,,,,,,,,,,,,,,,,,,,,1.765,255.4560402,None,257.2276878,None,None,1,,257.2276878,None,259.2353196,None,,,,,,,,,,,,,,,,,,,,,,,,,,,,,,,P053,FENCOG,2,Post,2022_Jun_21_1127,N-Back (New Version 2021),2021.1.4,119.4668909
Conditions/Version_2Pr/threeback(1)_v2.xlsx,New rule: Press 'space' when you see 3-back (i.e. the same letter as the one that appeared 3 letters ago.),p,None,,,,,0,3,3,3,0,6,6,6,,,,,,,,,,,,,,,,,,,,,,,,,,,,,,,,,,,,,,,,,,,1.215,260.730661,None,261.9515451,None,None,1,,261.9515451,None,263.9503901,None,,,,,,,,,,,,,,,,,,,,,,,,,,,,,,,P053,FENCOG,2,Post,2022_Jun_21_1127,N-Back (New Version 2021),2021.1.4,119.4668909
Conditions/Version_2Pr/threeback(1)_v2.xlsx,New rule: Press 'space' when you see 3-back (i.e. the same letter as the one that appeared 3 letters ago.),E,space,,,,,0,3,3,3,0,7,7,7,,,,,,,,,,,,,,,,,,,,,,,,,,,,,,,,,,,,,,,,,,,1.84,265.4532682,None,267.2986973,None,space,1,0.4457029,267.2986973,None,267.7542126,None,,,,,,,,,,,,,,,,,,,,,,,,,,,,,,,P053,FENCOG,2,Post,2022_Jun_21_1127,N-Back (New Version 2021),2021.1.4,119.4668909
Conditions/Version_2Pr/threeback(1)_v2.xlsx,New rule: Press 'space' when you see 3-back (i.e. the same letter as the one that appeared 3 letters ago.),k,None,,,,,0,3,3,3,0,8,8,8,,,,,,,,,,,,,,,,,,,,,,,,,,,,,,,,,,,,,,,,,,,2.015,269.2640322,None,271.2924091,None,None,1,,271.2924091,None,273.2917115,None,,,,,,,,,,,,,,,,,,,,,,,,,,,,,,,P053,FENCOG,2,Post,2022_Jun_21_1127,N-Back (New Version 2021),2021.1.4,119.4668909
Conditions/Version_2Pr/threeback(1)_v2.xlsx,New rule: Press 'space' when you see 3-back (i.e. the same letter as the one that appeared 3 letters ago.),m,None,,,,,0,3,3,3,0,9,9,9,,,,,,,,,,,,,,,,,,,,,,,,,,,,,,,,,,,,,,,,,,,1.49,274.7919416,None,276.2878191,None,None,1,,276.2878191,None,278.2891062,None,,,,,,,,,,,,,,,,,,,,,,,,,,,,,,,P053,FENCOG,2,Post,2022_Jun_21_1127,N-Back (New Version 2021),2021.1.4,119.4668909
Conditions/Version_2Pr/threeback(1)_v2.xlsx,New rule: Press 'space' when you see 3-back (i.e. the same letter as the one that appeared 3 letters ago.),,,,,,,0,3,3,3,,,,,,,,,,,,,,,,,,,,,,,,,,,,,,,,,,,,,,,,,,,,,,,,,,,,,,,,,,,,,,,,,,,,,,,,,,,,,,,,,,,,,,,,,P053,FENCOG,2,Post,2022_Jun_21_1127,N-Back (New Version 2021),2021.1.4,119.4668909
,,,,,,,,,,,,,,,,,,,,,,,,,,,,,,,,,,,,,,,,,,,,,,,,,,,,,,,,,,,,,,,,,,,,,,279.813415,None,space,115.6526289,280.3074133,None,,,,,,,,,,,,,,,,,,,,,,,,,P053,FENCOG,2,Post,2022_Jun_21_1127,N-Back (New Version 2021),2021.1.4,119.4668909
,,,,,,,,,,,,,,,,,,,,,,,,,,,,,,,,,,,,,,,,,,,,,,,,,,,,,,,,,,,,,,,,,,,,,,,,,,,,395.9917256,None,space,2.951101,396.4815191,None,,,,,,,,,,,,,,,,,,,P053,FENCOG,2,Post,2022_Jun_21_1127,N-Back (New Version 2021),2021.1.4,119.4668909
,,,,Conditions/Version_1/zeroback(1)_v1.xlsx,Rule: Press 'space' when you see the letter 'x' or 'X'.,b,None,,,,,,,,,0,0,0,0,0,0,0,0,,,,,,,,,,,,,,,,,,,,,,,,,,,,,,,,,,,,,,,,,,,,,,,,,,,,,,,,,,,399.5792745,None,402.5675356,None,space,0.3845137,402.5675356,None,399.5792745,None,1.8904,404.8988221,None,None,1,404.8988221,None,,P053,FENCOG,2,Post,2022_Jun_21_1127,N-Back (New Version 2021),2021.1.4,119.4668909
,,,,Conditions/Version_1/zeroback(1)_v1.xlsx,Rule: Press 'space' when you see the letter 'x' or 'X'.,T,None,,,,,,,,,0,0,0,0,0,1,1,1,,,,,,,,,,,,,,,,,,,,,,,,,,,,,,,,,,,,,,,,,,,,,,,,,,,,,,,,,,,,,,,,,,,,,1.878,408.7777986,None,None,1,408.7777986,None,,P053,FENCOG,2,Post,2022_Jun_21_1127,N-Back (New Version 2021),2021.1.4,119.4668909
,,,,Conditions/Version_1/zeroback(1)_v1.xlsx,Rule: Press 'space' when you see the letter 'x' or 'X'.,L,None,,,,,,,,,0,0,0,0,0,2,2,2,,,,,,,,,,,,,,,,,,,,,,,,,,,,,,,,,,,,,,,,,,,,,,,,,,,,,,,,,,,,,,,,,,,,,1.2518,412.0396064,None,None,1,412.0396064,None,,P053,FENCOG,2,Post,2022_Jun_21_1127,N-Back (New Version 2021),2021.1.4,119.4668909
,,,,Conditions/Version_1/zeroback(1)_v1.xlsx,Rule: Press 'space' when you see the letter 'x' or 'X'.,x,space,,,,,,,,,0,0,0,0,0,3,3,3,,,,,,,,,,,,,,,,,,,,,,,,,,,,,,,,,,,,,,,,,,,,,,,,,,,,,,,,,,,,,,,,,,,,,1.7664,415.8133595,None,space,1,415.8133595,None,0.522849,P053,FENCOG,2,Post,2022_Jun_21_1127,N-Back (New Version 2021),2021.1.4,119.4668909
,,,,Conditions/Version_1/zeroback(1)_v1.xlsx,Rule: Press 'space' when you see the letter 'x' or 'X'.,o,None,,,,,,,,,0,0,0,0,0,4,4,4,,,,,,,,,,,,,,,,,,,,,,,,,,,,,,,,,,,,,,,,,,,,,,,,,,,,,,,,,,,,,,,,,,,,,1.9648,419.7866626,None,None,1,419.7866626,None,,P053,FENCOG,2,Post,2022_Jun_21_1127,N-Back (New Version 2021),2021.1.4,119.4668909
,,,,Conditions/Version_1/zeroback(1)_v1.xlsx,Rule: Press 'space' when you see the letter 'x' or 'X'.,P,None,,,,,,,,,0,0,0,0,0,5,5,5,,,,,,,,,,,,,,,,,,,,,,,,,,,,,,,,,,,,,,,,,,,,,,,,,,,,,,,,,,,,,,,,,,,,,1.7974,423.5937493,None,None,1,423.5937493,None,,P053,FENCOG,2,Post,2022_Jun_21_1127,N-Back (New Version 2021),2021.1.4,119.4668909
,,,,Conditions/Version_1/zeroback(1)_v1.xlsx,Rule: Press 'space' when you see the letter 'x' or 'X'.,X,space,,,,,,,,,0,0,0,0,0,6,6,6,,,,,,,,,,,,,,,,,,,,,,,,,,,,,,,,,,,,,,,,,,,,,,,,,,,,,,,,,,,,,,,,,,,,,1.0286,426.6355395,None,space,1,426.6355395,None,0.932549,P053,FENCOG,2,Post,2022_Jun_21_1127,N-Back (New Version 2021),2021.1.4,119.4668909
,,,,Conditions/Version_1/zeroback(1)_v1.xlsx,Rule: Press 'space' when you see the letter 'x' or 'X'.,n,None,,,,,,,,,0,0,0,0,0,7,7,7,,,,,,,,,,,,,,,,,,,,,,,,,,,,,,,,,,,,,,,,,,,,,,,,,,,,,,,,,,,,,,,,,,,,,1.4626,430.1111297,None,None,1,430.1111297,None,,P053,FENCOG,2,Post,2022_Jun_21_1127,N-Back (New Version 2021),2021.1.4,119.4668909
,,,,Conditions/Version_1/zeroback(1)_v1.xlsx,Rule: Press 'space' when you see the letter 'x' or 'X'.,M,None,,,,,,,,,0,0,0,0,0,8,8,8,,,,,,,,,,,,,,,,,,,,,,,,,,,,,,,,,,,,,,,,,,,,,,,,,,,,,,,,,,,,,,,,,,,,,1.6424,433.7680427,None,None,1,433.7680427,None,,P053,FENCOG,2,Post,2022_Jun_21_1127,N-Back (New Version 2021),2021.1.4,119.4668909
,,,,Conditions/Version_1/zeroback(1)_v1.xlsx,Rule: Press 'space' when you see the letter 'x' or 'X'.,a,None,,,,,,,,,0,0,0,0,0,9,9,9,,,,,,,,,,,,,,,,,,,,,,,,,,,,,,,,,,,,,,,,,,,,,,,,,,,,,,,,,,,,,,,,,,,,,1.258,437.0430674,None,None,1,437.0430674,None,,P053,FENCOG,2,Post,2022_Jun_21_1127,N-Back (New Version 2021),2021.1.4,119.4668909
,,,,Conditions/Version_1/zeroback(1)_v1.xlsx,Rule: Press 'space' when you see the letter 'x' or 'X'.,,,,,,,,,,,0,0,0,0,,,,,,,,,,,,,,,,,,,,,,,,,,,,,,,,,,,,,,,,,,,,,,,,,,,,,,,,,,,,,,,,,,,,,,,,,,,,,,,,,P053,FENCOG,2,Post,2022_Jun_21_1127,N-Back (New Version 2021),2021.1.4,119.4668909
,,,,Conditions/Version_1/oneback(1)_v1.xlsx,New rule: Press 'space' when you see 1-back (i.e. the same letter as the one that appeared 1 letter ago.),b,None,,,,,,,,,0,1,1,1,0,0,0,0,,,,,,,,,,,,,,,,,,,,,,,,,,,,,,,,,,,,,,,,,,,,,,,,,,,,,,,,,,,439.0793062,None,442.0631418,None,space,0.8168909,442.0631418,None,439.0793062,None,1.7168,444.6457547,None,None,1,444.6457547,None,,P053,FENCOG,2,Post,2022_Jun_21_1127,N-Back (New Version 2021),2021.1.4,119.4668909
,,,,Conditions/Version_1/oneback(1)_v1.xlsx,New rule: Press 'space' when you see 1-back (i.e. the same letter as the one that appeared 1 letter ago.),p,None,,,,,,,,,0,1,1,1,0,1,1,1,,,,,,,,,,,,,,,,,,,,,,,,,,,,,,,,,,,,,,,,,,,,,,,,,,,,,,,,,,,,,,,,,,,,,1.2704,447.919474,None,None,1,447.919474,None,,P053,FENCOG,2,Post,2022_Jun_21_1127,N-Back (New Version 2021),2021.1.4,119.4668909
,,,,Conditions/Version_1/oneback(1)_v1.xlsx,New rule: Press 'space' when you see 1-back (i.e. the same letter as the one that appeared 1 letter ago.),M,None,,,,,,,,,0,1,1,1,0,2,2,2,,,,,,,,,,,,,,,,,,,,,,,,,,,,,,,,,,,,,,,,,,,,,,,,,,,,,,,,,,,,,,,,,,,,,1.1464,451.072966,None,None,1,451.072966,None,,P053,FENCOG,2,Post,2022_Jun_21_1127,N-Back (New Version 2021),2021.1.4,119.4668909
,,,,Conditions/Version_1/oneback(1)_v1.xlsx,New rule: Press 'space' when you see 1-back (i.e. the same letter as the one that appeared 1 letter ago.),M,space,,,,,,,,,0,1,1,1,0,3,3,3,,,,,,,,,,,,,,,,,,,,,,,,,,,,,,,,,,,,,,,,,,,,,,,,,,,,,,,,,,,,,,,,,,,,,1.3324,454.4052749,None,space,1,454.4052749,None,0.3226429,P053,FENCOG,2,Post,2022_Jun_21_1127,N-Back (New Version 2021),2021.1.4,119.4668909
,,,,Conditions/Version_1/oneback(1)_v1.xlsx,New rule: Press 'space' when you see 1-back (i.e. the same letter as the one that appeared 1 letter ago.),n,None,,,,,,,,,0,1,1,1,0,4,4,4,,,,,,,,,,,,,,,,,,,,,,,,,,,,,,,,,,,,,,,,,,,,,,,,,,,,,,,,,,,,,,,,,,,,,1.0534,457.4633355,None,None,1,457.4633355,None,,P053,FENCOG,2,Post,2022_Jun_21_1127,N-Back (New Version 2021),2021.1.4,119.4668909
,,,,Conditions/Version_1/oneback(1)_v1.xlsx,New rule: Press 'space' when you see 1-back (i.e. the same letter as the one that appeared 1 letter ago.),g,None,,,,,,,,,0,1,1,1,0,5,5,5,,,,,,,,,,,,,,,,,,,,,,,,,,,,,,,,,,,,,,,,,,,,,,,,,,,,,,,,,,,,,,,,,,,,,1.5618,461.037307,None,None,1,461.037307,None,,P053,FENCOG,2,Post,2022_Jun_21_1127,N-Back (New Version 2021),2021.1.4,119.4668909
,,,,Conditions/Version_1/oneback(1)_v1.xlsx,New rule: Press 'space' when you see 1-back (i.e. the same letter as the one that appeared 1 letter ago.),P,None,,,,,,,,,0,1,1,1,0,6,6,6,,,,,,,,,,,,,,,,,,,,,,,,,,,,,,,,,,,,,,,,,,,,,,,,,,,,,,,,,,,,,,,,,,,,,1.9958,465.0438334,None,None,1,465.0438334,None,,P053,FENCOG,2,Post,2022_Jun_21_1127,N-Back (New Version 2021),2021.1.4,119.4668909
,,,,Conditions/Version_1/oneback(1)_v1.xlsx,New rule: Press 'space' when you see 1-back (i.e. the same letter as the one that appeared 1 letter ago.),o,None,,,,,,,,,0,1,1,1,0,7,7,7,,,,,,,,,,,,,,,,,,,,,,,,,,,,,,,,,,,,,,,,,,,,,,,,,,,,,,,,,,,,,,,,,,,,,1.5308,468.5855136,None,None,1,468.5855136,None,,P053,FENCOG,2,Post,2022_Jun_21_1127,N-Back (New Version 2021),2021.1.4,119.4668909
,,,,Conditions/Version_1/oneback(1)_v1.xlsx,New rule: Press 'space' when you see 1-back (i.e. the same letter as the one that appeared 1 letter ago.),f,None,,,,,,,,,0,1,1,1,0,8,8,8,,,,,,,,,,,,,,,,,,,,,,,,,,,,,,,,,,,,,,,,,,,,,,,,,,,,,,,,,,,,,,,,,,,,,1.6796,472.2902074,None,None,1,472.2902074,None,,P053,FENCOG,2,Post,2022_Jun_21_1127,N-Back (New Version 2021),2021.1.4,119.4668909
,,,,Conditions/Version_1/oneback(1)_v1.xlsx,New rule: Press 'space' when you see 1-back (i.e. the same letter as the one that appeared 1 letter ago.),F,space,,,,,,,,,0,1,1,1,0,9,9,9,,,,,,,,,,,,,,,,,,,,,,,,,,,,,,,,,,,,,,,,,,,,,,,,,,,,,,,,,,,,,,,,,,,,,1.3076,475.6140048,None,space,1,475.6140048,None,0.6747419,P053,FENCOG,2,Post,2022_Jun_21_1127,N-Back (New Version 2021),2021.1.4,119.4668909
,,,,Conditions/Version_1/oneback(1)_v1.xlsx,New rule: Press 'space' when you see 1-back (i.e. the same letter as the one that appeared 1 letter ago.),,,,,,,,,,,0,1,1,1,,,,,,,,,,,,,,,,,,,,,,,,,,,,,,,,,,,,,,,,,,,,,,,,,,,,,,,,,,,,,,,,,,,,,,,,,,,,,,,,,P053,FENCOG,2,Post,2022_Jun_21_1127,N-Back (New Version 2021),2021.1.4,119.4668909
,,,,Conditions/Version_1/twoback(1)_v1.xlsx,New rule: Press 'space' when you see 2-back (i.e. the same letter as the one that appeared 2 letters ago.),b,None,,,,,,,,,0,2,2,2,0,0,0,0,,,,,,,,,,,,,,,,,,,,,,,,,,,,,,,,,,,,,,,,,,,,,,,,,,,,,,,,,,,477.6540085,None,480.636336,None,space,0.7876466,480.636336,None,477.6540085,None,1.0286,482.4934122,None,None,1,482.4934122,None,,P053,FENCOG,2,Post,2022_Jun_21_1127,N-Back (New Version 2021),2021.1.4,119.4668909
,,,,Conditions/Version_1/twoback(1)_v1.xlsx,New rule: Press 'space' when you see 2-back (i.e. the same letter as the one that appeared 2 letters ago.),h,None,,,,,,,,,0,2,2,2,0,1,1,1,,,,,,,,,,,,,,,,,,,,,,,,,,,,,,,,,,,,,,,,,,,,,,,,,,,,,,,,,,,,,,,,,,,,,1.7106,486.2197201,None,None,1,486.2197201,None,,P053,FENCOG,2,Post,2022_Jun_21_1127,N-Back (New Version 2021),2021.1.4,119.4668909
,,,,Conditions/Version_1/twoback(1)_v1.xlsx,New rule: Press 'space' when you see 2-back (i.e. the same letter as the one that appeared 2 letters ago.),j,None,,,,,,,,,0,2,2,2,0,2,2,2,,,,,,,,,,,,,,,,,,,,,,,,,,,,,,,,,,,,,,,,,,,,,,,,,,,,,,,,,,,,,,,,,,,,,1.7292,489.960963,None,None,1,489.960963,None,,P053,FENCOG,2,Post,2022_Jun_21_1127,N-Back (New Version 2021),2021.1.4,119.4668909
,,,,Conditions/Version_1/twoback(1)_v1.xlsx,New rule: Press 'space' when you see 2-back (i.e. the same letter as the one that appeared 2 letters ago.),H,space,,,,,,,,,0,2,2,2,0,3,3,3,,,,,,,,,,,,,,,,,,,,,,,,,,,,,,,,,,,,,,,,,,,,,,,,,,,,,,,,,,,,,,,,,,,,,1.134,493.113517,None,space,1,493.113517,None,0.4550118,P053,FENCOG,2,Post,2022_Jun_21_1127,N-Back (New Version 2021),2021.1.4,119.4668909
,,,,Conditions/Version_1/twoback(1)_v1.xlsx,New rule: Press 'space' when you see 2-back (i.e. the same letter as the one that appeared 2 letters ago.),p,None,,,,,,,,,0,2,2,2,0,4,4,4,,,,,,,,,,,,,,,,,,,,,,,,,,,,,,,,,,,,,,,,,,,,,,,,,,,,,,,,,,,,,,,,,,,,,1.1588,496.2708419,None,None,1,496.2708419,None,,P053,FENCOG,2,Post,2022_Jun_21_1127,N-Back (New Version 2021),2021.1.4,119.4668909
,,,,Conditions/Version_1/twoback(1)_v1.xlsx,New rule: Press 'space' when you see 2-back (i.e. the same letter as the one that appeared 2 letters ago.),p,None,,,,,,,,,0,2,2,2,0,5,5,5,,,,,,,,,,,,,,,,,,,,,,,,,,,,,,,,,,,,,,,,,,,,,,,,,,,,,,,,,,,,,,,,,,,,,1.1092,499.3848193,None,None,1,499.3848193,None,,P053,FENCOG,2,Post,2022_Jun_21_1127,N-Back (New Version 2021),2021.1.4,119.4668909
,,,,Conditions/Version_1/twoback(1)_v1.xlsx,New rule: Press 'space' when you see 2-back (i.e. the same letter as the one that appeared 2 letters ago.),w,None,,,,,,,,,0,2,2,2,0,6,6,6,,,,,,,,,,,,,,,,,,,,,,,,,,,,,,,,,,,,,,,,,,,,,,,,,,,,,,,,,,,,,,,,,,,,,1.94,503.3390154,None,None,1,503.3390154,None,,P053,FENCOG,2,Post,2022_Jun_21_1127,N-Back (New Version 2021),2021.1.4,119.4668909
,,,,Conditions/Version_1/twoback(1)_v1.xlsx,New rule: Press 'space' when you see 2-back (i.e. the same letter as the one that appeared 2 letters ago.),R,None,,,,,,,,,0,2,2,2,0,7,7,7,,,,,,,,,,,,,,,,,,,,,,,,,,,,,,,,,,,,,,,,,,,,,,,,,,,,,,,,,,,,,,,,,,,,,1.9834,507.3310188,None,None,1,507.3310188,None,,P053,FENCOG,2,Post,2022_Jun_21_1127,N-Back (New Version 2021),2021.1.4,119.4668909
,,,,Conditions/Version_1/twoback(1)_v1.xlsx,New rule: Press 'space' when you see 2-back (i.e. the same letter as the one that appeared 2 letters ago.),a,None,,,,,,,,,0,2,2,2,0,8,8,8,,,,,,,,,,,,,,,,,,,,,,,,,,,,,,,,,,,,,,,,,,,,,,,,,,,,,,,,,,,,,,,,,,,,,1.847,511.1843919,None,None,1,511.1843919,None,,P053,FENCOG,2,Post,2022_Jun_21_1127,N-Back (New Version 2021),2021.1.4,119.4668909
,,,,Conditions/Version_1/twoback(1)_v1.xlsx,New rule: Press 'space' when you see 2-back (i.e. the same letter as the one that appeared 2 letters ago.),r,space,,,,,,,,,0,2,2,2,0,9,9,9,,,,,,,,,,,,,,,,,,,,,,,,,,,,,,,,,,,,,,,,,,,,,,,,,,,,,,,,,,,,,,,,,,,,,1.165,514.3542538,None,space,1,514.3542538,None,0.3975749,P053,FENCOG,2,Post,2022_Jun_21_1127,N-Back (New Version 2021),2021.1.4,119.4668909
,,,,Conditions/Version_1/twoback(1)_v1.xlsx,New rule: Press 'space' when you see 2-back (i.e. the same letter as the one that appeared 2 letters ago.),,,,,,,,,,,0,2,2,2,,,,,,,,,,,,,,,,,,,,,,,,,,,,,,,,,,,,,,,,,,,,,,,,,,,,,,,,,,,,,,,,,,,,,,,,,,,,,,,,,P053,FENCOG,2,Post,2022_Jun_21_1127,N-Back (New Version 2021),2021.1.4,119.4668909
,,,,Conditions/Version_1/threeback(1)_v1.xlsx,New rule: Press 'space' when you see 3-back (i.e. the same letter as the one that appeared 3 letters ago.),r,None,,,,,,,,,0,3,3,3,0,0,0,0,,,,,,,,,,,,,,,,,,,,,,,,,,,,,,,,,,,,,,,,,,,,,,,,,,,,,,,,,,,516.3966165,None,519.377521,None,space,0.5026123,519.377521,None,516.3966165,None,1.6238,521.535951,None,None,1,521.535951,None,,P053,FENCOG,2,Post,2022_Jun_21_1127,N-Back (New Version 2021),2021.1.4,119.4668909
,,,,Conditions/Version_1/threeback(1)_v1.xlsx,New rule: Press 'space' when you see 3-back (i.e. the same letter as the one that appeared 3 letters ago.),o,None,,,,,,,,,0,3,3,3,0,1,1,1,,,,,,,,,,,,,,,,,,,,,,,,,,,,,,,,,,,,,,,,,,,,,,,,,,,,,,,,,,,,,,,,,,,,,1.7478,525.2881606,None,None,1,525.2881606,None,,P053,FENCOG,2,Post,2022_Jun_21_1127,N-Back (New Version 2021),2021.1.4,119.4668909
,,,,Conditions/Version_1/threeback(1)_v1.xlsx,New rule: Press 'space' when you see 3-back (i.e. the same letter as the one that appeared 3 letters ago.),P,None,,,,,,,,,0,3,3,3,0,2,2,2,,,,,,,,,,,,,,,,,,,,,,,,,,,,,,,,,,,,,,,,,,,,,,,,,,,,,,,,,,,,,,,,,,,,,1.0472,528.3496944,None,None,1,528.3496944,None,,P053,FENCOG,2,Post,2022_Jun_21_1127,N-Back (New Version 2021),2021.1.4,119.4668909
,,,,Conditions/Version_1/threeback(1)_v1.xlsx,New rule: Press 'space' when you see 3-back (i.e. the same letter as the one that appeared 3 letters ago.),R,space,,,,,,,,,0,3,3,3,0,3,3,3,,,,,,,,,,,,,,,,,,,,,,,,,,,,,,,,,,,,,,,,,,,,,,,,,,,,,,,,,,,,,,,,,,,,,1.5804,531.933861,None,space,1,531.933861,None,0.8981133,P053,FENCOG,2,Post,2022_Jun_21_1127,N-Back (New Version 2021),2021.1.4,119.4668909
,,,,Conditions/Version_1/threeback(1)_v1.xlsx,New rule: Press 'space' when you see 3-back (i.e. the same letter as the one that appeared 3 letters ago.),p,None,,,,,,,,,0,3,3,3,0,4,4,4,,,,,,,,,,,,,,,,,,,,,,,,,,,,,,,,,,,,,,,,,,,,,,,,,,,,,,,,,,,,,,,,,,,,,1.134,535.0731041,None,None,1,535.0731041,None,,P053,FENCOG,2,Post,2022_Jun_21_1127,N-Back (New Version 2021),2021.1.4,119.4668909
,,,,Conditions/Version_1/threeback(1)_v1.xlsx,New rule: Press 'space' when you see 3-back (i.e. the same letter as the one that appeared 3 letters ago.),E,None,,,,,,,,,0,3,3,3,0,5,5,5,,,,,,,,,,,,,,,,,,,,,,,,,,,,,,,,,,,,,,,,,,,,,,,,,,,,,,,,,,,,,,,,,,,,,1.227,538.3102444,None,None,1,538.3102444,None,,P053,FENCOG,2,Post,2022_Jun_21_1127,N-Back (New Version 2021),2021.1.4,119.4668909
,,,,Conditions/Version_1/threeback(1)_v1.xlsx,New rule: Press 'space' when you see 3-back (i.e. the same letter as the one that appeared 3 letters ago.),e,None,,,,,,,,,0,3,3,3,0,6,6,6,,,,,,,,,,,,,,,,,,,,,,,,,,,,,,,,,,,,,,,,,,,,,,,,,,,,,,,,,,,,,,,,,,,,,1.5494,541.8754967,None,None,1,541.8754967,None,,P053,FENCOG,2,Post,2022_Jun_21_1127,N-Back (New Version 2021),2021.1.4,119.4668909
,,,,Conditions/Version_1/threeback(1)_v1.xlsx,New rule: Press 'space' when you see 3-back (i.e. the same letter as the one that appeared 3 letters ago.),m,None,,,,,,,,,0,3,3,3,0,7,7,7,,,,,,,,,,,,,,,,,,,,,,,,,,,,,,,,,,,,,,,,,,,,,,,,,,,,,,,,,,,,,,,,,,,,,1.3882,545.2761908,None,None,1,545.2761908,None,,P053,FENCOG,2,Post,2022_Jun_21_1127,N-Back (New Version 2021),2021.1.4,119.4668909
,,,,Conditions/Version_1/threeback(1)_v1.xlsx,New rule: Press 'space' when you see 3-back (i.e. the same letter as the one that appeared 3 letters ago.),n,None,,,,,,,,,0,3,3,3,0,8,8,8,,,,,,,,,,,,,,,,,,,,,,,,,,,,,,,,,,,,,,,,,,,,,,,,,,,,,,,,,,,,,,,,,,,,,1.0968,548.3824472,None,None,1,548.3824472,None,,P053,FENCOG,2,Post,2022_Jun_21_1127,N-Back (New Version 2021),2021.1.4,119.4668909
,,,,Conditions/Version_1/threeback(1)_v1.xlsx,New rule: Press 'space' when you see 3-back (i.e. the same letter as the one that appeared 3 letters ago.),e,space,,,,,,,,,0,3,3,3,0,9,9,9,,,,,,,,,,,,,,,,,,,,,,,,,,,,,,,,,,,,,,,,,,,,,,,,,,,,,,,,,,,,,,,,,,,,,1.4936,551.8895806,None,space,1,551.8895806,None,0.4790305,P053,FENCOG,2,Post,2022_Jun_21_1127,N-Back (New Version 2021),2021.1.4,119.4668909
,,,,Conditions/Version_1/threeback(1)_v1.xlsx,New rule: Press 'space' when you see 3-back (i.e. the same letter as the one that appeared 3 letters ago.),,,,,,,,,,,0,3,3,3,,,,,,,,,,,,,,,,,,,,,,,,,,,,,,,,,,,,,,,,,,,,,,,,,,,,,,,,,,,,,,,,,,,,,,,,,,,,,,,,,P053,FENCOG,2,Post,2022_Jun_21_1127,N-Back (New Version 2021),2021.1.4,119.4668909
,,,,Conditions/Version_1/oneback(2)_v1.xlsx,New rule: Press 'space' when you see 1-back (i.e. the same letter as the one that appeared 1 letter ago.),q,None,,,,,,,,,0,4,4,4,0,0,0,0,,,,,,,,,,,,,,,,,,,,,,,,,,,,,,,,,,,,,,,,,,,,,,,,,,,,,,,,,,,553.9304,None,556.9125446,None,space,0.3756843,556.9125446,None,553.9304,None,1.0162,558.3449826,None,None,1,558.3449826,None,,P053,FENCOG,2,Post,2022_Jun_21_1127,N-Back (New Version 2021),2021.1.4,119.4668909
,,,,Conditions/Version_1/oneback(2)_v1.xlsx,New rule: Press 'space' when you see 1-back (i.e. the same letter as the one that appeared 1 letter ago.),Q,space,,,,,,,,,0,4,4,4,0,1,1,1,,,,,,,,,,,,,,,,,,,,,,,,,,,,,,,,,,,,,,,,,,,,,,,,,,,,,,,,,,,,,,,,,,,,,1.0348,561.3951383,None,space,1,561.3951383,None,0.4289788,P053,FENCOG,2,Post,2022_Jun_21_1127,N-Back (New Version 2021),2021.1.4,119.4668909
,,,,Conditions/Version_1/oneback(2)_v1.xlsx,New rule: Press 'space' when you see 1-back (i.e. the same letter as the one that appeared 1 letter ago.),P,None,,,,,,,,,0,4,4,4,0,2,2,2,,,,,,,,,,,,,,,,,,,,,,,,,,,,,,,,,,,,,,,,,,,,,,,,,,,,,,,,,,,,,,,,,,,,,1.816,565.2269579,None,None,1,565.2269579,None,,P053,FENCOG,2,Post,2022_Jun_21_1127,N-Back (New Version 2021),2021.1.4,119.4668909
,,,,Conditions/Version_1/oneback(2)_v1.xlsx,New rule: Press 'space' when you see 1-back (i.e. the same letter as the one that appeared 1 letter ago.),o,None,,,,,,,,,0,4,4,4,0,3,3,3,,,,,,,,,,,,,,,,,,,,,,,,,,,,,,,,,,,,,,,,,,,,,,,,,,,,,,,,,,,,,,,,,,,,,1.0844,568.3175026,None,None,1,568.3175026,None,,P053,FENCOG,2,Post,2022_Jun_21_1127,N-Back (New Version 2021),2021.1.4,119.4668909
,,,,Conditions/Version_1/oneback(2)_v1.xlsx,New rule: Press 'space' when you see 1-back (i.e. the same letter as the one that appeared 1 letter ago.),m,None,,,,,,,,,0,4,4,4,0,4,4,4,,,,,,,,,,,,,,,,,,,,,,,,,,,,,,,,,,,,,,,,,,,,,,,,,,,,,,,,,,,,,,,,,,,,,1.2642,571.5938201,None,None,1,571.5938201,None,,P053,FENCOG,2,Post,2022_Jun_21_1127,N-Back (New Version 2021),2021.1.4,119.4668909
,,,,Conditions/Version_1/oneback(2)_v1.xlsx,New rule: Press 'space' when you see 1-back (i.e. the same letter as the one that appeared 1 letter ago.),Z,None,,,,,,,,,0,4,4,4,0,5,5,5,,,,,,,,,,,,,,,,,,,,,,,,,,,,,,,,,,,,,,,,,,,,,,,,,,,,,,,,,,,,,,,,,,,,,1.2084,574.8126334,None,None,1,574.8126334,None,,P053,FENCOG,2,Post,2022_Jun_21_1127,N-Back (New Version 2021),2021.1.4,119.4668909
,,,,Conditions/Version_1/oneback(2)_v1.xlsx,New rule: Press 'space' when you see 1-back (i.e. the same letter as the one that appeared 1 letter ago.),c,None,,,,,,,,,0,4,4,4,0,6,6,6,,,,,,,,,,,,,,,,,,,,,,,,,,,,,,,,,,,,,,,,,,,,,,,,,,,,,,,,,,,,,,,,,,,,,1.165,577.9816842,None,None,1,577.9816842,None,,P053,FENCOG,2,Post,2022_Jun_21_1127,N-Back (New Version 2021),2021.1.4,119.4668909
,,,,Conditions/Version_1/oneback(2)_v1.xlsx,New rule: Press 'space' when you see 1-back (i.e. the same letter as the one that appeared 1 letter ago.),c,space,,,,,,,,,0,4,4,4,0,7,7,7,,,,,,,,,,,,,,,,,,,,,,,,,,,,,,,,,,,,,,,,,,,,,,,,,,,,,,,,,,,,,,,,,,,,,1.3572,581.3524903,None,space,1,581.3524903,None,0.4797765,P053,FENCOG,2,Post,2022_Jun_21_1127,N-Back (New Version 2021),2021.1.4,119.4668909
,,,,Conditions/Version_1/oneback(2)_v1.xlsx,New rule: Press 'space' when you see 1-back (i.e. the same letter as the one that appeared 1 letter ago.),P,None,,,,,,,,,0,4,4,4,0,8,8,8,,,,,,,,,,,,,,,,,,,,,,,,,,,,,,,,,,,,,,,,,,,,,,,,,,,,,,,,,,,,,,,,,,,,,1.5122,584.8794674,None,None,1,584.8794674,None,,P053,FENCOG,2,Post,2022_Jun_21_1127,N-Back (New Version 2021),2021.1.4,119.4668909
,,,,Conditions/Version_1/oneback(2)_v1.xlsx,New rule: Press 'space' when you see 1-back (i.e. the same letter as the one that appeared 1 letter ago.),p,space,,,,,,,,,0,4,4,4,0,9,9,9,,,,,,,,,,,,,,,,,,,,,,,,,,,,,,,,,,,,,,,,,,,,,,,,,,,,,,,,,,,,,,,,,,,,,1.1216,588.0075959,None,space,1,588.0075959,None,0.4485396,P053,FENCOG,2,Post,2022_Jun_21_1127,N-Back (New Version 2021),2021.1.4,119.4668909
,,,,Conditions/Version_1/oneback(2)_v1.xlsx,New rule: Press 'space' when you see 1-back (i.e. the same letter as the one that appeared 1 letter ago.),,,,,,,,,,,0,4,4,4,,,,,,,,,,,,,,,,,,,,,,,,,,,,,,,,,,,,,,,,,,,,,,,,,,,,,,,,,,,,,,,,,,,,,,,,,,,,,,,,,P053,FENCOG,2,Post,2022_Jun_21_1127,N-Back (New Version 2021),2021.1.4,119.4668909
,,,,Conditions/Version_1/zeroback(2)_v1.xlsx,New rule: Press 'space' when you see the letter 'x' or 'X'.,p,None,,,,,,,,,0,5,5,5,0,0,0,0,,,,,,,,,,,,,,,,,,,,,,,,,,,,,,,,,,,,,,,,,,,,,,,,,,,,,,,,,,,590.0485643,None,593.0356796,None,space,0.3402356,593.0356796,None,590.0485643,None,1.816,595.2316549,None,None,1,595.2316549,None,,P053,FENCOG,2,Post,2022_Jun_21_1127,N-Back (New Version 2021),2021.1.4,119.4668909
,,,,Conditions/Version_1/zeroback(2)_v1.xlsx,New rule: Press 'space' when you see the letter 'x' or 'X'.,L,None,,,,,,,,,0,5,5,5,0,1,1,1,,,,,,,,,,,,,,,,,,,,,,,,,,,,,,,,,,,,,,,,,,,,,,,,,,,,,,,,,,,,,,,,,,,,,1.103,598.3526509,None,None,1,598.3526509,None,,P053,FENCOG,2,Post,2022_Jun_21_1127,N-Back (New Version 2021),2021.1.4,119.4668909
,,,,Conditions/Version_1/zeroback(2)_v1.xlsx,New rule: Press 'space' when you see the letter 'x' or 'X'.,G,None,,,,,,,,,0,5,5,5,0,2,2,2,,,,,,,,,,,,,,,,,,,,,,,,,,,,,,,,,,,,,,,,,,,,,,,,,,,,,,,,,,,,,,,,,,,,,1.8284,602.1903493,None,None,1,602.1903493,None,,P053,FENCOG,2,Post,2022_Jun_21_1127,N-Back (New Version 2021),2021.1.4,119.4668909
,,,,Conditions/Version_1/zeroback(2)_v1.xlsx,New rule: Press 'space' when you see the letter 'x' or 'X'.,y,None,,,,,,,,,0,5,5,5,0,3,3,3,,,,,,,,,,,,,,,,,,,,,,,,,,,,,,,,,,,,,,,,,,,,,,,,,,,,,,,,,,,,,,,,,,,,,1.0596,605.2665979,None,None,1,605.2665979,None,,P053,FENCOG,2,Post,2022_Jun_21_1127,N-Back (New Version 2021),2021.1.4,119.4668909
,,,,Conditions/Version_1/zeroback(2)_v1.xlsx,New rule: Press 'space' when you see the letter 'x' or 'X'.,Y,None,,,,,,,,,0,5,5,5,0,4,4,4,,,,,,,,,,,,,,,,,,,,,,,,,,,,,,,,,,,,,,,,,,,,,,,,,,,,,,,,,,,,,,,,,,,,,1.9524,609.2313022,None,None,1,609.2313022,None,,P053,FENCOG,2,Post,2022_Jun_21_1127,N-Back (New Version 2021),2021.1.4,119.4668909
,,,,Conditions/Version_1/zeroback(2)_v1.xlsx,New rule: Press 'space' when you see the letter 'x' or 'X'.,W,None,,,,,,,,,0,5,5,5,0,5,5,5,,,,,,,,,,,,,,,,,,,,,,,,,,,,,,,,,,,,,,,,,,,,,,,,,,,,,,,,,,,,,,,,,,,,,1.382,612.6228775,None,None,1,612.6228775,None,,P053,FENCOG,2,Post,2022_Jun_21_1127,N-Back (New Version 2021),2021.1.4,119.4668909
,,,,Conditions/Version_1/zeroback(2)_v1.xlsx,New rule: Press 'space' when you see the letter 'x' or 'X'.,x,space,,,,,,,,,0,5,5,5,0,6,6,6,,,,,,,,,,,,,,,,,,,,,,,,,,,,,,,,,,,,,,,,,,,,,,,,,,,,,,,,,,,,,,,,,,,,,1.5618,616.2054474,None,space,1,616.2054474,None,0.4109356,P053,FENCOG,2,Post,2022_Jun_21_1127,N-Back (New Version 2021),2021.1.4,119.4668909
,,,,Conditions/Version_1/zeroback(2)_v1.xlsx,New rule: Press 'space' when you see the letter 'x' or 'X'.,X,space,,,,,,,,,0,5,5,5,0,7,7,7,,,,,,,,,,,,,,,,,,,,,,,,,,,,,,,,,,,,,,,,,,,,,,,,,,,,,,,,,,,,,,,,,,,,,1.8408,620.0535921,None,space,1,620.0535921,None,0.546657,P053,FENCOG,2,Post,2022_Jun_21_1127,N-Back (New Version 2021),2021.1.4,119.4668909
,,,,Conditions/Version_1/zeroback(2)_v1.xlsx,New rule: Press 'space' when you see the letter 'x' or 'X'.,p,None,,,,,,,,,0,5,5,5,0,8,8,8,,,,,,,,,,,,,,,,,,,,,,,,,,,,,,,,,,,,,,,,,,,,,,,,,,,,,,,,,,,,,,,,,,,,,1.3014,623.3703773,None,None,1,623.3703773,None,,P053,FENCOG,2,Post,2022_Jun_21_1127,N-Back (New Version 2021),2021.1.4,119.4668909
,,,,Conditions/Version_1/zeroback(2)_v1.xlsx,New rule: Press 'space' when you see the letter 'x' or 'X'.,h,None,,,,,,,,,0,5,5,5,0,9,9,9,,,,,,,,,,,,,,,,,,,,,,,,,,,,,,,,,,,,,,,,,,,,,,,,,,,,,,,,,,,,,,,,,,,,,1.7416,627.1256723,None,None,1,627.1256723,None,,P053,FENCOG,2,Post,2022_Jun_21_1127,N-Back (New Version 2021),2021.1.4,119.4668909
,,,,Conditions/Version_1/zeroback(2)_v1.xlsx,New rule: Press 'space' when you see the letter 'x' or 'X'.,,,,,,,,,,,0,5,5,5,,,,,,,,,,,,,,,,,,,,,,,,,,,,,,,,,,,,,,,,,,,,,,,,,,,,,,,,,,,,,,,,,,,,,,,,,,,,,,,,,P053,FENCOG,2,Post,2022_Jun_21_1127,N-Back (New Version 2021),2021.1.4,119.4668909
,,,,Conditions/Version_1/threeback(2)_v1.xlsx,New rule: Press 'space' when you see 3-back (i.e. the same letter as the one that appeared 3 letters ago.),q,None,,,,,,,,,0,6,6,6,0,0,0,0,,,,,,,,,,,,,,,,,,,,,,,,,,,,,,,,,,,,,,,,,,,,,,,,,,,,,,,,,,,629.1713714,None,632.1581709,None,space,2.7377725,632.1581709,None,629.1713714,None,1.5432,636.4908487,None,None,1,636.4908487,None,,P053,FENCOG,2,Post,2022_Jun_21_1127,N-Back (New Version 2021),2021.1.4,119.4668909
,,,,Conditions/Version_1/threeback(2)_v1.xlsx,New rule: Press 'space' when you see 3-back (i.e. the same letter as the one that appeared 3 letters ago.),Y,None,,,,,,,,,0,6,6,6,0,1,1,1,,,,,,,,,,,,,,,,,,,,,,,,,,,,,,,,,,,,,,,,,,,,,,,,,,,,,,,,,,,,,,,,,,,,,1.7478,640.2459242,None,None,1,640.2459242,None,,P053,FENCOG,2,Post,2022_Jun_21_1127,N-Back (New Version 2021),2021.1.4,119.4668909
,,,,Conditions/Version_1/threeback(2)_v1.xlsx,New rule: Press 'space' when you see 3-back (i.e. the same letter as the one that appeared 3 letters ago.),p,None,,,,,,,,,0,6,6,6,0,2,2,2,,,,,,,,,,,,,,,,,,,,,,,,,,,,,,,,,,,,,,,,,,,,,,,,,,,,,,,,,,,,,,,,,,,,,1.7664,644.0281679,None,None,1,644.0281679,None,,P053,FENCOG,2,Post,2022_Jun_21_1127,N-Back (New Version 2021),2021.1.4,119.4668909
,,,,Conditions/Version_1/threeback(2)_v1.xlsx,New rule: Press 'space' when you see 3-back (i.e. the same letter as the one that appeared 3 letters ago.),p,None,,,,,,,,,0,6,6,6,0,3,3,3,,,,,,,,,,,,,,,,,,,,,,,,,,,,,,,,,,,,,,,,,,,,,,,,,,,,,,,,,,,,,,,,,,,,,1.4998,647.5318834,None,None,1,647.5318834,None,,P053,FENCOG,2,Post,2022_Jun_21_1127,N-Back (New Version 2021),2021.1.4,119.4668909
,,,,Conditions/Version_1/threeback(2)_v1.xlsx,New rule: Press 'space' when you see 3-back (i.e. the same letter as the one that appeared 3 letters ago.),y,space,,,,,,,,,0,6,6,6,0,4,4,4,,,,,,,,,,,,,,,,,,,,,,,,,,,,,,,,,,,,,,,,,,,,,,,,,,,,,,,,,,,,,,,,,,,,,1.7974,651.3354811,None,space,1,651.3354811,None,0.4245996,P053,FENCOG,2,Post,2022_Jun_21_1127,N-Back (New Version 2021),2021.1.4,119.4668909
,,,,Conditions/Version_1/threeback(2)_v1.xlsx,New rule: Press 'space' when you see 3-back (i.e. the same letter as the one that appeared 3 letters ago.),u,None,,,,,,,,,0,6,6,6,0,5,5,5,,,,,,,,,,,,,,,,,,,,,,,,,,,,,,,,,,,,,,,,,,,,,,,,,,,,,,,,,,,,,,,,,,,,,1.9524,655.295312,None,None,1,655.295312,None,,P053,FENCOG,2,Post,2022_Jun_21_1127,N-Back (New Version 2021),2021.1.4,119.4668909
,,,,Conditions/Version_1/threeback(2)_v1.xlsx,New rule: Press 'space' when you see 3-back (i.e. the same letter as the one that appeared 3 letters ago.),P,space,,,,,,,,,0,6,6,6,0,6,6,6,,,,,,,,,,,,,,,,,,,,,,,,,,,,,,,,,,,,,,,,,,,,,,,,,,,,,,,,,,,,,,,,,,,,,1.94,659.2491252,None,space,1,659.2491252,None,0.4469291,P053,FENCOG,2,Post,2022_Jun_21_1127,N-Back (New Version 2021),2021.1.4,119.4668909
,,,,Conditions/Version_1/threeback(2)_v1.xlsx,New rule: Press 'space' when you see 3-back (i.e. the same letter as the one that appeared 3 letters ago.),a,None,,,,,,,,,0,6,6,6,0,7,7,7,,,,,,,,,,,,,,,,,,,,,,,,,,,,,,,,,,,,,,,,,,,,,,,,,,,,,,,,,,,,,,,,,,,,,1.6672,662.9313931,None,space,0,662.9313931,None,1.2608287,P053,FENCOG,2,Post,2022_Jun_21_1127,N-Back (New Version 2021),2021.1.4,119.4668909
,,,,Conditions/Version_1/threeback(2)_v1.xlsx,New rule: Press 'space' when you see 3-back (i.e. the same letter as the one that appeared 3 letters ago.),U,space,,,,,,,,,0,6,6,6,0,8,8,8,,,,,,,,,,,,,,,,,,,,,,,,,,,,,,,,,,,,,,,,,,,,,,,,,,,,,,,,,,,,,,,,,,,,,1.5308,666.4742902,None,space,1,666.4742902,None,0.8776662,P053,FENCOG,2,Post,2022_Jun_21_1127,N-Back (New Version 2021),2021.1.4,119.4668909
,,,,Conditions/Version_1/threeback(2)_v1.xlsx,New rule: Press 'space' when you see 3-back (i.e. the same letter as the one that appeared 3 letters ago.),q,None,,,,,,,,,0,6,6,6,0,9,9,9,,,,,,,,,,,,,,,,,,,,,,,,,,,,,,,,,,,,,,,,,,,,,,,,,,,,,,,,,,,,,,,,,,,,,1.8036,670.2874174,None,None,1,670.2874174,None,,P053,FENCOG,2,Post,2022_Jun_21_1127,N-Back (New Version 2021),2021.1.4,119.4668909
,,,,Conditions/Version_1/threeback(2)_v1.xlsx,New rule: Press 'space' when you see 3-back (i.e. the same letter as the one that appeared 3 letters ago.),,,,,,,,,,,0,6,6,6,,,,,,,,,,,,,,,,,,,,,,,,,,,,,,,,,,,,,,,,,,,,,,,,,,,,,,,,,,,,,,,,,,,,,,,,,,,,,,,,,P053,FENCOG,2,Post,2022_Jun_21_1127,N-Back (New Version 2021),2021.1.4,119.4668909
,,,,Conditions/Version_1/twoback(2)_v1.xlsx,New rule: Press 'space' when you see 2-back (i.e. the same letter as the one that appeared 2 letters ago.),q,None,,,,,,,,,0,7,7,7,0,0,0,0,,,,,,,,,,,,,,,,,,,,,,,,,,,,,,,,,,,,,,,,,,,,,,,,,,,,,,,,,,,672.3269945,None,675.3122402,None,space,1.3515459,675.3122402,None,672.3269945,None,1.7788,678.4823883,None,None,1,678.4823883,None,,P053,FENCOG,2,Post,2022_Jun_21_1127,N-Back (New Version 2021),2021.1.4,119.4668909
,,,,Conditions/Version_1/twoback(2)_v1.xlsx,New rule: Press 'space' when you see 2-back (i.e. the same letter as the one that appeared 2 letters ago.),r,None,,,,,,,,,0,7,7,7,0,1,1,1,,,,,,,,,,,,,,,,,,,,,,,,,,,,,,,,,,,,,,,,,,,,,,,,,,,,,,,,,,,,,,,,,,,,,1.4378,681.9338059,None,None,1,681.9338059,None,,P053,FENCOG,2,Post,2022_Jun_21_1127,N-Back (New Version 2021),2021.1.4,119.4668909
,,,,Conditions/Version_1/twoback(2)_v1.xlsx,New rule: Press 'space' when you see 2-back (i.e. the same letter as the one that appeared 2 letters ago.),q,space,,,,,,,,,0,7,7,7,0,2,2,2,,,,,,,,,,,,,,,,,,,,,,,,,,,,,,,,,,,,,,,,,,,,,,,,,,,,,,,,,,,,,,,,,,,,,1.0596,685.0106006,None,space,1,685.0106006,None,0.8455911,P053,FENCOG,2,Post,2022_Jun_21_1127,N-Back (New Version 2021),2021.1.4,119.4668909
,,,,Conditions/Version_1/twoback(2)_v1.xlsx,New rule: Press 'space' when you see 2-back (i.e. the same letter as the one that appeared 2 letters ago.),P,None,,,,,,,,,0,7,7,7,0,3,3,3,,,,,,,,,,,,,,,,,,,,,,,,,,,,,,,,,,,,,,,,,,,,,,,,,,,,,,,,,,,,,,,,,,,,,1.3386,688.3571607,None,None,1,688.3571607,None,,P053,FENCOG,2,Post,2022_Jun_21_1127,N-Back (New Version 2021),2021.1.4,119.4668909
,,,,Conditions/Version_1/twoback(2)_v1.xlsx,New rule: Press 'space' when you see 2-back (i.e. the same letter as the one that appeared 2 letters ago.),p,None,,,,,,,,,0,7,7,7,0,4,4,4,,,,,,,,,,,,,,,,,,,,,,,,,,,,,,,,,,,,,,,,,,,,,,,,,,,,,,,,,,,,,,,,,,,,,1.6672,692.0314525,None,space,0,692.0314525,None,0.344694,P053,FENCOG,2,Post,2022_Jun_21_1127,N-Back (New Version 2021),2021.1.4,119.4668909
,,,,Conditions/Version_1/twoback(2)_v1.xlsx,New rule: Press 'space' when you see 2-back (i.e. the same letter as the one that appeared 2 letters ago.),H,None,,,,,,,,,0,7,7,7,0,5,5,5,,,,,,,,,,,,,,,,,,,,,,,,,,,,,,,,,,,,,,,,,,,,,,,,,,,,,,,,,,,,,,,,,,,,,1.4812,695.5224177,None,None,1,695.5224177,None,,P053,FENCOG,2,Post,2022_Jun_21_1127,N-Back (New Version 2021),2021.1.4,119.4668909
,,,,Conditions/Version_1/twoback(2)_v1.xlsx,New rule: Press 'space' when you see 2-back (i.e. the same letter as the one that appeared 2 letters ago.),g,None,,,,,,,,,0,7,7,7,0,6,6,6,,,,,,,,,,,,,,,,,,,,,,,,,,,,,,,,,,,,,,,,,,,,,,,,,,,,,,,,,,,,,,,,,,,,,1.6796,699.2121135,None,None,1,699.2121135,None,,P053,FENCOG,2,Post,2022_Jun_21_1127,N-Back (New Version 2021),2021.1.4,119.4668909
,,,,Conditions/Version_1/twoback(2)_v1.xlsx,New rule: Press 'space' when you see 2-back (i.e. the same letter as the one that appeared 2 letters ago.),j,None,,,,,,,,,0,7,7,7,0,7,7,7,,,,,,,,,,,,,,,,,,,,,,,,,,,,,,,,,,,,,,,,,,,,,,,,,,,,,,,,,,,,,,,,,,,,,1.3448,702.5695654,None,None,1,702.5695654,None,,P053,FENCOG,2,Post,2022_Jun_21_1127,N-Back (New Version 2021),2021.1.4,119.4668909
,,,,Conditions/Version_1/twoback(2)_v1.xlsx,New rule: Press 'space' when you see 2-back (i.e. the same letter as the one that appeared 2 letters ago.),g,space,,,,,,,,,0,7,7,7,0,8,8,8,,,,,,,,,,,,,,,,,,,,,,,,,,,,,,,,,,,,,,,,,,,,,,,,,,,,,,,,,,,,,,,,,,,,,1.6238,706.2018827,None,space,1,706.2018827,None,0.8302772,P053,FENCOG,2,Post,2022_Jun_21_1127,N-Back (New Version 2021),2021.1.4,119.4668909
,,,,Conditions/Version_1/twoback(2)_v1.xlsx,New rule: Press 'space' when you see 2-back (i.e. the same letter as the one that appeared 2 letters ago.),G,None,,,,,,,,,0,7,7,7,0,9,9,9,,,,,,,,,,,,,,,,,,,,,,,,,,,,,,,,,,,,,,,,,,,,,,,,,,,,,,,,,,,,,,,,,,,,,1.9462,710.1597514,None,space,0,710.1597514,None,0.9683272,P053,FENCOG,2,Post,2022_Jun_21_1127,N-Back (New Version 2021),2021.1.4,119.4668909
,,,,Conditions/Version_1/twoback(2)_v1.xlsx,New rule: Press 'space' when you see 2-back (i.e. the same letter as the one that appeared 2 letters ago.),,,,,,,,,,,0,7,7,7,,,,,,,,,,,,,,,,,,,,,,,,,,,,,,,,,,,,,,,,,,,,,,,,,,,,,,,,,,,,,,,,,,,,,,,,,,,,,,,,,P053,FENCOG,2,Post,2022_Jun_21_1127,N-Back (New Version 2021),2021.1.4,119.4668909
,,,,Conditions/Version_1/threeback(3)_v1.xlsx,New rule: Press 'space' when you see 3-back (i.e. the same letter as the one that appeared 3 letters ago.),w,None,,,,,,,,,0,8,8,8,0,0,0,0,,,,,,,,,,,,,,,,,,,,,,,,,,,,,,,,,,,,,,,,,,,,,,,,,,,,,,,,,,,712.2092124,None,715.1921467,None,space,0.0796787,715.1921467,None,712.2092124,None,1.1278,716.4410729,None,None,1,716.4410729,None,,P053,FENCOG,2,Post,2022_Jun_21_1127,N-Back (New Version 2021),2021.1.4,119.4668909
,,,,Conditions/Version_1/threeback(3)_v1.xlsx,New rule: Press 'space' when you see 3-back (i.e. the same letter as the one that appeared 3 letters ago.),p,None,,,,,,,,,0,8,8,8,0,1,1,1,,,,,,,,,,,,,,,,,,,,,,,,,,,,,,,,,,,,,,,,,,,,,,,,,,,,,,,,,,,,,,,,,,,,,1.8284,720.282576,None,None,1,720.282576,None,,P053,FENCOG,2,Post,2022_Jun_21_1127,N-Back (New Version 2021),2021.1.4,119.4668909
,,,,Conditions/Version_1/threeback(3)_v1.xlsx,New rule: Press 'space' when you see 3-back (i.e. the same letter as the one that appeared 3 letters ago.),P,None,,,,,,,,,0,8,8,8,0,2,2,2,,,,,,,,,,,,,,,,,,,,,,,,,,,,,,,,,,,,,,,,,,,,,,,,,,,,,,,,,,,,,,,,,,,,,1.227,723.5135861,None,None,1,723.5135861,None,,P053,FENCOG,2,Post,2022_Jun_21_1127,N-Back (New Version 2021),2021.1.4,119.4668909
,,,,Conditions/Version_1/threeback(3)_v1.xlsx,New rule: Press 'space' when you see 3-back (i.e. the same letter as the one that appeared 3 letters ago.),i,None,,,,,,,,,0,8,8,8,0,3,3,3,,,,,,,,,,,,,,,,,,,,,,,,,,,,,,,,,,,,,,,,,,,,,,,,,,,,,,,,,,,,,,,,,,,,,1.8346,727.3664835,None,None,1,727.3664835,None,,P053,FENCOG,2,Post,2022_Jun_21_1127,N-Back (New Version 2021),2021.1.4,119.4668909
,,,,Conditions/Version_1/threeback(3)_v1.xlsx,New rule: Press 'space' when you see 3-back (i.e. the same letter as the one that appeared 3 letters ago.),f,None,,,,,,,,,0,8,8,8,0,4,4,4,,,,,,,,,,,,,,,,,,,,,,,,,,,,,,,,,,,,,,,,,,,,,,,,,,,,,,,,,,,,,,,,,,,,,1.6982,731.0701619,None,None,1,731.0701619,None,,P053,FENCOG,2,Post,2022_Jun_21_1127,N-Back (New Version 2021),2021.1.4,119.4668909
,,,,Conditions/Version_1/threeback(3)_v1.xlsx,New rule: Press 'space' when you see 3-back (i.e. the same letter as the one that appeared 3 letters ago.),o,None,,,,,,,,,0,8,8,8,0,5,5,5,,,,,,,,,,,,,,,,,,,,,,,,,,,,,,,,,,,,,,,,,,,,,,,,,,,,,,,,,,,,,,,,,,,,,1.8842,734.9598037,None,None,1,734.9598037,None,,P053,FENCOG,2,Post,2022_Jun_21_1127,N-Back (New Version 2021),2021.1.4,119.4668909
,,,,Conditions/Version_1/threeback(3)_v1.xlsx,New rule: Press 'space' when you see 3-back (i.e. the same letter as the one that appeared 3 letters ago.),w,None,,,,,,,,,0,8,8,8,0,6,6,6,,,,,,,,,,,,,,,,,,,,,,,,,,,,,,,,,,,,,,,,,,,,,,,,,,,,,,,,,,,,,,,,,,,,,1.0906,738.0601654,None,None,1,738.0601654,None,,P053,FENCOG,2,Post,2022_Jun_21_1127,N-Back (New Version 2021),2021.1.4,119.4668909
,,,,Conditions/Version_1/threeback(3)_v1.xlsx,New rule: Press 'space' when you see 3-back (i.e. the same letter as the one that appeared 3 letters ago.),F,space,,,,,,,,,0,8,8,8,0,7,7,7,,,,,,,,,,,,,,,,,,,,,,,,,,,,,,,,,,,,,,,,,,,,,,,,,,,,,,,,,,,,,,,,,,,,,1.5122,741.5833859,None,space,1,741.5833859,None,1.1126461,P053,FENCOG,2,Post,2022_Jun_21_1127,N-Back (New Version 2021),2021.1.4,119.4668909
,,,,Conditions/Version_1/threeback(3)_v1.xlsx,New rule: Press 'space' when you see 3-back (i.e. the same letter as the one that appeared 3 letters ago.),p,None,,,,,,,,,0,8,8,8,0,8,8,8,,,,,,,,,,,,,,,,,,,,,,,,,,,,,,,,,,,,,,,,,,,,,,,,,,,,,,,,,,,,,,,,,,,,,1.971,745.5669054,None,None,1,745.5669054,None,,P053,FENCOG,2,Post,2022_Jun_21_1127,N-Back (New Version 2021),2021.1.4,119.4668909
,,,,Conditions/Version_1/threeback(3)_v1.xlsx,New rule: Press 'space' when you see 3-back (i.e. the same letter as the one that appeared 3 letters ago.),W,space,,,,,,,,,0,8,8,8,0,9,9,9,,,,,,,,,,,,,,,,,,,,,,,,,,,,,,,,,,,,,,,,,,,,,,,,,,,,,,,,,,,,,,,,,,,,,1.32,748.8976871,None,space,1,748.8976871,None,1.0542457,P053,FENCOG,2,Post,2022_Jun_21_1127,N-Back (New Version 2021),2021.1.4,119.4668909
,,,,Conditions/Version_1/threeback(3)_v1.xlsx,New rule: Press 'space' when you see 3-back (i.e. the same letter as the one that appeared 3 letters ago.),,,,,,,,,,,0,8,8,8,,,,,,,,,,,,,,,,,,,,,,,,,,,,,,,,,,,,,,,,,,,,,,,,,,,,,,,,,,,,,,,,,,,,,,,,,,,,,,,,,P053,FENCOG,2,Post,2022_Jun_21_1127,N-Back (New Version 2021),2021.1.4,119.4668909
,,,,Conditions/Version_1/zeroback(3)_v1.xlsx,New rule: Press 'space' when you see the letter 'x' or 'X'.,X,space,,,,,,,,,0,9,9,9,0,0,0,0,,,,,,,,,,,,,,,,,,,,,,,,,,,,,,,,,,,,,,,,,,,,,,,,,,,,,,,,,,,750.9408643,None,753.9303371,None,space,2.1254298,753.9303371,None,750.9408643,None,1.3076,757.3993287,None,space,1,757.3993287,None,1.8247287,P053,FENCOG,2,Post,2022_Jun_21_1127,N-Back (New Version 2021),2021.1.4,119.4668909
,,,,Conditions/Version_1/zeroback(3)_v1.xlsx,New rule: Press 'space' when you see the letter 'x' or 'X'.,B,None,,,,,,,,,0,9,9,9,0,1,1,1,,,,,,,,,,,,,,,,,,,,,,,,,,,,,,,,,,,,,,,,,,,,,,,,,,,,,,,,,,,,,,,,,,,,,1.9524,761.3607092,None,None,1,761.3607092,None,,P053,FENCOG,2,Post,2022_Jun_21_1127,N-Back (New Version 2021),2021.1.4,119.4668909
,,,,Conditions/Version_1/zeroback(3)_v1.xlsx,New rule: Press 'space' when you see the letter 'x' or 'X'.,m,None,,,,,,,,,0,9,9,9,0,2,2,2,,,,,,,,,,,,,,,,,,,,,,,,,,,,,,,,,,,,,,,,,,,,,,,,,,,,,,,,,,,,,,,,,,,,,1.1774,764.5409426,None,None,1,764.5409426,None,,P053,FENCOG,2,Post,2022_Jun_21_1127,N-Back (New Version 2021),2021.1.4,119.4668909
,,,,Conditions/Version_1/zeroback(3)_v1.xlsx,New rule: Press 'space' when you see the letter 'x' or 'X'.,m,None,,,,,,,,,0,9,9,9,0,3,3,3,,,,,,,,,,,,,,,,,,,,,,,,,,,,,,,,,,,,,,,,,,,,,,,,,,,,,,,,,,,,,,,,,,,,,1.0596,767.6059511,None,None,1,767.6059511,None,,P053,FENCOG,2,Post,2022_Jun_21_1127,N-Back (New Version 2021),2021.1.4,119.4668909
,,,,Conditions/Version_1/zeroback(3)_v1.xlsx,New rule: Press 'space' when you see the letter 'x' or 'X'.,o,None,,,,,,,,,0,9,9,9,0,4,4,4,,,,,,,,,,,,,,,,,,,,,,,,,,,,,,,,,,,,,,,,,,,,,,,,,,,,,,,,,,,,,,,,,,,,,1.3262,770.9409436,None,None,1,770.9409436,None,,P053,FENCOG,2,Post,2022_Jun_21_1127,N-Back (New Version 2021),2021.1.4,119.4668909
,,,,Conditions/Version_1/zeroback(3)_v1.xlsx,New rule: Press 'space' when you see the letter 'x' or 'X'.,p,None,,,,,,,,,0,9,9,9,0,5,5,5,,,,,,,,,,,,,,,,,,,,,,,,,,,,,,,,,,,,,,,,,,,,,,,,,,,,,,,,,,,,,,,,,,,,,1.5432,774.5002023,None,None,1,774.5002023,None,,P053,FENCOG,2,Post,2022_Jun_21_1127,N-Back (New Version 2021),2021.1.4,119.4668909
,,,,Conditions/Version_1/zeroback(3)_v1.xlsx,New rule: Press 'space' when you see the letter 'x' or 'X'.,G,None,,,,,,,,,0,9,9,9,0,6,6,6,,,,,,,,,,,,,,,,,,,,,,,,,,,,,,,,,,,,,,,,,,,,,,,,,,,,,,,,,,,,,,,,,,,,,1.9958,778.5071176,None,None,1,778.5071176,None,,P053,FENCOG,2,Post,2022_Jun_21_1127,N-Back (New Version 2021),2021.1.4,119.4668909
,,,,Conditions/Version_1/zeroback(3)_v1.xlsx,New rule: Press 'space' when you see the letter 'x' or 'X'.,X,space,,,,,,,,,0,9,9,9,0,7,7,7,,,,,,,,,,,,,,,,,,,,,,,,,,,,,,,,,,,,,,,,,,,,,,,,,,,,,,,,,,,,,,,,,,,,,1.8284,782.3481955,None,space,1,782.3481955,None,0.4598222,P053,FENCOG,2,Post,2022_Jun_21_1127,N-Back (New Version 2021),2021.1.4,119.4668909
,,,,Conditions/Version_1/zeroback(3)_v1.xlsx,New rule: Press 'space' when you see the letter 'x' or 'X'.,p,None,,,,,,,,,0,9,9,9,0,8,8,8,,,,,,,,,,,,,,,,,,,,,,,,,,,,,,,,,,,,,,,,,,,,,,,,,,,,,,,,,,,,,,,,,,,,,1.2828,785.6389913,None,None,1,785.6389913,None,,P053,FENCOG,2,Post,2022_Jun_21_1127,N-Back (New Version 2021),2021.1.4,119.4668909
,,,,Conditions/Version_1/zeroback(3)_v1.xlsx,New rule: Press 'space' when you see the letter 'x' or 'X'.,x,space,,,,,,,,,0,9,9,9,0,9,9,9,,,,,,,,,,,,,,,,,,,,,,,,,,,,,,,,,,,,,,,,,,,,,,,,,,,,,,,,,,,,,,,,,,,,,1.0224,788.6697882,None,space,1,788.6697882,None,0.4980831,P053,FENCOG,2,Post,2022_Jun_21_1127,N-Back (New Version 2021),2021.1.4,119.4668909
,,,,Conditions/Version_1/zeroback(3)_v1.xlsx,New rule: Press 'space' when you see the letter 'x' or 'X'.,,,,,,,,,,,0,9,9,9,,,,,,,,,,,,,,,,,,,,,,,,,,,,,,,,,,,,,,,,,,,,,,,,,,,,,,,,,,,,,,,,,,,,,,,,,,,,,,,,,P053,FENCOG,2,Post,2022_Jun_21_1127,N-Back (New Version 2021),2021.1.4,119.4668909
,,,,Conditions/Version_1/twoback(3)_v1.xlsx,New rule: Press 'space' when you see 2-back (i.e. the same letter as the one that appeared 2 letters ago.),e,None,,,,,,,,,0,10,10,10,0,0,0,0,,,,,,,,,,,,,,,,,,,,,,,,,,,,,,,,,,,,,,,,,,,,,,,,,,,,,,,,,,,790.7162797,None,793.7022171,None,space,1.025514,793.7022171,None,790.7162797,None,1.6858,796.4520594,None,None,1,796.4520594,None,,P053,FENCOG,2,Post,2022_Jun_21_1127,N-Back (New Version 2021),2021.1.4,119.4668909
,,,,Conditions/Version_1/twoback(3)_v1.xlsx,New rule: Press 'space' when you see 2-back (i.e. the same letter as the one that appeared 2 letters ago.),o,None,,,,,,,,,0,10,10,10,0,1,1,1,,,,,,,,,,,,,,,,,,,,,,,,,,,,,,,,,,,,,,,,,,,,,,,,,,,,,,,,,,,,,,,,,,,,,1.072,799.5338334,None,None,1,799.5338334,None,,P053,FENCOG,2,Post,2022_Jun_21_1127,N-Back (New Version 2021),2021.1.4,119.4668909
,,,,Conditions/Version_1/twoback(3)_v1.xlsx,New rule: Press 'space' when you see 2-back (i.e. the same letter as the one that appeared 2 letters ago.),P,None,,,,,,,,,0,10,10,10,0,2,2,2,,,,,,,,,,,,,,,,,,,,,,,,,,,,,,,,,,,,,,,,,,,,,,,,,,,,,,,,,,,,,,,,,,,,,1.6238,803.1660557,None,None,1,803.1660557,None,,P053,FENCOG,2,Post,2022_Jun_21_1127,N-Back (New Version 2021),2021.1.4,119.4668909
,,,,Conditions/Version_1/twoback(3)_v1.xlsx,New rule: Press 'space' when you see 2-back (i.e. the same letter as the one that appeared 2 letters ago.),z,None,,,,,,,,,0,10,10,10,0,3,3,3,,,,,,,,,,,,,,,,,,,,,,,,,,,,,,,,,,,,,,,,,,,,,,,,,,,,,,,,,,,,,,,,,,,,,1.8222,806.9958683,None,None,1,806.9958683,None,,P053,FENCOG,2,Post,2022_Jun_21_1127,N-Back (New Version 2021),2021.1.4,119.4668909
,,,,Conditions/Version_1/twoback(3)_v1.xlsx,New rule: Press 'space' when you see 2-back (i.e. the same letter as the one that appeared 2 letters ago.),X,None,,,,,,,,,0,10,10,10,0,4,4,4,,,,,,,,,,,,,,,,,,,,,,,,,,,,,,,,,,,,,,,,,,,,,,,,,,,,,,,,,,,,,,,,,,,,,1.7044,810.7065078,None,None,1,810.7065078,None,,P053,FENCOG,2,Post,2022_Jun_21_1127,N-Back (New Version 2021),2021.1.4,119.4668909
,,,,Conditions/Version_1/twoback(3)_v1.xlsx,New rule: Press 'space' when you see 2-back (i.e. the same letter as the one that appeared 2 letters ago.),z,space,,,,,,,,,0,10,10,10,0,5,5,5,,,,,,,,,,,,,,,,,,,,,,,,,,,,,,,,,,,,,,,,,,,,,,,,,,,,,,,,,,,,,,,,,,,,,1.4688,814.1788297,None,space,1,814.1788297,None,0.4612047,P053,FENCOG,2,Post,2022_Jun_21_1127,N-Back (New Version 2021),2021.1.4,119.4668909
,,,,Conditions/Version_1/twoback(3)_v1.xlsx,New rule: Press 'space' when you see 2-back (i.e. the same letter as the one that appeared 2 letters ago.),x,space,,,,,,,,,0,10,10,10,0,6,6,6,,,,,,,,,,,,,,,,,,,,,,,,,,,,,,,,,,,,,,,,,,,,,,,,,,,,,,,,,,,,,,,,,,,,,1.6114,817.797938,None,space,1,817.797938,None,0.7951364,P053,FENCOG,2,Post,2022_Jun_21_1127,N-Back (New Version 2021),2021.1.4,119.4668909
,,,,Conditions/Version_1/twoback(3)_v1.xlsx,New rule: Press 'space' when you see 2-back (i.e. the same letter as the one that appeared 2 letters ago.),c,None,,,,,,,,,0,10,10,10,0,7,7,7,,,,,,,,,,,,,,,,,,,,,,,,,,,,,,,,,,,,,,,,,,,,,,,,,,,,,,,,,,,,,,,,,,,,,1.909,821.7199596,None,None,1,821.7199596,None,,P053,FENCOG,2,Post,2022_Jun_21_1127,N-Back (New Version 2021),2021.1.4,119.4668909
,,,,Conditions/Version_1/twoback(3)_v1.xlsx,New rule: Press 'space' when you see 2-back (i.e. the same letter as the one that appeared 2 letters ago.),i,None,,,,,,,,,0,10,10,10,0,8,8,8,,,,,,,,,,,,,,,,,,,,,,,,,,,,,,,,,,,,,,,,,,,,,,,,,,,,,,,,,,,,,,,,,,,,,1.6176,825.3418529,None,None,1,825.3418529,None,,P053,FENCOG,2,Post,2022_Jun_21_1127,N-Back (New Version 2021),2021.1.4,119.4668909
,,,,Conditions/Version_1/twoback(3)_v1.xlsx,New rule: Press 'space' when you see 2-back (i.e. the same letter as the one that appeared 2 letters ago.),C,space,,,,,,,,,0,10,10,10,0,9,9,9,,,,,,,,,,,,,,,,,,,,,,,,,,,,,,,,,,,,,,,,,,,,,,,,,,,,,,,,,,,,,,,,,,,,,1.5928,828.9420658,None,space,1,828.9420658,None,0.3457535,P053,FENCOG,2,Post,2022_Jun_21_1127,N-Back (New Version 2021),2021.1.4,119.4668909
,,,,Conditions/Version_1/twoback(3)_v1.xlsx,New rule: Press 'space' when you see 2-back (i.e. the same letter as the one that appeared 2 letters ago.),,,,,,,,,,,0,10,10,10,,,,,,,,,,,,,,,,,,,,,,,,,,,,,,,,,,,,,,,,,,,,,,,,,,,,,,,,,,,,,,,,,,,,,,,,,,,,,,,,,P053,FENCOG,2,Post,2022_Jun_21_1127,N-Back (New Version 2021),2021.1.4,119.4668909
,,,,Conditions/Version_1/oneback(3)_v1.xlsx,New rule: Press 'space' when you see 1-back (i.e. the same letter as the one that appeared 1 letter ago.),o,None,,,,,,,,,0,11,11,11,0,0,0,0,,,,,,,,,,,,,,,,,,,,,,,,,,,,,,,,,,,,,,,,,,,,,,,,,,,,,,,,,,,830.9806453,None,833.9633685,None,space,0.5484611,833.9633685,None,830.9806453,None,1.134,835.6886583,None,None,1,835.6886583,None,,P053,FENCOG,2,Post,2022_Jun_21_1127,N-Back (New Version 2021),2021.1.4,119.4668909
,,,,Conditions/Version_1/oneback(3)_v1.xlsx,New rule: Press 'space' when you see 1-back (i.e. the same letter as the one that appeared 1 letter ago.),O,space,,,,,,,,,0,11,11,11,0,1,1,1,,,,,,,,,,,,,,,,,,,,,,,,,,,,,,,,,,,,,,,,,,,,,,,,,,,,,,,,,,,,,,,,,,,,,1.1216,838.8214571,None,space,1,838.8214571,None,0.4104409,P053,FENCOG,2,Post,2022_Jun_21_1127,N-Back (New Version 2021),2021.1.4,119.4668909
,,,,Conditions/Version_1/oneback(3)_v1.xlsx,New rule: Press 'space' when you see 1-back (i.e. the same letter as the one that appeared 1 letter ago.),h,None,,,,,,,,,0,11,11,11,0,2,2,2,,,,,,,,,,,,,,,,,,,,,,,,,,,,,,,,,,,,,,,,,,,,,,,,,,,,,,,,,,,,,,,,,,,,,1.8966,842.7316172,None,None,1,842.7316172,None,,P053,FENCOG,2,Post,2022_Jun_21_1127,N-Back (New Version 2021),2021.1.4,119.4668909
,,,,Conditions/Version_1/oneback(3)_v1.xlsx,New rule: Press 'space' when you see 1-back (i.e. the same letter as the one that appeared 1 letter ago.),g,None,,,,,,,,,0,11,11,11,0,3,3,3,,,,,,,,,,,,,,,,,,,,,,,,,,,,,,,,,,,,,,,,,,,,,,,,,,,,,,,,,,,,,,,,,,,,,1.8346,846.5770189,None,None,1,846.5770189,None,,P053,FENCOG,2,Post,2022_Jun_21_1127,N-Back (New Version 2021),2021.1.4,119.4668909
,,,,Conditions/Version_1/oneback(3)_v1.xlsx,New rule: Press 'space' when you see 1-back (i.e. the same letter as the one that appeared 1 letter ago.),n,None,,,,,,,,,0,11,11,11,0,4,4,4,,,,,,,,,,,,,,,,,,,,,,,,,,,,,,,,,,,,,,,,,,,,,,,,,,,,,,,,,,,,,,,,,,,,,1.754,850.3348432,None,None,1,850.3348432,None,,P053,FENCOG,2,Post,2022_Jun_21_1127,N-Back (New Version 2021),2021.1.4,119.4668909
,,,,Conditions/Version_1/oneback(3)_v1.xlsx,New rule: Press 'space' when you see 1-back (i.e. the same letter as the one that appeared 1 letter ago.),z,None,,,,,,,,,0,11,11,11,0,5,5,5,,,,,,,,,,,,,,,,,,,,,,,,,,,,,,,,,,,,,,,,,,,,,,,,,,,,,,,,,,,,,,,,,,,,,1.2208,853.5691675,None,None,1,853.5691675,None,,P053,FENCOG,2,Post,2022_Jun_21_1127,N-Back (New Version 2021),2021.1.4,119.4668909
,,,,Conditions/Version_1/oneback(3)_v1.xlsx,New rule: Press 'space' when you see 1-back (i.e. the same letter as the one that appeared 1 letter ago.),X,None,,,,,,,,,0,11,11,11,0,6,6,6,,,,,,,,,,,,,,,,,,,,,,,,,,,,,,,,,,,,,,,,,,,,,,,,,,,,,,,,,,,,,,,,,,,,,1.4688,857.0448869,None,None,1,857.0448869,None,,P053,FENCOG,2,Post,2022_Jun_21_1127,N-Back (New Version 2021),2021.1.4,119.4668909
,,,,Conditions/Version_1/oneback(3)_v1.xlsx,New rule: Press 'space' when you see 1-back (i.e. the same letter as the one that appeared 1 letter ago.),r,None,,,,,,,,,0,11,11,11,0,7,7,7,,,,,,,,,,,,,,,,,,,,,,,,,,,,,,,,,,,,,,,,,,,,,,,,,,,,,,,,,,,,,,,,,,,,,1.971,861.0334316,None,None,1,861.0334316,None,,P053,FENCOG,2,Post,2022_Jun_21_1127,N-Back (New Version 2021),2021.1.4,119.4668909
,,,,Conditions/Version_1/oneback(3)_v1.xlsx,New rule: Press 'space' when you see 1-back (i.e. the same letter as the one that appeared 1 letter ago.),r,space,,,,,,,,,0,11,11,11,0,8,8,8,,,,,,,,,,,,,,,,,,,,,,,,,,,,,,,,,,,,,,,,,,,,,,,,,,,,,,,,,,,,,,,,,,,,,1.3572,864.3939964,None,space,1,864.3939964,None,0.5740844,P053,FENCOG,2,Post,2022_Jun_21_1127,N-Back (New Version 2021),2021.1.4,119.4668909
,,,,Conditions/Version_1/oneback(3)_v1.xlsx,New rule: Press 'space' when you see 1-back (i.e. the same letter as the one that appeared 1 letter ago.),P,None,,,,,,,,,0,11,11,11,0,9,9,9,,,,,,,,,,,,,,,,,,,,,,,,,,,,,,,,,,,,,,,,,,,,,,,,,,,,,,,,,,,,,,,,,,,,,1.1092,867.5158455,None,None,1,867.5158455,None,,P053,FENCOG,2,Post,2022_Jun_21_1127,N-Back (New Version 2021),2021.1.4,119.4668909
,,,,Conditions/Version_1/oneback(3)_v1.xlsx,New rule: Press 'space' when you see 1-back (i.e. the same letter as the one that appeared 1 letter ago.),,,,,,,,,,,0,11,11,11,,,,,,,,,,,,,,,,,,,,,,,,,,,,,,,,,,,,,,,,,,,,,,,,,,,,,,,,,,,,,,,,,,,,,,,,,,,,,,,,,P053,FENCOG,2,Post,2022_Jun_21_1127,N-Back (New Version 2021),2021.1.4,119.4668909
,,,,Conditions/Version_1/twoback(4)_v1.xlsx,New rule: Press 'space' when you see 2-back (i.e. the same letter as the one that appeared 2 letters ago.),r,None,,,,,,,,,0,12,12,12,0,0,0,0,,,,,,,,,,,,,,,,,,,,,,,,,,,,,,,,,,,,,,,,,,,,,,,,,,,,,,,,,,,869.5529035,None,872.5371993,None,space,0.3983987,872.5371993,None,869.5529035,None,1.0844,874.113025,None,None,1,874.113025,None,,P053,FENCOG,2,Post,2022_Jun_21_1127,N-Back (New Version 2021),2021.1.4,119.4668909
,,,,Conditions/Version_1/twoback(4)_v1.xlsx,New rule: Press 'space' when you see 2-back (i.e. the same letter as the one that appeared 2 letters ago.),T,None,,,,,,,,,0,12,12,12,0,1,1,1,,,,,,,,,,,,,,,,,,,,,,,,,,,,,,,,,,,,,,,,,,,,,,,,,,,,,,,,,,,,,,,,,,,,,1.8098,877.9265745,None,None,1,877.9265745,None,,P053,FENCOG,2,Post,2022_Jun_21_1127,N-Back (New Version 2021),2021.1.4,119.4668909
,,,,Conditions/Version_1/twoback(4)_v1.xlsx,New rule: Press 'space' when you see 2-back (i.e. the same letter as the one that appeared 2 letters ago.),o,None,,,,,,,,,0,12,12,12,0,2,2,2,,,,,,,,,,,,,,,,,,,,,,,,,,,,,,,,,,,,,,,,,,,,,,,,,,,,,,,,,,,,,,,,,,,,,1.6982,881.6334738,None,None,1,881.6334738,None,,P053,FENCOG,2,Post,2022_Jun_21_1127,N-Back (New Version 2021),2021.1.4,119.4668909
,,,,Conditions/Version_1/twoback(4)_v1.xlsx,New rule: Press 'space' when you see 2-back (i.e. the same letter as the one that appeared 2 letters ago.),p,None,,,,,,,,,0,12,12,12,0,3,3,3,,,,,,,,,,,,,,,,,,,,,,,,,,,,,,,,,,,,,,,,,,,,,,,,,,,,,,,,,,,,,,,,,,,,,1.165,884.8076065,None,None,1,884.8076065,None,,P053,FENCOG,2,Post,2022_Jun_21_1127,N-Back (New Version 2021),2021.1.4,119.4668909
,,,,Conditions/Version_1/twoback(4)_v1.xlsx,New rule: Press 'space' when you see 2-back (i.e. the same letter as the one that appeared 2 letters ago.),p,None,,,,,,,,,0,12,12,12,0,4,4,4,,,,,,,,,,,,,,,,,,,,,,,,,,,,,,,,,,,,,,,,,,,,,,,,,,,,,,,,,,,,,,,,,,,,,1.4378,888.2531427,None,None,1,888.2531427,None,,P053,FENCOG,2,Post,2022_Jun_21_1127,N-Back (New Version 2021),2021.1.4,119.4668909
,,,,Conditions/Version_1/twoback(4)_v1.xlsx,New rule: Press 'space' when you see 2-back (i.e. the same letter as the one that appeared 2 letters ago.),y,None,,,,,,,,,0,12,12,12,0,5,5,5,,,,,,,,,,,,,,,,,,,,,,,,,,,,,,,,,,,,,,,,,,,,,,,,,,,,,,,,,,,,,,,,,,,,,1.382,891.6492354,None,None,1,891.6492354,None,,P053,FENCOG,2,Post,2022_Jun_21_1127,N-Back (New Version 2021),2021.1.4,119.4668909
,,,,Conditions/Version_1/twoback(4)_v1.xlsx,New rule: Press 'space' when you see 2-back (i.e. the same letter as the one that appeared 2 letters ago.),P,space,,,,,,,,,0,12,12,12,0,6,6,6,,,,,,,,,,,,,,,,,,,,,,,,,,,,,,,,,,,,,,,,,,,,,,,,,,,,,,,,,,,,,,,,,,,,,1.599,895.2629775,None,space,1,895.2629775,None,0.504718,P053,FENCOG,2,Post,2022_Jun_21_1127,N-Back (New Version 2021),2021.1.4,119.4668909
,,,,Conditions/Version_1/twoback(4)_v1.xlsx,New rule: Press 'space' when you see 2-back (i.e. the same letter as the one that appeared 2 letters ago.),y,None,,,,,,,,,0,12,12,12,0,7,7,7,,,,,,,,,,,,,,,,,,,,,,,,,,,,,,,,,,,,,,,,,,,,,,,,,,,,,,,,,,,,,,,,,,,,,1.1898,898.469748,None,space,0,898.469748,None,0.5221326,P053,FENCOG,2,Post,2022_Jun_21_1127,N-Back (New Version 2021),2021.1.4,119.4668909
,,,,Conditions/Version_1/twoback(4)_v1.xlsx,New rule: Press 'space' when you see 2-back (i.e. the same letter as the one that appeared 2 letters ago.),y,space,,,,,,,,,0,12,12,12,0,8,8,8,,,,,,,,,,,,,,,,,,,,,,,,,,,,,,,,,,,,,,,,,,,,,,,,,,,,,,,,,,,,,,,,,,,,,1.1402,901.6160924,None,None,0,901.6160924,None,,P053,FENCOG,2,Post,2022_Jun_21_1127,N-Back (New Version 2021),2021.1.4,119.4668909
,,,,Conditions/Version_1/twoback(4)_v1.xlsx,New rule: Press 'space' when you see 2-back (i.e. the same letter as the one that appeared 2 letters ago.),,,,,,,,,,,0,12,12,12,,,,,,,,,,,,,,,,,,,,,,,,,,,,,,,,,,,,,,,,,,,,,,,,,,,,,,,,,,,,,,,,,,,,,,,,,,,,,,,,,P053,FENCOG,2,Post,2022_Jun_21_1127,N-Back (New Version 2021),2021.1.4,119.4668909
,,,,Conditions/Version_1/zeroback(4)_v1.xlsx,New rule: Press 'space' when you see the letter 'x' or 'X'.,o,None,,,,,,,,,0,13,13,13,0,0,0,0,,,,,,,,,,,,,,,,,,,,,,,,,,,,,,,,,,,,,,,,,,,,,,,,,,,,,,,,,,,903.6646531,None,906.6518819,None,space,0.2437549,906.6518819,None,903.6646531,None,1.1898,908.1259943,None,None,1,908.1259943,None,,P053,FENCOG,2,Post,2022_Jun_21_1127,N-Back (New Version 2021),2021.1.4,119.4668909
,,,,Conditions/Version_1/zeroback(4)_v1.xlsx,New rule: Press 'space' when you see the letter 'x' or 'X'.,X,space,,,,,,,,,0,13,13,13,0,1,1,1,,,,,,,,,,,,,,,,,,,,,,,,,,,,,,,,,,,,,,,,,,,,,,,,,,,,,,,,,,,,,,,,,,,,,1.0844,911.2252096,None,space,1,911.2252096,None,0.414655,P053,FENCOG,2,Post,2022_Jun_21_1127,N-Back (New Version 2021),2021.1.4,119.4668909
,,,,Conditions/Version_1/zeroback(4)_v1.xlsx,New rule: Press 'space' when you see the letter 'x' or 'X'.,p,None,,,,,,,,,0,13,13,13,0,2,2,2,,,,,,,,,,,,,,,,,,,,,,,,,,,,,,,,,,,,,,,,,,,,,,,,,,,,,,,,,,,,,,,,,,,,,1.568,914.7999373,None,None,1,914.7999373,None,,P053,FENCOG,2,Post,2022_Jun_21_1127,N-Back (New Version 2021),2021.1.4,119.4668909
,,,,Conditions/Version_1/zeroback(4)_v1.xlsx,New rule: Press 'space' when you see the letter 'x' or 'X'.,m,None,,,,,,,,,0,13,13,13,0,3,3,3,,,,,,,,,,,,,,,,,,,,,,,,,,,,,,,,,,,,,,,,,,,,,,,,,,,,,,,,,,,,,,,,,,,,,1.1526,917.9661546,None,None,1,917.9661546,None,,P053,FENCOG,2,Post,2022_Jun_21_1127,N-Back (New Version 2021),2021.1.4,119.4668909
,,,,Conditions/Version_1/zeroback(4)_v1.xlsx,New rule: Press 'space' when you see the letter 'x' or 'X'.,n,None,,,,,,,,,0,13,13,13,0,4,4,4,,,,,,,,,,,,,,,,,,,,,,,,,,,,,,,,,,,,,,,,,,,,,,,,,,,,,,,,,,,,,,,,,,,,,1.4998,921.474068,None,None,1,921.474068,None,,P053,FENCOG,2,Post,2022_Jun_21_1127,N-Back (New Version 2021),2021.1.4,119.4668909
,,,,Conditions/Version_1/zeroback(4)_v1.xlsx,New rule: Press 'space' when you see the letter 'x' or 'X'.,m,None,,,,,,,,,0,13,13,13,0,5,5,5,,,,,,,,,,,,,,,,,,,,,,,,,,,,,,,,,,,,,,,,,,,,,,,,,,,,,,,,,,,,,,,,,,,,,1.8842,925.3700231,None,None,1,925.3700231,None,,P053,FENCOG,2,Post,2022_Jun_21_1127,N-Back (New Version 2021),2021.1.4,119.4668909
,,,,Conditions/Version_1/zeroback(4)_v1.xlsx,New rule: Press 'space' when you see the letter 'x' or 'X'.,C,None,,,,,,,,,0,13,13,13,0,6,6,6,,,,,,,,,,,,,,,,,,,,,,,,,,,,,,,,,,,,,,,,,,,,,,,,,,,,,,,,,,,,,,,,,,,,,1.6114,928.9864023,None,None,1,928.9864023,None,,P053,FENCOG,2,Post,2022_Jun_21_1127,N-Back (New Version 2021),2021.1.4,119.4668909
,,,,Conditions/Version_1/zeroback(4)_v1.xlsx,New rule: Press 'space' when you see the letter 'x' or 'X'.,m,None,,,,,,,,,0,13,13,13,0,7,7,7,,,,,,,,,,,,,,,,,,,,,,,,,,,,,,,,,,,,,,,,,,,,,,,,,,,,,,,,,,,,,,,,,,,,,1.6734,932.6780498,None,None,1,932.6780498,None,,P053,FENCOG,2,Post,2022_Jun_21_1127,N-Back (New Version 2021),2021.1.4,119.4668909
,,,,Conditions/Version_1/zeroback(4)_v1.xlsx,New rule: Press 'space' when you see the letter 'x' or 'X'.,p,None,,,,,,,,,0,13,13,13,0,8,8,8,,,,,,,,,,,,,,,,,,,,,,,,,,,,,,,,,,,,,,,,,,,,,,,,,,,,,,,,,,,,,,,,,,,,,1.475,936.1548521,None,None,1,936.1548521,None,,P053,FENCOG,2,Post,2022_Jun_21_1127,N-Back (New Version 2021),2021.1.4,119.4668909
,,,,Conditions/Version_1/zeroback(4)_v1.xlsx,New rule: Press 'space' when you see the letter 'x' or 'X'.,X,space,,,,,,,,,0,13,13,13,0,9,9,9,,,,,,,,,,,,,,,,,,,,,,,,,,,,,,,,,,,,,,,,,,,,,,,,,,,,,,,,,,,,,,,,,,,,,1.4192,939.5787433,None,space,1,939.5787433,None,0.5249274,P053,FENCOG,2,Post,2022_Jun_21_1127,N-Back (New Version 2021),2021.1.4,119.4668909
,,,,Conditions/Version_1/zeroback(4)_v1.xlsx,New rule: Press 'space' when you see the letter 'x' or 'X'.,,,,,,,,,,,0,13,13,13,,,,,,,,,,,,,,,,,,,,,,,,,,,,,,,,,,,,,,,,,,,,,,,,,,,,,,,,,,,,,,,,,,,,,,,,,,,,,,,,,P053,FENCOG,2,Post,2022_Jun_21_1127,N-Back (New Version 2021),2021.1.4,119.4668909
,,,,Conditions/Version_1/oneback(4)_v1.xlsx,New rule: Press 'space' when you see 1-back (i.e. the same letter as the one that appeared 1 letter ago.),w,None,,,,,,,,,0,14,14,14,0,0,0,0,,,,,,,,,,,,,,,,,,,,,,,,,,,,,,,,,,,,,,,,,,,,,,,,,,,,,,,,,,,941.6260095,None,944.6081085,None,space,0.3834621,944.6081085,None,941.6260095,None,1.382,946.4161695,None,None,1,946.4161695,None,,P053,FENCOG,2,Post,2022_Jun_21_1127,N-Back (New Version 2021),2021.1.4,119.4668909
,,,,Conditions/Version_1/oneback(4)_v1.xlsx,New rule: Press 'space' when you see 1-back (i.e. the same letter as the one that appeared 1 letter ago.),q,None,,,,,,,,,0,14,14,14,0,1,1,1,,,,,,,,,,,,,,,,,,,,,,,,,,,,,,,,,,,,,,,,,,,,,,,,,,,,,,,,,,,,,,,,,,,,,1.5928,950.0090221,None,None,1,950.0090221,None,,P053,FENCOG,2,Post,2022_Jun_21_1127,N-Back (New Version 2021),2021.1.4,119.4668909
,,,,Conditions/Version_1/oneback(4)_v1.xlsx,New rule: Press 'space' when you see 1-back (i.e. the same letter as the one that appeared 1 letter ago.),i,None,,,,,,,,,0,14,14,14,0,2,2,2,,,,,,,,,,,,,,,,,,,,,,,,,,,,,,,,,,,,,,,,,,,,,,,,,,,,,,,,,,,,,,,,,,,,,1.5742,953.5920077,None,None,1,953.5920077,None,,P053,FENCOG,2,Post,2022_Jun_21_1127,N-Back (New Version 2021),2021.1.4,119.4668909
,,,,Conditions/Version_1/oneback(4)_v1.xlsx,New rule: Press 'space' when you see 1-back (i.e. the same letter as the one that appeared 1 letter ago.),t,None,,,,,,,,,0,14,14,14,0,3,3,3,,,,,,,,,,,,,,,,,,,,,,,,,,,,,,,,,,,,,,,,,,,,,,,,,,,,,,,,,,,,,,,,,,,,,1.4192,957.0195407,None,None,1,957.0195407,None,,P053,FENCOG,2,Post,2022_Jun_21_1127,N-Back (New Version 2021),2021.1.4,119.4668909
,,,,Conditions/Version_1/oneback(4)_v1.xlsx,New rule: Press 'space' when you see 1-back (i.e. the same letter as the one that appeared 1 letter ago.),v,None,,,,,,,,,0,14,14,14,0,4,4,4,,,,,,,,,,,,,,,,,,,,,,,,,,,,,,,,,,,,,,,,,,,,,,,,,,,,,,,,,,,,,,,,,,,,,1.3634,960.4048491,None,None,1,960.4048491,None,,P053,FENCOG,2,Post,2022_Jun_21_1127,N-Back (New Version 2021),2021.1.4,119.4668909
,,,,Conditions/Version_1/oneback(4)_v1.xlsx,New rule: Press 'space' when you see 1-back (i.e. the same letter as the one that appeared 1 letter ago.),V,space,,,,,,,,,0,14,14,14,0,5,5,5,,,,,,,,,,,,,,,,,,,,,,,,,,,,,,,,,,,,,,,,,,,,,,,,,,,,,,,,,,,,,,,,,,,,,1.3696,963.787539,None,space,1,963.787539,None,0.8121133,P053,FENCOG,2,Post,2022_Jun_21_1127,N-Back (New Version 2021),2021.1.4,119.4668909
,,,,Conditions/Version_1/oneback(4)_v1.xlsx,New rule: Press 'space' when you see 1-back (i.e. the same letter as the one that appeared 1 letter ago.),v,space,,,,,,,,,0,14,14,14,0,6,6,6,,,,,,,,,,,,,,,,,,,,,,,,,,,,,,,,,,,,,,,,,,,,,,,,,,,,,,,,,,,,,,,,,,,,,1.6548,967.4511816,None,space,1,967.4511816,None,0.4525837,P053,FENCOG,2,Post,2022_Jun_21_1127,N-Back (New Version 2021),2021.1.4,119.4668909
,,,,Conditions/Version_1/oneback(4)_v1.xlsx,New rule: Press 'space' when you see 1-back (i.e. the same letter as the one that appeared 1 letter ago.),p,None,,,,,,,,,0,14,14,14,0,7,7,7,,,,,,,,,,,,,,,,,,,,,,,,,,,,,,,,,,,,,,,,,,,,,,,,,,,,,,,,,,,,,,,,,,,,,1.4812,970.9363402,None,None,1,970.9363402,None,,P053,FENCOG,2,Post,2022_Jun_21_1127,N-Back (New Version 2021),2021.1.4,119.4668909
,,,,Conditions/Version_1/oneback(4)_v1.xlsx,New rule: Press 'space' when you see 1-back (i.e. the same letter as the one that appeared 1 letter ago.),w,None,,,,,,,,,0,14,14,14,0,8,8,8,,,,,,,,,,,,,,,,,,,,,,,,,,,,,,,,,,,,,,,,,,,,,,,,,,,,,,,,,,,,,,,,,,,,,1.1898,974.1398723,None,None,1,974.1398723,None,,P053,FENCOG,2,Post,2022_Jun_21_1127,N-Back (New Version 2021),2021.1.4,119.4668909
,,,,Conditions/Version_1/oneback(4)_v1.xlsx,New rule: Press 'space' when you see 1-back (i.e. the same letter as the one that appeared 1 letter ago.),W,space,,,,,,,,,0,14,14,14,0,9,9,9,,,,,,,,,,,,,,,,,,,,,,,,,,,,,,,,,,,,,,,,,,,,,,,,,,,,,,,,,,,,,,,,,,,,,1.1402,977.290891,None,space,1,977.290891,None,0.4531212,P053,FENCOG,2,Post,2022_Jun_21_1127,N-Back (New Version 2021),2021.1.4,119.4668909
,,,,Conditions/Version_1/oneback(4)_v1.xlsx,New rule: Press 'space' when you see 1-back (i.e. the same letter as the one that appeared 1 letter ago.),,,,,,,,,,,0,14,14,14,,,,,,,,,,,,,,,,,,,,,,,,,,,,,,,,,,,,,,,,,,,,,,,,,,,,,,,,,,,,,,,,,,,,,,,,,,,,,,,,,P053,FENCOG,2,Post,2022_Jun_21_1127,N-Back (New Version 2021),2021.1.4,119.4668909
,,,,Conditions/Version_1/threeback(4)_v1.xlsx,New rule: Press 'space' when you see 3-back (i.e. the same letter as the one that appeared 3 letters ago.),A,None,,,,,,,,,0,15,15,15,0,0,0,0,,,,,,,,,,,,,,,,,,,,,,,,,,,,,,,,,,,,,,,,,,,,,,,,,,,,,,,,,,,979.3165573,None,982.2968508,None,space,0.4948192,982.2968508,None,979.3165573,None,1.7354,984.5772135,None,None,1,984.5772135,None,,P053,FENCOG,2,Post,2022_Jun_21_1127,N-Back (New Version 2021),2021.1.4,119.4668909
,,,,Conditions/Version_1/threeback(4)_v1.xlsx,New rule: Press 'space' when you see 3-back (i.e. the same letter as the one that appeared 3 letters ago.),n,None,,,,,,,,,0,15,15,15,0,1,1,1,,,,,,,,,,,,,,,,,,,,,,,,,,,,,,,,,,,,,,,,,,,,,,,,,,,,,,,,,,,,,,,,,,,,,1.7726,988.3648002,None,None,1,988.3648002,None,,P053,FENCOG,2,Post,2022_Jun_21_1127,N-Back (New Version 2021),2021.1.4,119.4668909
,,,,Conditions/Version_1/threeback(4)_v1.xlsx,New rule: Press 'space' when you see 3-back (i.e. the same letter as the one that appeared 3 letters ago.),g,None,,,,,,,,,0,15,15,15,0,2,2,2,,,,,,,,,,,,,,,,,,,,,,,,,,,,,,,,,,,,,,,,,,,,,,,,,,,,,,,,,,,,,,,,,,,,,1.7664,992.1421725,None,None,1,992.1421725,None,,P053,FENCOG,2,Post,2022_Jun_21_1127,N-Back (New Version 2021),2021.1.4,119.4668909
,,,,Conditions/Version_1/threeback(4)_v1.xlsx,New rule: Press 'space' when you see 3-back (i.e. the same letter as the one that appeared 3 letters ago.),A,space,,,,,,,,,0,15,15,15,0,3,3,3,,,,,,,,,,,,,,,,,,,,,,,,,,,,,,,,,,,,,,,,,,,,,,,,,,,,,,,,,,,,,,,,,,,,,1.2146,995.3667906,None,space,1,995.3667906,None,0.6173171,P053,FENCOG,2,Post,2022_Jun_21_1127,N-Back (New Version 2021),2021.1.4,119.4668909
,,,,Conditions/Version_1/threeback(4)_v1.xlsx,New rule: Press 'space' when you see 3-back (i.e. the same letter as the one that appeared 3 letters ago.),p,None,,,,,,,,,0,15,15,15,0,4,4,4,,,,,,,,,,,,,,,,,,,,,,,,,,,,,,,,,,,,,,,,,,,,,,,,,,,,,,,,,,,,,,,,,,,,,1.0596,998.4347126,None,None,1,998.4347126,None,,P053,FENCOG,2,Post,2022_Jun_21_1127,N-Back (New Version 2021),2021.1.4,119.4668909
,,,,Conditions/Version_1/threeback(4)_v1.xlsx,New rule: Press 'space' when you see 3-back (i.e. the same letter as the one that appeared 3 letters ago.),O,None,,,,,,,,,0,15,15,15,0,5,5,5,,,,,,,,,,,,,,,,,,,,,,,,,,,,,,,,,,,,,,,,,,,,,,,,,,,,,,,,,,,,,,,,,,,,,1.1588,1001.602077,None,None,1,1001.602077,None,,P053,FENCOG,2,Post,2022_Jun_21_1127,N-Back (New Version 2021),2021.1.4,119.4668909
,,,,Conditions/Version_1/threeback(4)_v1.xlsx,New rule: Press 'space' when you see 3-back (i.e. the same letter as the one that appeared 3 letters ago.),a,space,,,,,,,,,0,15,15,15,0,6,6,6,,,,,,,,,,,,,,,,,,,,,,,,,,,,,,,,,,,,,,,,,,,,,,,,,,,,,,,,,,,,,,,,,,,,,1.6114,1005.231883,None,space,1,1005.231883,None,0.4317043,P053,FENCOG,2,Post,2022_Jun_21_1127,N-Back (New Version 2021),2021.1.4,119.4668909
,,,,Conditions/Version_1/threeback(4)_v1.xlsx,New rule: Press 'space' when you see 3-back (i.e. the same letter as the one that appeared 3 letters ago.),p,space,,,,,,,,,0,15,15,15,0,7,7,7,,,,,,,,,,,,,,,,,,,,,,,,,,,,,,,,,,,,,,,,,,,,,,,,,,,,,,,,,,,,,,,,,,,,,1.8532,1009.095194,None,space,1,1009.095194,None,0.7529136,P053,FENCOG,2,Post,2022_Jun_21_1127,N-Back (New Version 2021),2021.1.4,119.4668909
,,,,Conditions/Version_1/threeback(4)_v1.xlsx,New rule: Press 'space' when you see 3-back (i.e. the same letter as the one that appeared 3 letters ago.),x,None,,,,,,,,,0,15,15,15,0,8,8,8,,,,,,,,,,,,,,,,,,,,,,,,,,,,,,,,,,,,,,,,,,,,,,,,,,,,,,,,,,,,,,,,,,,,,1.785,1012.894834,None,None,1,1012.894834,None,,P053,FENCOG,2,Post,2022_Jun_21_1127,N-Back (New Version 2021),2021.1.4,119.4668909
,,,,Conditions/Version_1/threeback(4)_v1.xlsx,New rule: Press 'space' when you see 3-back (i.e. the same letter as the one that appeared 3 letters ago.),X,None,,,,,,,,,0,15,15,15,0,9,9,9,,,,,,,,,,,,,,,,,,,,,,,,,,,,,,,,,,,,,,,,,,,,,,,,,,,,,,,,,,,,,,,,,,,,,1.1402,1016.050447,None,None,1,1016.050447,None,,P053,FENCOG,2,Post,2022_Jun_21_1127,N-Back (New Version 2021),2021.1.4,119.4668909
,,,,Conditions/Version_1/threeback(4)_v1.xlsx,New rule: Press 'space' when you see 3-back (i.e. the same letter as the one that appeared 3 letters ago.),,,,,,,,,,,0,15,15,15,,,,,,,,,,,,,,,,,,,,,,,,,,,,,,,,,,,,,,,,,,,,,,,,,,,,,,,,,,,,,,,,,,,,,,,,,,,,,,,,,P053,FENCOG,2,Post,2022_Jun_21_1127,N-Back (New Version 2021),2021.1.4,119.4668909
