CondFileP,InstructionsP,LettersDisplayedP,CorrectnessP,CondFile,Instructions,LettersDisplayed,Correctness,practicetrials.thisRepN,practicetrials.thisTrialN,practicetrials.thisN,practicetrials.thisIndex,InnerLoopPractice.thisRepN,InnerLoopPractice.thisTrialN,InnerLoopPractice.thisN,InnerLoopPractice.thisIndex,trials.thisRepN,trials.thisTrialN,trials.thisN,trials.thisIndex,InnerLoop.thisRepN,InnerLoop.thisTrialN,InnerLoop.thisN,InnerLoop.thisIndex,TaskVersionText.started,TaskVersionText.stopped,InstrKey1.keys,InstrKey1.rt,InstrKey1.started,InstrKey1.stopped,text.started,text.stopped,key_resp_4.keys,key_resp_4.rt,key_resp_4.started,key_resp_4.stopped,text_2.started,text_2.stopped,key_resp_3.keys,key_resp_3.rt,key_resp_3.started,key_resp_3.stopped,text_3.started,text_3.stopped,key_resp_2.keys,key_resp_2.rt,key_resp_2.started,key_resp_2.stopped,PractIn1.started,PractIn1.stopped,PractIn2.started,PractIn2.stopped,PractInstructionPass.keys,PractInstructionPass.rt,PractInstructionPass.started,PractInstructionPass.stopped,PractBlock1.started,PractBlock1.stopped,ISIjitterPractice,ISI_Pract_Fixation.started,ISI_Pract_Fixation.stopped,N_backP.started,N_backP.stopped,KeyPractice.keys,KeyPractice.corr,KeyPractice.started,KeyPractice.stopped,text_4.started,text_4.stopped,KeyPractice.rt,TransitionText.started,TransitionText.stopped,key_resp_6.keys,key_resp_6.rt,key_resp_6.started,key_resp_6.stopped,text_5.started,text_5.stopped,key_resp_5.keys,key_resp_5.rt,key_resp_5.started,key_resp_5.stopped,MainInt1.started,MainInt1.stopped,MainInt2.started,MainInt2.stopped,InstructionPass.keys,InstructionPass.rt,InstructionPass.started,InstructionPass.stopped,Blocks1.started,Blocks1.stopped,ISIjitter,N_backD.started,N_backD.stopped,key_resp.keys,key_resp.corr,key_resp.started,key_resp.stopped,key_resp.rt,participant,Study Name,Task Version (required to run),PRE/POST,date,expName,psychopyVersion,frameRate,
,,,,,,,,,,,,,,,,,,,,,,,,44.55789470000309,None,space,2.2532551000040257,45.05439840001054,None,,,,,,,,,,,,,,,,,,,,,,,,,,,,,,,,,,,,,,,,,,,,,,,,,,,,,,,,,,,,,,,,,,,,,,,P053,FENCOG,1,Pre,2022_Jun_14_1109,N-Back (New Version 2021),2021.1.4,119.71130420848681,
,,,,,,,,,,,,,,,,,,,,,,,,,,,,,,47.35333090000495,None,space,15.325430700002471,47.84562220000953,None,,,,,,,,,,,,,,,,,,,,,,,,,,,,,,,,,,,,,,,,,,,,,,,,,,,,,,,,,,,,,,,,,P053,FENCOG,1,Pre,2022_Jun_14_1109,N-Back (New Version 2021),2021.1.4,119.71130420848681,
,,,,,,,,,,,,,,,,,,,,,,,,,,,,,,,,,,,,63.20632800000021,None,space,15.855418899998767,63.699632200005,None,,,,,,,,,,,,,,,,,,,,,,,,,,,,,,,,,,,,,,,,,,,,,,,,,,,,,,,,,,,P053,FENCOG,1,Pre,2022_Jun_14_1109,N-Back (New Version 2021),2021.1.4,119.71130420848681,
,,,,,,,,,,,,,,,,,,,,,,,,,,,,,,,,,,,,,,,,,,79.5801899000071,None,space,9.981544099995517,80.06964120001066,None,,,,,,,,,,,,,,,,,,,,,,,,,,,,,,,,,,,,,,,,,,,,,,,,,,,,,P053,FENCOG,1,Pre,2022_Jun_14_1109,N-Back (New Version 2021),2021.1.4,119.71130420848681,
Conditions/Version_1Pr/zeroback(1)_v1.xlsx,Rule: Press 'space' when you see the letter 'x' or 'X'.,Z,None,,,,,0,0,0,0,0,0,0,0,,,,,,,,,,,,,,,,,,,,,,,,,,,,,,,,,91.42306260000623,None,94.40820210000675,None,space,0.03470210000523366,94.40820210000675,None,91.42306260000623,None,1.79,94.47397250001086,None,96.2692350000143,None,None,1,96.2692350000143,None,98.27405180000642,None,,,,,,,,,,,,,,,,,,,,,,,,,,,,,,,,P053,FENCOG,1,Pre,2022_Jun_14_1109,N-Back (New Version 2021),2021.1.4,119.71130420848681,
Conditions/Version_1Pr/zeroback(1)_v1.xlsx,Rule: Press 'space' when you see the letter 'x' or 'X'.,r,None,,,,,0,0,0,0,0,1,1,1,,,,,,,,,,,,,,,,,,,,,,,,,,,,,,,,,,,,,,,,,,,1.39,99.77137320001202,None,101.1699956000084,None,None,1,101.1699956000084,None,103.17000110000663,None,,,,,,,,,,,,,,,,,,,,,,,,,,,,,,,,P053,FENCOG,1,Pre,2022_Jun_14_1109,N-Back (New Version 2021),2021.1.4,119.71130420848681,
Conditions/Version_1Pr/zeroback(1)_v1.xlsx,Rule: Press 'space' when you see the letter 'x' or 'X'.,X,space,,,,,0,0,0,0,0,2,2,2,,,,,,,,,,,,,,,,,,,,,,,,,,,,,,,,,,,,,,,,,,,1.865,104.66978220001329,None,106.53879620000953,None,space,1,106.53879620000953,None,106.95645710000827,None,0.4008290999918245,,,,,,,,,,,,,,,,,,,,,,,,,,,,,,,P053,FENCOG,1,Pre,2022_Jun_14_1109,N-Back (New Version 2021),2021.1.4,119.71130420848681,
Conditions/Version_1Pr/zeroback(1)_v1.xlsx,Rule: Press 'space' when you see the letter 'x' or 'X'.,p,None,,,,,0,0,0,0,0,3,3,3,,,,,,,,,,,,,,,,,,,,,,,,,,,,,,,,,,,,,,,,,,,1.14,108.46045630000299,None,109.60333460000402,None,None,1,109.60333460000402,None,111.60615700000199,None,,,,,,,,,,,,,,,,,,,,,,,,,,,,,,,,P053,FENCOG,1,Pre,2022_Jun_14_1109,N-Back (New Version 2021),2021.1.4,119.71130420848681,
Conditions/Version_1Pr/zeroback(1)_v1.xlsx,Rule: Press 'space' when you see the letter 'x' or 'X'.,w,None,,,,,0,0,0,0,0,4,4,4,,,,,,,,,,,,,,,,,,,,,,,,,,,,,,,,,,,,,,,,,,,1.29,113.10911760000454,None,114.40088000000105,None,space,0,114.40088000000105,None,114.73012860000017,None,0.3142018999933498,,,,,,,,,,,,,,,,,,,,,,,,,,,,,,,P053,FENCOG,1,Pre,2022_Jun_14_1109,N-Back (New Version 2021),2021.1.4,119.71130420848681,
Conditions/Version_1Pr/zeroback(1)_v1.xlsx,Rule: Press 'space' when you see the letter 'x' or 'X'.,e,None,,,,,0,0,0,0,0,5,5,5,,,,,,,,,,,,,,,,,,,,,,,,,,,,,,,,,,,,,,,,,,,1.64,116.2331317000062,None,117.8772336000111,None,None,1,117.8772336000111,None,119.88191040001402,None,,,,,,,,,,,,,,,,,,,,,,,,,,,,,,,,P053,FENCOG,1,Pre,2022_Jun_14_1109,N-Back (New Version 2021),2021.1.4,119.71130420848681,
Conditions/Version_1Pr/zeroback(1)_v1.xlsx,Rule: Press 'space' when you see the letter 'x' or 'X'.,X,space,,,,,0,0,0,0,0,6,6,6,,,,,,,,,,,,,,,,,,,,,,,,,,,,,,,,,,,,,,,,,,,1.265,121.38173020000977,None,122.6487816000008,None,space,1,122.6487816000008,None,123.02361990000645,None,0.36200429999735206,,,,,,,,,,,,,,,,,,,,,,,,,,,,,,,P053,FENCOG,1,Pre,2022_Jun_14_1109,N-Back (New Version 2021),2021.1.4,119.71130420848681,
Conditions/Version_1Pr/zeroback(1)_v1.xlsx,Rule: Press 'space' when you see the letter 'x' or 'X'.,x,space,,,,,0,0,0,0,0,7,7,7,,,,,,,,,,,,,,,,,,,,,,,,,,,,,,,,,,,,,,,,,,,1.49,124.53071679999994,None,126.02834950000397,None,space,1,126.02834950000397,None,126.43174820000422,None,0.39048519999778364,,,,,,,,,,,,,,,,,,,,,,,,,,,,,,,P053,FENCOG,1,Pre,2022_Jun_14_1109,N-Back (New Version 2021),2021.1.4,119.71130420848681,
Conditions/Version_1Pr/zeroback(1)_v1.xlsx,Rule: Press 'space' when you see the letter 'x' or 'X'.,p,None,,,,,0,0,0,0,0,8,8,8,,,,,,,,,,,,,,,,,,,,,,,,,,,,,,,,,,,,,,,,,,,1.165,127.93878110000514,None,129.10520620000898,None,None,1,129.10520620000898,None,131.11216820000845,None,,,,,,,,,,,,,,,,,,,,,,,,,,,,,,,,P053,FENCOG,1,Pre,2022_Jun_14_1109,N-Back (New Version 2021),2021.1.4,119.71130420848681,
Conditions/Version_1Pr/zeroback(1)_v1.xlsx,Rule: Press 'space' when you see the letter 'x' or 'X'.,r,None,,,,,0,0,0,0,0,9,9,9,,,,,,,,,,,,,,,,,,,,,,,,,,,,,,,,,,,,,,,,,,,1.74,132.6116888000106,None,134.35324290000426,None,None,1,134.35324290000426,None,136.35694590001367,None,,,,,,,,,,,,,,,,,,,,,,,,,,,,,,,,P053,FENCOG,1,Pre,2022_Jun_14_1109,N-Back (New Version 2021),2021.1.4,119.71130420848681,
Conditions/Version_1Pr/zeroback(1)_v1.xlsx,Rule: Press 'space' when you see the letter 'x' or 'X'.,,,,,,,0,0,0,0,,,,,,,,,,,,,,,,,,,,,,,,,,,,,,,,,,,,,,,,,,,,,,,,,,,,,,,,,,,,,,,,,,,,,,,,,,,,,,,,,,,,,,,,,P053,FENCOG,1,Pre,2022_Jun_14_1109,N-Back (New Version 2021),2021.1.4,119.71130420848681,
Conditions/Version_1Pr/oneback(1)_v1.xlsx,New rule: Press 'space' when you see 1-back (i.e. the same letter as the one that appeared 1 letter ago.),a,None,,,,,0,1,1,1,0,0,0,0,,,,,,,,,,,,,,,,,,,,,,,,,,,,,,,,,137.88677250000183,None,140.86924810000346,None,space,1.1576044999965234,140.86924810000346,None,137.88677250000183,None,1.64,142.05566330000875,None,143.70197750000807,None,None,1,143.70197750000807,None,145.70783710000978,None,,,,,,,,,,,,,,,,,,,,,,,,,,,,,,,,P053,FENCOG,1,Pre,2022_Jun_14_1109,N-Back (New Version 2021),2021.1.4,119.71130420848681,
Conditions/Version_1Pr/oneback(1)_v1.xlsx,New rule: Press 'space' when you see 1-back (i.e. the same letter as the one that appeared 1 letter ago.),x,None,,,,,0,1,1,1,0,1,1,1,,,,,,,,,,,,,,,,,,,,,,,,,,,,,,,,,,,,,,,,,,,1.69,147.2074214000022,None,148.9018694000115,None,None,1,148.9018694000115,None,150.90637400001287,None,,,,,,,,,,,,,,,,,,,,,,,,,,,,,,,,P053,FENCOG,1,Pre,2022_Jun_14_1109,N-Back (New Version 2021),2021.1.4,119.71130420848681,
Conditions/Version_1Pr/oneback(1)_v1.xlsx,New rule: Press 'space' when you see 1-back (i.e. the same letter as the one that appeared 1 letter ago.),g,None,,,,,0,1,1,1,0,2,2,2,,,,,,,,,,,,,,,,,,,,,,,,,,,,,,,,,,,,,,,,,,,1.465,152.40596820000792,None,153.8717816000135,None,None,1,153.8717816000135,None,155.87150560000737,None,,,,,,,,,,,,,,,,,,,,,,,,,,,,,,,,P053,FENCOG,1,Pre,2022_Jun_14_1109,N-Back (New Version 2021),2021.1.4,119.71130420848681,
Conditions/Version_1Pr/oneback(1)_v1.xlsx,New rule: Press 'space' when you see 1-back (i.e. the same letter as the one that appeared 1 letter ago.),G,space,,,,,0,1,1,1,0,3,3,3,,,,,,,,,,,,,,,,,,,,,,,,,,,,,,,,,,,,,,,,,,,1.715,157.3746916000091,None,159.09711990000505,None,space,1,159.09711990000505,None,159.4847992000141,None,0.37782600001082756,,,,,,,,,,,,,,,,,,,,,,,,,,,,,,,P053,FENCOG,1,Pre,2022_Jun_14_1109,N-Back (New Version 2021),2021.1.4,119.71130420848681,
Conditions/Version_1Pr/oneback(1)_v1.xlsx,New rule: Press 'space' when you see 1-back (i.e. the same letter as the one that appeared 1 letter ago.),u,None,,,,,0,1,1,1,0,4,4,4,,,,,,,,,,,,,,,,,,,,,,,,,,,,,,,,,,,,,,,,,,,1.865,160.98666960000992,None,162.85949550000078,None,None,1,162.85949550000078,None,164.85604190001322,None,,,,,,,,,,,,,,,,,,,,,,,,,,,,,,,,P053,FENCOG,1,Pre,2022_Jun_14_1109,N-Back (New Version 2021),2021.1.4,119.71130420848681,
Conditions/Version_1Pr/oneback(1)_v1.xlsx,New rule: Press 'space' when you see 1-back (i.e. the same letter as the one that appeared 1 letter ago.),y,None,,,,,0,1,1,1,0,5,5,5,,,,,,,,,,,,,,,,,,,,,,,,,,,,,,,,,,,,,,,,,,,1.49,166.3601223000005,None,167.85790930000076,None,None,1,167.85790930000076,None,169.85884890001034,None,,,,,,,,,,,,,,,,,,,,,,,,,,,,,,,,P053,FENCOG,1,Pre,2022_Jun_14_1109,N-Back (New Version 2021),2021.1.4,119.71130420848681,
Conditions/Version_1Pr/oneback(1)_v1.xlsx,New rule: Press 'space' when you see 1-back (i.e. the same letter as the one that appeared 1 letter ago.),y,space,,,,,0,1,1,1,0,6,6,6,,,,,,,,,,,,,,,,,,,,,,,,,,,,,,,,,,,,,,,,,,,1.99,171.35866380001244,None,173.34950830000162,None,space,1,173.34950830000162,None,173.9162137000094,None,0.5498923999984981,,,,,,,,,,,,,,,,,,,,,,,,,,,,,,,P053,FENCOG,1,Pre,2022_Jun_14_1109,N-Back (New Version 2021),2021.1.4,119.71130420848681,
Conditions/Version_1Pr/oneback(1)_v1.xlsx,New rule: Press 'space' when you see 1-back (i.e. the same letter as the one that appeared 1 letter ago.),k,None,,,,,0,1,1,1,0,7,7,7,,,,,,,,,,,,,,,,,,,,,,,,,,,,,,,,,,,,,,,,,,,1.415,175.4157869000046,None,176.8422491000092,None,None,1,176.8422491000092,None,178.83972810000705,None,,,,,,,,,,,,,,,,,,,,,,,,,,,,,,,,P053,FENCOG,1,Pre,2022_Jun_14_1109,N-Back (New Version 2021),2021.1.4,119.71130420848681,
Conditions/Version_1Pr/oneback(1)_v1.xlsx,New rule: Press 'space' when you see 1-back (i.e. the same letter as the one that appeared 1 letter ago.),c,None,,,,,0,1,1,1,0,8,8,8,,,,,,,,,,,,,,,,,,,,,,,,,,,,,,,,,,,,,,,,,,,1.44,180.33938640000997,None,181.7811653000099,None,None,1,181.7811653000099,None,183.78526150000107,None,,,,,,,,,,,,,,,,,,,,,,,,,,,,,,,,P053,FENCOG,1,Pre,2022_Jun_14_1109,N-Back (New Version 2021),2021.1.4,119.71130420848681,
Conditions/Version_1Pr/oneback(1)_v1.xlsx,New rule: Press 'space' when you see 1-back (i.e. the same letter as the one that appeared 1 letter ago.),r,None,,,,,0,1,1,1,0,9,9,9,,,,,,,,,,,,,,,,,,,,,,,,,,,,,,,,,,,,,,,,,,,2.015,185.2878086000128,None,187.30500100000063,None,None,1,187.30500100000063,None,189.31168740001158,None,,,,,,,,,,,,,,,,,,,,,,,,,,,,,,,,P053,FENCOG,1,Pre,2022_Jun_14_1109,N-Back (New Version 2021),2021.1.4,119.71130420848681,
Conditions/Version_1Pr/oneback(1)_v1.xlsx,New rule: Press 'space' when you see 1-back (i.e. the same letter as the one that appeared 1 letter ago.),,,,,,,0,1,1,1,,,,,,,,,,,,,,,,,,,,,,,,,,,,,,,,,,,,,,,,,,,,,,,,,,,,,,,,,,,,,,,,,,,,,,,,,,,,,,,,,,,,,,,,,P053,FENCOG,1,Pre,2022_Jun_14_1109,N-Back (New Version 2021),2021.1.4,119.71130420848681,
Conditions/Version_1Pr/twoback(1)_v1.xlsx,New rule: Press 'space' when you see 2-back (i.e. the same letter as the one that appeared 2 letters ago.),E,None,,,,,0,2,2,2,0,0,0,0,,,,,,,,,,,,,,,,,,,,,,,,,,,,,,,,,190.8333655000024,None,193.82233350000752,None,space,94.05743339999754,193.82233350000752,None,190.8333655000024,None,1.14,287.90517380001256,None,289.05079790001037,None,None,1,289.05079790001037,None,291.05678310000803,None,,,,,,,,,,,,,,,,,,,,,,,,,,,,,,,,P053,FENCOG,1,Pre,2022_Jun_14_1109,N-Back (New Version 2021),2021.1.4,119.71130420848681,
Conditions/Version_1Pr/twoback(1)_v1.xlsx,New rule: Press 'space' when you see 2-back (i.e. the same letter as the one that appeared 2 letters ago.),p,None,,,,,0,2,2,2,0,1,1,1,,,,,,,,,,,,,,,,,,,,,,,,,,,,,,,,,,,,,,,,,,,1.79,292.5561793000088,None,294.3473351000139,None,None,1,294.3473351000139,None,296.34686400000646,None,,,,,,,,,,,,,,,,,,,,,,,,,,,,,,,,P053,FENCOG,1,Pre,2022_Jun_14_1109,N-Back (New Version 2021),2021.1.4,119.71130420848681,
Conditions/Version_1Pr/twoback(1)_v1.xlsx,New rule: Press 'space' when you see 2-back (i.e. the same letter as the one that appeared 2 letters ago.),e,space,,,,,0,2,2,2,0,2,2,2,,,,,,,,,,,,,,,,,,,,,,,,,,,,,,,,,,,,,,,,,,,1.19,297.84634810000716,None,299.0411338000122,None,space,1,299.0411338000122,None,299.4475134000095,None,0.3939715000014985,,,,,,,,,,,,,,,,,,,,,,,,,,,,,,,P053,FENCOG,1,Pre,2022_Jun_14_1109,N-Back (New Version 2021),2021.1.4,119.71130420848681,
Conditions/Version_1Pr/twoback(1)_v1.xlsx,New rule: Press 'space' when you see 2-back (i.e. the same letter as the one that appeared 2 letters ago.),s,None,,,,,0,2,2,2,0,3,3,3,,,,,,,,,,,,,,,,,,,,,,,,,,,,,,,,,,,,,,,,,,,1.965,300.953703200008,None,302.92127930000424,None,None,1,302.92127930000424,None,304.92773050001415,None,,,,,,,,,,,,,,,,,,,,,,,,,,,,,,,,P053,FENCOG,1,Pre,2022_Jun_14_1109,N-Back (New Version 2021),2021.1.4,119.71130420848681,
Conditions/Version_1Pr/twoback(1)_v1.xlsx,New rule: Press 'space' when you see 2-back (i.e. the same letter as the one that appeared 2 letters ago.),S,None,,,,,0,2,2,2,0,4,4,4,,,,,,,,,,,,,,,,,,,,,,,,,,,,,,,,,,,,,,,,,,,1.24,306.42727370001376,None,307.67942720001156,None,None,1,307.67942720001156,None,309.673557800008,None,,,,,,,,,,,,,,,,,,,,,,,,,,,,,,,,P053,FENCOG,1,Pre,2022_Jun_14_1109,N-Back (New Version 2021),2021.1.4,119.71130420848681,
Conditions/Version_1Pr/twoback(1)_v1.xlsx,New rule: Press 'space' when you see 2-back (i.e. the same letter as the one that appeared 2 letters ago.),s,space,,,,,0,2,2,2,0,5,5,5,,,,,,,,,,,,,,,,,,,,,,,,,,,,,,,,,,,,,,,,,,,1.99,311.17582290001155,None,313.16776230001415,None,space,1,313.16776230001415,None,313.5934736000054,None,0.4112669000023743,,,,,,,,,,,,,,,,,,,,,,,,,,,,,,,P053,FENCOG,1,Pre,2022_Jun_14_1109,N-Back (New Version 2021),2021.1.4,119.71130420848681,
Conditions/Version_1Pr/twoback(1)_v1.xlsx,New rule: Press 'space' when you see 2-back (i.e. the same letter as the one that appeared 2 letters ago.),P,None,,,,,0,2,2,2,0,6,6,6,,,,,,,,,,,,,,,,,,,,,,,,,,,,,,,,,,,,,,,,,,,1.365,315.09966550000536,None,316.46834040000977,None,None,1,316.46834040000977,None,318.46898520000104,None,,,,,,,,,,,,,,,,,,,,,,,,,,,,,,,,P053,FENCOG,1,Pre,2022_Jun_14_1109,N-Back (New Version 2021),2021.1.4,119.71130420848681,
Conditions/Version_1Pr/twoback(1)_v1.xlsx,New rule: Press 'space' when you see 2-back (i.e. the same letter as the one that appeared 2 letters ago.),C,None,,,,,0,2,2,2,0,7,7,7,,,,,,,,,,,,,,,,,,,,,,,,,,,,,,,,,,,,,,,,,,,1.89,319.9732396000036,None,321.8720224000135,None,None,1,321.8720224000135,None,323.87211840000236,None,,,,,,,,,,,,,,,,,,,,,,,,,,,,,,,,P053,FENCOG,1,Pre,2022_Jun_14_1109,N-Back (New Version 2021),2021.1.4,119.71130420848681,
Conditions/Version_1Pr/twoback(1)_v1.xlsx,New rule: Press 'space' when you see 2-back (i.e. the same letter as the one that appeared 2 letters ago.),x,None,,,,,0,2,2,2,0,8,8,8,,,,,,,,,,,,,,,,,,,,,,,,,,,,,,,,,,,,,,,,,,,1.94,325.37150290000136,None,327.3163682000013,None,None,1,327.3163682000013,None,329.32054510001035,None,,,,,,,,,,,,,,,,,,,,,,,,,,,,,,,,P053,FENCOG,1,Pre,2022_Jun_14_1109,N-Back (New Version 2021),2021.1.4,119.71130420848681,
Conditions/Version_1Pr/twoback(1)_v1.xlsx,New rule: Press 'space' when you see 2-back (i.e. the same letter as the one that appeared 2 letters ago.),Z,None,,,,,0,2,2,2,0,9,9,9,,,,,,,,,,,,,,,,,,,,,,,,,,,,,,,,,,,,,,,,,,,1.64,330.8200625000027,None,332.4683500000101,None,None,1,332.4683500000101,None,334.4750032000011,None,,,,,,,,,,,,,,,,,,,,,,,,,,,,,,,,P053,FENCOG,1,Pre,2022_Jun_14_1109,N-Back (New Version 2021),2021.1.4,119.71130420848681,
Conditions/Version_1Pr/twoback(1)_v1.xlsx,New rule: Press 'space' when you see 2-back (i.e. the same letter as the one that appeared 2 letters ago.),,,,,,,0,2,2,2,,,,,,,,,,,,,,,,,,,,,,,,,,,,,,,,,,,,,,,,,,,,,,,,,,,,,,,,,,,,,,,,,,,,,,,,,,,,,,,,,,,,,,,,,P053,FENCOG,1,Pre,2022_Jun_14_1109,N-Back (New Version 2021),2021.1.4,119.71130420848681,
Conditions/Version_1Pr/threeback(1)_v1.xlsx,New rule: Press 'space' when you see 3-back (i.e. the same letter as the one that appeared 3 letters ago.),r,None,,,,,0,3,3,3,0,0,0,0,,,,,,,,,,,,,,,,,,,,,,,,,,,,,,,,,335.9956394000037,None,338.9779899000132,None,space,0.5448503000079654,338.9779899000132,None,335.9956394000037,None,1.315,339.54964490000566,None,340.86682430001383,None,None,1,340.86682430001383,None,342.867419400005,None,,,,,,,,,,,,,,,,,,,,,,,,,,,,,,,,P053,FENCOG,1,Pre,2022_Jun_14_1109,N-Back (New Version 2021),2021.1.4,119.71130420848681,
Conditions/Version_1Pr/threeback(1)_v1.xlsx,New rule: Press 'space' when you see 3-back (i.e. the same letter as the one that appeared 3 letters ago.),a,None,,,,,0,3,3,3,0,1,1,1,,,,,,,,,,,,,,,,,,,,,,,,,,,,,,,,,,,,,,,,,,,1.44,344.37423550001404,None,345.81637880000926,None,None,1,345.81637880000926,None,347.81836530000146,None,,,,,,,,,,,,,,,,,,,,,,,,,,,,,,,,P053,FENCOG,1,Pre,2022_Jun_14_1109,N-Back (New Version 2021),2021.1.4,119.71130420848681,
Conditions/Version_1Pr/threeback(1)_v1.xlsx,New rule: Press 'space' when you see 3-back (i.e. the same letter as the one that appeared 3 letters ago.),t,None,,,,,0,3,3,3,0,2,2,2,,,,,,,,,,,,,,,,,,,,,,,,,,,,,,,,,,,,,,,,,,,1.09,349.32285680000496,None,350.41581900000165,None,None,1,350.41581900000165,None,352.4220165000006,None,,,,,,,,,,,,,,,,,,,,,,,,,,,,,,,,P053,FENCOG,1,Pre,2022_Jun_14_1109,N-Back (New Version 2021),2021.1.4,119.71130420848681,
Conditions/Version_1Pr/threeback(1)_v1.xlsx,New rule: Press 'space' when you see 3-back (i.e. the same letter as the one that appeared 3 letters ago.),r,space,,,,,0,3,3,3,0,3,3,3,,,,,,,,,,,,,,,,,,,,,,,,,,,,,,,,,,,,,,,,,,,1.64,353.9215188000089,None,355.5625221000082,None,space,1,355.5625221000082,None,356.0298632000049,None,0.45657979999668896,,,,,,,,,,,,,,,,,,,,,,,,,,,,,,,P053,FENCOG,1,Pre,2022_Jun_14_1109,N-Back (New Version 2021),2021.1.4,119.71130420848681,
Conditions/Version_1Pr/threeback(1)_v1.xlsx,New rule: Press 'space' when you see 3-back (i.e. the same letter as the one that appeared 3 letters ago.),a,None,,,,,0,3,3,3,0,4,4,4,,,,,,,,,,,,,,,,,,,,,,,,,,,,,,,,,,,,,,,,,,,1.915,357.53703980000864,None,359.4563760000019,None,space,0,359.4563760000019,None,360.0482372000115,None,0.5784399999974994,,,,,,,,,,,,,,,,,,,,,,,,,,,,,,,P053,FENCOG,1,Pre,2022_Jun_14_1109,N-Back (New Version 2021),2021.1.4,119.71130420848681,
Conditions/Version_1Pr/threeback(1)_v1.xlsx,New rule: Press 'space' when you see 3-back (i.e. the same letter as the one that appeared 3 letters ago.),Y,None,,,,,0,3,3,3,0,5,5,5,,,,,,,,,,,,,,,,,,,,,,,,,,,,,,,,,,,,,,,,,,,1.89,361.55262920001405,None,363.44786960000056,None,space,0,363.44786960000056,None,364.17567840000265,None,0.715387299991562,,,,,,,,,,,,,,,,,,,,,,,,,,,,,,,P053,FENCOG,1,Pre,2022_Jun_14_1109,N-Back (New Version 2021),2021.1.4,119.71130420848681,
Conditions/Version_1Pr/threeback(1)_v1.xlsx,New rule: Press 'space' when you see 3-back (i.e. the same letter as the one that appeared 3 letters ago.),q,None,,,,,0,3,3,3,0,6,6,6,,,,,,,,,,,,,,,,,,,,,,,,,,,,,,,,,,,,,,,,,,,1.34,365.6763474000036,None,367.02371100000164,None,space,0,367.02371100000164,None,368.3090220000013,None,1.2751653000013903,,,,,,,,,,,,,,,,,,,,,,,,,,,,,,,P053,FENCOG,1,Pre,2022_Jun_14_1109,N-Back (New Version 2021),2021.1.4,119.71130420848681,
Conditions/Version_1Pr/threeback(1)_v1.xlsx,New rule: Press 'space' when you see 3-back (i.e. the same letter as the one that appeared 3 letters ago.),A,space,,,,,0,3,3,3,0,7,7,7,,,,,,,,,,,,,,,,,,,,,,,,,,,,,,,,,,,,,,,,,,,1.365,369.8085490000085,None,371.17703840001195,None,space,1,371.17703840001195,None,372.1440777000098,None,0.9540460999996867,,,,,,,,,,,,,,,,,,,,,,,,,,,,,,,P053,FENCOG,1,Pre,2022_Jun_14_1109,N-Back (New Version 2021),2021.1.4,119.71130420848681,
Conditions/Version_1Pr/threeback(1)_v1.xlsx,New rule: Press 'space' when you see 3-back (i.e. the same letter as the one that appeared 3 letters ago.),y,None,,,,,0,3,3,3,0,8,8,8,,,,,,,,,,,,,,,,,,,,,,,,,,,,,,,,,,,,,,,,,,,1.69,373.6489070000098,None,375.3413792000065,None,None,1,375.3413792000065,None,377.3480249000131,None,,,,,,,,,,,,,,,,,,,,,,,,,,,,,,,,P053,FENCOG,1,Pre,2022_Jun_14_1109,N-Back (New Version 2021),2021.1.4,119.71130420848681,
Conditions/Version_1Pr/threeback(1)_v1.xlsx,New rule: Press 'space' when you see 3-back (i.e. the same letter as the one that appeared 3 letters ago.),r,None,,,,,0,3,3,3,0,9,9,9,,,,,,,,,,,,,,,,,,,,,,,,,,,,,,,,,,,,,,,,,,,2.015,378.84756640001433,None,380.8647236000106,None,space,0,380.8647236000106,None,381.5850262000022,None,0.7062447000062093,,,,,,,,,,,,,,,,,,,,,,,,,,,,,,,P053,FENCOG,1,Pre,2022_Jun_14_1109,N-Back (New Version 2021),2021.1.4,119.71130420848681,
Conditions/Version_1Pr/threeback(1)_v1.xlsx,New rule: Press 'space' when you see 3-back (i.e. the same letter as the one that appeared 3 letters ago.),,,,,,,0,3,3,3,,,,,,,,,,,,,,,,,,,,,,,,,,,,,,,,,,,,,,,,,,,,,,,,,,,,,,,,,,,,,,,,,,,,,,,,,,,,,,,,,,,,,,,,,P053,FENCOG,1,Pre,2022_Jun_14_1109,N-Back (New Version 2021),2021.1.4,119.71130420848681,
,,,,,,,,,,,,,,,,,,,,,,,,,,,,,,,,,,,,,,,,,,,,,,,,,,,,,,,,,,,,,,,,,,,,,,383.1097579000052,None,space,4.022075500004576,383.6047489000048,None,,,,,,,,,,,,,,,,,,,,,,,,,P053,FENCOG,1,Pre,2022_Jun_14_1109,N-Back (New Version 2021),2021.1.4,119.71130420848681,
,,,,,,,,,,,,,,,,,,,,,,,,,,,,,,,,,,,,,,,,,,,,,,,,,,,,,,,,,,,,,,,,,,,,,,,,,,,,387.6499114000035,None,space,2.833643599995412,388.14537420000124,None,,,,,,,,,,,,,,,,,,,P053,FENCOG,1,Pre,2022_Jun_14_1109,N-Back (New Version 2021),2021.1.4,119.71130420848681,
,,,,Conditions/Version_1/zeroback(1)_v1.xlsx,Rule: Press 'space' when you see the letter 'x' or 'X'.,b,None,,,,,,,,,0,0,0,0,0,0,0,0,,,,,,,,,,,,,,,,,,,,,,,,,,,,,,,,,,,,,,,,,,,,,,,,,,,,,,,,,,,391.09146310000506,None,394.0781757000077,None,space,0.9888210000062827,394.0781757000077,None,391.09146310000506,None,1.1526,396.25917460001074,None,None,1,396.25917460001074,None,,P053,FENCOG,1,Pre,2022_Jun_14_1109,N-Back (New Version 2021),2021.1.4,119.71130420848681,
,,,,Conditions/Version_1/zeroback(1)_v1.xlsx,Rule: Press 'space' when you see the letter 'x' or 'X'.,T,None,,,,,,,,,0,0,0,0,0,1,1,1,,,,,,,,,,,,,,,,,,,,,,,,,,,,,,,,,,,,,,,,,,,,,,,,,,,,,,,,,,,,,,,,,,,,,1.5556,399.8250762000098,None,None,1,399.8250762000098,None,,P053,FENCOG,1,Pre,2022_Jun_14_1109,N-Back (New Version 2021),2021.1.4,119.71130420848681,
,,,,Conditions/Version_1/zeroback(1)_v1.xlsx,Rule: Press 'space' when you see the letter 'x' or 'X'.,L,None,,,,,,,,,0,0,0,0,0,2,2,2,,,,,,,,,,,,,,,,,,,,,,,,,,,,,,,,,,,,,,,,,,,,,,,,,,,,,,,,,,,,,,,,,,,,,1.692,403.51668410000275,None,None,1,403.51668410000275,None,,P053,FENCOG,1,Pre,2022_Jun_14_1109,N-Back (New Version 2021),2021.1.4,119.71130420848681,
,,,,Conditions/Version_1/zeroback(1)_v1.xlsx,Rule: Press 'space' when you see the letter 'x' or 'X'.,x,space,,,,,,,,,0,0,0,0,0,3,3,3,,,,,,,,,,,,,,,,,,,,,,,,,,,,,,,,,,,,,,,,,,,,,,,,,,,,,,,,,,,,,,,,,,,,,1.7168,407.2389632000122,None,space,1,407.2389632000122,None,1.6760785000078613,P053,FENCOG,1,Pre,2022_Jun_14_1109,N-Back (New Version 2021),2021.1.4,119.71130420848681,
,,,,Conditions/Version_1/zeroback(1)_v1.xlsx,Rule: Press 'space' when you see the letter 'x' or 'X'.,o,None,,,,,,,,,0,0,0,0,0,4,4,4,,,,,,,,,,,,,,,,,,,,,,,,,,,,,,,,,,,,,,,,,,,,,,,,,,,,,,,,,,,,,,,,,,,,,1.5308,410.77212580000923,None,None,1,410.77212580000923,None,,P053,FENCOG,1,Pre,2022_Jun_14_1109,N-Back (New Version 2021),2021.1.4,119.71130420848681,
,,,,Conditions/Version_1/zeroback(1)_v1.xlsx,Rule: Press 'space' when you see the letter 'x' or 'X'.,P,None,,,,,,,,,0,0,0,0,0,5,5,5,,,,,,,,,,,,,,,,,,,,,,,,,,,,,,,,,,,,,,,,,,,,,,,,,,,,,,,,,,,,,,,,,,,,,1.2332,414.01213840000855,None,None,1,414.01213840000855,None,,P053,FENCOG,1,Pre,2022_Jun_14_1109,N-Back (New Version 2021),2021.1.4,119.71130420848681,
,,,,Conditions/Version_1/zeroback(1)_v1.xlsx,Rule: Press 'space' when you see the letter 'x' or 'X'.,X,space,,,,,,,,,0,0,0,0,0,6,6,6,,,,,,,,,,,,,,,,,,,,,,,,,,,,,,,,,,,,,,,,,,,,,,,,,,,,,,,,,,,,,,,,,,,,,1.1464,417.1749118000007,None,space,1,417.1749118000007,None,0.4045631999906618,P053,FENCOG,1,Pre,2022_Jun_14_1109,N-Back (New Version 2021),2021.1.4,119.71130420848681,
,,,,Conditions/Version_1/zeroback(1)_v1.xlsx,Rule: Press 'space' when you see the letter 'x' or 'X'.,n,None,,,,,,,,,0,0,0,0,0,7,7,7,,,,,,,,,,,,,,,,,,,,,,,,,,,,,,,,,,,,,,,,,,,,,,,,,,,,,,,,,,,,,,,,,,,,,1.2208,420.4073813000141,None,None,1,420.4073813000141,None,,P053,FENCOG,1,Pre,2022_Jun_14_1109,N-Back (New Version 2021),2021.1.4,119.71130420848681,
,,,,Conditions/Version_1/zeroback(1)_v1.xlsx,Rule: Press 'space' when you see the letter 'x' or 'X'.,M,None,,,,,,,,,0,0,0,0,0,8,8,8,,,,,,,,,,,,,,,,,,,,,,,,,,,,,,,,,,,,,,,,,,,,,,,,,,,,,,,,,,,,,,,,,,,,,1.1154,423.52808950000326,None,None,1,423.52808950000326,None,,P053,FENCOG,1,Pre,2022_Jun_14_1109,N-Back (New Version 2021),2021.1.4,119.71130420848681,
,,,,Conditions/Version_1/zeroback(1)_v1.xlsx,Rule: Press 'space' when you see the letter 'x' or 'X'.,a,None,,,,,,,,,0,0,0,0,0,9,9,9,,,,,,,,,,,,,,,,,,,,,,,,,,,,,,,,,,,,,,,,,,,,,,,,,,,,,,,,,,,,,,,,,,,,,1.4626,427.0024635000009,None,None,1,427.0024635000009,None,,P053,FENCOG,1,Pre,2022_Jun_14_1109,N-Back (New Version 2021),2021.1.4,119.71130420848681,
,,,,Conditions/Version_1/zeroback(1)_v1.xlsx,Rule: Press 'space' when you see the letter 'x' or 'X'.,,,,,,,,,,,0,0,0,0,,,,,,,,,,,,,,,,,,,,,,,,,,,,,,,,,,,,,,,,,,,,,,,,,,,,,,,,,,,,,,,,,,,,,,,,,,,,,,,,,P053,FENCOG,1,Pre,2022_Jun_14_1109,N-Back (New Version 2021),2021.1.4,119.71130420848681,
,,,,Conditions/Version_1/oneback(1)_v1.xlsx,New rule: Press 'space' when you see 1-back (i.e. the same letter as the one that appeared 1 letter ago.),b,None,,,,,,,,,0,1,1,1,0,0,0,0,,,,,,,,,,,,,,,,,,,,,,,,,,,,,,,,,,,,,,,,,,,,,,,,,,,,,,,,,,,429.0304581000091,None,432.01738060000935,None,space,0.3055268000025535,432.01738060000935,None,429.0304581000091,None,1.32,433.6731334000069,None,None,1,433.6731334000069,None,,P053,FENCOG,1,Pre,2022_Jun_14_1109,N-Back (New Version 2021),2021.1.4,119.71130420848681,
,,,,Conditions/Version_1/oneback(1)_v1.xlsx,New rule: Press 'space' when you see 1-back (i.e. the same letter as the one that appeared 1 letter ago.),p,None,,,,,,,,,0,1,1,1,0,1,1,1,,,,,,,,,,,,,,,,,,,,,,,,,,,,,,,,,,,,,,,,,,,,,,,,,,,,,,,,,,,,,,,,,,,,,1.072,436.74955860000046,None,None,1,436.74955860000046,None,,P053,FENCOG,1,Pre,2022_Jun_14_1109,N-Back (New Version 2021),2021.1.4,119.71130420848681,
,,,,Conditions/Version_1/oneback(1)_v1.xlsx,New rule: Press 'space' when you see 1-back (i.e. the same letter as the one that appeared 1 letter ago.),M,None,,,,,,,,,0,1,1,1,0,2,2,2,,,,,,,,,,,,,,,,,,,,,,,,,,,,,,,,,,,,,,,,,,,,,,,,,,,,,,,,,,,,,,,,,,,,,1.2208,439.9794072000077,None,None,1,439.9794072000077,None,,P053,FENCOG,1,Pre,2022_Jun_14_1109,N-Back (New Version 2021),2021.1.4,119.71130420848681,
,,,,Conditions/Version_1/oneback(1)_v1.xlsx,New rule: Press 'space' when you see 1-back (i.e. the same letter as the one that appeared 1 letter ago.),M,space,,,,,,,,,0,1,1,1,0,3,3,3,,,,,,,,,,,,,,,,,,,,,,,,,,,,,,,,,,,,,,,,,,,,,,,,,,,,,,,,,,,,,,,,,,,,,1.8656,443.8455604000046,None,space,1,443.8455604000046,None,0.6853953000099864,P053,FENCOG,1,Pre,2022_Jun_14_1109,N-Back (New Version 2021),2021.1.4,119.71130420848681,
,,,,Conditions/Version_1/oneback(1)_v1.xlsx,New rule: Press 'space' when you see 1-back (i.e. the same letter as the one that appeared 1 letter ago.),n,None,,,,,,,,,0,1,1,1,0,4,4,4,,,,,,,,,,,,,,,,,,,,,,,,,,,,,,,,,,,,,,,,,,,,,,,,,,,,,,,,,,,,,,,,,,,,,1.5804,447.4375058000005,None,None,1,447.4375058000005,None,,P053,FENCOG,1,Pre,2022_Jun_14_1109,N-Back (New Version 2021),2021.1.4,119.71130420848681,
,,,,Conditions/Version_1/oneback(1)_v1.xlsx,New rule: Press 'space' when you see 1-back (i.e. the same letter as the one that appeared 1 letter ago.),g,None,,,,,,,,,0,1,1,1,0,5,5,5,,,,,,,,,,,,,,,,,,,,,,,,,,,,,,,,,,,,,,,,,,,,,,,,,,,,,,,,,,,,,,,,,,,,,1.4192,450.868346400006,None,None,1,450.868346400006,None,,P053,FENCOG,1,Pre,2022_Jun_14_1109,N-Back (New Version 2021),2021.1.4,119.71130420848681,
,,,,Conditions/Version_1/oneback(1)_v1.xlsx,New rule: Press 'space' when you see 1-back (i.e. the same letter as the one that appeared 1 letter ago.),P,None,,,,,,,,,0,1,1,1,0,6,6,6,,,,,,,,,,,,,,,,,,,,,,,,,,,,,,,,,,,,,,,,,,,,,,,,,,,,,,,,,,,,,,,,,,,,,1.3076,454.1756763000012,None,None,1,454.1756763000012,None,,P053,FENCOG,1,Pre,2022_Jun_14_1109,N-Back (New Version 2021),2021.1.4,119.71130420848681,
,,,,Conditions/Version_1/oneback(1)_v1.xlsx,New rule: Press 'space' when you see 1-back (i.e. the same letter as the one that appeared 1 letter ago.),o,None,,,,,,,,,0,1,1,1,0,7,7,7,,,,,,,,,,,,,,,,,,,,,,,,,,,,,,,,,,,,,,,,,,,,,,,,,,,,,,,,,,,,,,,,,,,,,1.8904,458.0669634000078,None,None,1,458.0669634000078,None,,P053,FENCOG,1,Pre,2022_Jun_14_1109,N-Back (New Version 2021),2021.1.4,119.71130420848681,
,,,,Conditions/Version_1/oneback(1)_v1.xlsx,New rule: Press 'space' when you see 1-back (i.e. the same letter as the one that appeared 1 letter ago.),f,None,,,,,,,,,0,1,1,1,0,8,8,8,,,,,,,,,,,,,,,,,,,,,,,,,,,,,,,,,,,,,,,,,,,,,,,,,,,,,,,,,,,,,,,,,,,,,1.5866,461.6666022000136,None,None,1,461.6666022000136,None,,P053,FENCOG,1,Pre,2022_Jun_14_1109,N-Back (New Version 2021),2021.1.4,119.71130420848681,
,,,,Conditions/Version_1/oneback(1)_v1.xlsx,New rule: Press 'space' when you see 1-back (i.e. the same letter as the one that appeared 1 letter ago.),F,space,,,,,,,,,0,1,1,1,0,9,9,9,,,,,,,,,,,,,,,,,,,,,,,,,,,,,,,,,,,,,,,,,,,,,,,,,,,,,,,,,,,,,,,,,,,,,1.599,465.2736753000063,None,space,1,465.2736753000063,None,0.417327999995905,P053,FENCOG,1,Pre,2022_Jun_14_1109,N-Back (New Version 2021),2021.1.4,119.71130420848681,
,,,,Conditions/Version_1/oneback(1)_v1.xlsx,New rule: Press 'space' when you see 1-back (i.e. the same letter as the one that appeared 1 letter ago.),,,,,,,,,,,0,1,1,1,,,,,,,,,,,,,,,,,,,,,,,,,,,,,,,,,,,,,,,,,,,,,,,,,,,,,,,,,,,,,,,,,,,,,,,,,,,,,,,,,P053,FENCOG,1,Pre,2022_Jun_14_1109,N-Back (New Version 2021),2021.1.4,119.71130420848681,
,,,,Conditions/Version_1/twoback(1)_v1.xlsx,New rule: Press 'space' when you see 2-back (i.e. the same letter as the one that appeared 2 letters ago.),b,None,,,,,,,,,0,2,2,2,0,0,0,0,,,,,,,,,,,,,,,,,,,,,,,,,,,,,,,,,,,,,,,,,,,,,,,,,,,,,,,,,,,467.3034122000099,None,470.2888213000115,None,space,2.7941986999940127,470.2888213000115,None,467.3034122000099,None,1.4874,474.6024813000113,None,None,1,474.6024813000113,None,,P053,FENCOG,1,Pre,2022_Jun_14_1109,N-Back (New Version 2021),2021.1.4,119.71130420848681,
,,,,Conditions/Version_1/twoback(1)_v1.xlsx,New rule: Press 'space' when you see 2-back (i.e. the same letter as the one that appeared 2 letters ago.),h,None,,,,,,,,,0,2,2,2,0,1,1,1,,,,,,,,,,,,,,,,,,,,,,,,,,,,,,,,,,,,,,,,,,,,,,,,,,,,,,,,,,,,,,,,,,,,,1.0906,477.69514190001064,None,None,1,477.69514190001064,None,,P053,FENCOG,1,Pre,2022_Jun_14_1109,N-Back (New Version 2021),2021.1.4,119.71130420848681,
,,,,Conditions/Version_1/twoback(1)_v1.xlsx,New rule: Press 'space' when you see 2-back (i.e. the same letter as the one that appeared 2 letters ago.),j,None,,,,,,,,,0,2,2,2,0,2,2,2,,,,,,,,,,,,,,,,,,,,,,,,,,,,,,,,,,,,,,,,,,,,,,,,,,,,,,,,,,,,,,,,,,,,,1.661,481.3717667000019,None,None,1,481.3717667000019,None,,P053,FENCOG,1,Pre,2022_Jun_14_1109,N-Back (New Version 2021),2021.1.4,119.71130420848681,
,,,,Conditions/Version_1/twoback(1)_v1.xlsx,New rule: Press 'space' when you see 2-back (i.e. the same letter as the one that appeared 2 letters ago.),H,space,,,,,,,,,0,2,2,2,0,3,3,3,,,,,,,,,,,,,,,,,,,,,,,,,,,,,,,,,,,,,,,,,,,,,,,,,,,,,,,,,,,,,,,,,,,,,1.32,484.69234930000675,None,space,1,484.69234930000675,None,0.3508252000028733,P053,FENCOG,1,Pre,2022_Jun_14_1109,N-Back (New Version 2021),2021.1.4,119.71130420848681,
,,,,Conditions/Version_1/twoback(1)_v1.xlsx,New rule: Press 'space' when you see 2-back (i.e. the same letter as the one that appeared 2 letters ago.),p,None,,,,,,,,,0,2,2,2,0,4,4,4,,,,,,,,,,,,,,,,,,,,,,,,,,,,,,,,,,,,,,,,,,,,,,,,,,,,,,,,,,,,,,,,,,,,,1.692,488.3899974000087,None,None,1,488.3899974000087,None,,P053,FENCOG,1,Pre,2022_Jun_14_1109,N-Back (New Version 2021),2021.1.4,119.71130420848681,
,,,,Conditions/Version_1/twoback(1)_v1.xlsx,New rule: Press 'space' when you see 2-back (i.e. the same letter as the one that appeared 2 letters ago.),p,None,,,,,,,,,0,2,2,2,0,5,5,5,,,,,,,,,,,,,,,,,,,,,,,,,,,,,,,,,,,,,,,,,,,,,,,,,,,,,,,,,,,,,,,,,,,,,1.1526,491.5490335000068,None,space,0,491.5490335000068,None,0.5182932999887271,P053,FENCOG,1,Pre,2022_Jun_14_1109,N-Back (New Version 2021),2021.1.4,119.71130420848681,
,,,,Conditions/Version_1/twoback(1)_v1.xlsx,New rule: Press 'space' when you see 2-back (i.e. the same letter as the one that appeared 2 letters ago.),w,None,,,,,,,,,0,2,2,2,0,6,6,6,,,,,,,,,,,,,,,,,,,,,,,,,,,,,,,,,,,,,,,,,,,,,,,,,,,,,,,,,,,,,,,,,,,,,1.3634,494.92924740001035,None,None,1,494.92924740001035,None,,P053,FENCOG,1,Pre,2022_Jun_14_1109,N-Back (New Version 2021),2021.1.4,119.71130420848681,
,,,,Conditions/Version_1/twoback(1)_v1.xlsx,New rule: Press 'space' when you see 2-back (i.e. the same letter as the one that appeared 2 letters ago.),R,None,,,,,,,,,0,2,2,2,0,7,7,7,,,,,,,,,,,,,,,,,,,,,,,,,,,,,,,,,,,,,,,,,,,,,,,,,,,,,,,,,,,,,,,,,,,,,1.6858,498.62231960000645,None,None,1,498.62231960000645,None,,P053,FENCOG,1,Pre,2022_Jun_14_1109,N-Back (New Version 2021),2021.1.4,119.71130420848681,
,,,,Conditions/Version_1/twoback(1)_v1.xlsx,New rule: Press 'space' when you see 2-back (i.e. the same letter as the one that appeared 2 letters ago.),a,None,,,,,,,,,0,2,2,2,0,8,8,8,,,,,,,,,,,,,,,,,,,,,,,,,,,,,,,,,,,,,,,,,,,,,,,,,,,,,,,,,,,,,,,,,,,,,1.258,501.89271300000837,None,None,1,501.89271300000837,None,,P053,FENCOG,1,Pre,2022_Jun_14_1109,N-Back (New Version 2021),2021.1.4,119.71130420848681,
,,,,Conditions/Version_1/twoback(1)_v1.xlsx,New rule: Press 'space' when you see 2-back (i.e. the same letter as the one that appeared 2 letters ago.),r,space,,,,,,,,,0,2,2,2,0,9,9,9,,,,,,,,,,,,,,,,,,,,,,,,,,,,,,,,,,,,,,,,,,,,,,,,,,,,,,,,,,,,,,,,,,,,,1.165,505.0601435000135,None,space,1,505.0601435000135,None,0.5269456999958493,P053,FENCOG,1,Pre,2022_Jun_14_1109,N-Back (New Version 2021),2021.1.4,119.71130420848681,
,,,,Conditions/Version_1/twoback(1)_v1.xlsx,New rule: Press 'space' when you see 2-back (i.e. the same letter as the one that appeared 2 letters ago.),,,,,,,,,,,0,2,2,2,,,,,,,,,,,,,,,,,,,,,,,,,,,,,,,,,,,,,,,,,,,,,,,,,,,,,,,,,,,,,,,,,,,,,,,,,,,,,,,,,P053,FENCOG,1,Pre,2022_Jun_14_1109,N-Back (New Version 2021),2021.1.4,119.71130420848681,
,,,,Conditions/Version_1/threeback(1)_v1.xlsx,New rule: Press 'space' when you see 3-back (i.e. the same letter as the one that appeared 3 letters ago.),r,None,,,,,,,,,0,3,3,3,0,0,0,0,,,,,,,,,,,,,,,,,,,,,,,,,,,,,,,,,,,,,,,,,,,,,,,,,,,,,,,,,,,507.07997660001274,None,510.06940620001114,None,space,5.957887700002175,510.06940620001114,None,507.07997660001274,None,1.4626,517.5233917000005,None,None,1,517.5233917000005,None,,P053,FENCOG,1,Pre,2022_Jun_14_1109,N-Back (New Version 2021),2021.1.4,119.71130420848681,
,,,,Conditions/Version_1/threeback(1)_v1.xlsx,New rule: Press 'space' when you see 3-back (i.e. the same letter as the one that appeared 3 letters ago.),o,None,,,,,,,,,0,3,3,3,0,1,1,1,,,,,,,,,,,,,,,,,,,,,,,,,,,,,,,,,,,,,,,,,,,,,,,,,,,,,,,,,,,,,,,,,,,,,1.6238,521.1471331000066,None,None,1,521.1471331000066,None,,P053,FENCOG,1,Pre,2022_Jun_14_1109,N-Back (New Version 2021),2021.1.4,119.71130420848681,
,,,,Conditions/Version_1/threeback(1)_v1.xlsx,New rule: Press 'space' when you see 3-back (i.e. the same letter as the one that appeared 3 letters ago.),P,None,,,,,,,,,0,3,3,3,0,2,2,2,,,,,,,,,,,,,,,,,,,,,,,,,,,,,,,,,,,,,,,,,,,,,,,,,,,,,,,,,,,,,,,,,,,,,1.0844,524.2379863000097,None,None,1,524.2379863000097,None,,P053,FENCOG,1,Pre,2022_Jun_14_1109,N-Back (New Version 2021),2021.1.4,119.71130420848681,
,,,,Conditions/Version_1/threeback(1)_v1.xlsx,New rule: Press 'space' when you see 3-back (i.e. the same letter as the one that appeared 3 letters ago.),R,space,,,,,,,,,0,3,3,3,0,3,3,3,,,,,,,,,,,,,,,,,,,,,,,,,,,,,,,,,,,,,,,,,,,,,,,,,,,,,,,,,,,,,,,,,,,,,1.1402,527.3869691,None,space,1,527.3869691,None,0.6161541000037687,P053,FENCOG,1,Pre,2022_Jun_14_1109,N-Back (New Version 2021),2021.1.4,119.71130420848681,
,,,,Conditions/Version_1/threeback(1)_v1.xlsx,New rule: Press 'space' when you see 3-back (i.e. the same letter as the one that appeared 3 letters ago.),p,None,,,,,,,,,0,3,3,3,0,4,4,4,,,,,,,,,,,,,,,,,,,,,,,,,,,,,,,,,,,,,,,,,,,,,,,,,,,,,,,,,,,,,,,,,,,,,1.816,531.204590600013,None,None,1,531.204590600013,None,,P053,FENCOG,1,Pre,2022_Jun_14_1109,N-Back (New Version 2021),2021.1.4,119.71130420848681,
,,,,Conditions/Version_1/threeback(1)_v1.xlsx,New rule: Press 'space' when you see 3-back (i.e. the same letter as the one that appeared 3 letters ago.),E,None,,,,,,,,,0,3,3,3,0,5,5,5,,,,,,,,,,,,,,,,,,,,,,,,,,,,,,,,,,,,,,,,,,,,,,,,,,,,,,,,,,,,,,,,,,,,,1.4316,534.6431531000126,None,None,1,534.6431531000126,None,,P053,FENCOG,1,Pre,2022_Jun_14_1109,N-Back (New Version 2021),2021.1.4,119.71130420848681,
,,,,Conditions/Version_1/threeback(1)_v1.xlsx,New rule: Press 'space' when you see 3-back (i.e. the same letter as the one that appeared 3 letters ago.),e,None,,,,,,,,,0,3,3,3,0,6,6,6,,,,,,,,,,,,,,,,,,,,,,,,,,,,,,,,,,,,,,,,,,,,,,,,,,,,,,,,,,,,,,,,,,,,,1.3448,537.9921964000096,None,None,1,537.9921964000096,None,,P053,FENCOG,1,Pre,2022_Jun_14_1109,N-Back (New Version 2021),2021.1.4,119.71130420848681,
,,,,Conditions/Version_1/threeback(1)_v1.xlsx,New rule: Press 'space' when you see 3-back (i.e. the same letter as the one that appeared 3 letters ago.),m,None,,,,,,,,,0,3,3,3,0,7,7,7,,,,,,,,,,,,,,,,,,,,,,,,,,,,,,,,,,,,,,,,,,,,,,,,,,,,,,,,,,,,,,,,,,,,,1.8842,541.885196400006,None,None,1,541.885196400006,None,,P053,FENCOG,1,Pre,2022_Jun_14_1109,N-Back (New Version 2021),2021.1.4,119.71130420848681,
,,,,Conditions/Version_1/threeback(1)_v1.xlsx,New rule: Press 'space' when you see 3-back (i.e. the same letter as the one that appeared 3 letters ago.),n,None,,,,,,,,,0,3,3,3,0,8,8,8,,,,,,,,,,,,,,,,,,,,,,,,,,,,,,,,,,,,,,,,,,,,,,,,,,,,,,,,,,,,,,,,,,,,,1.8346,545.7327496000071,None,None,1,545.7327496000071,None,,P053,FENCOG,1,Pre,2022_Jun_14_1109,N-Back (New Version 2021),2021.1.4,119.71130420848681,
,,,,Conditions/Version_1/threeback(1)_v1.xlsx,New rule: Press 'space' when you see 3-back (i.e. the same letter as the one that appeared 3 letters ago.),e,space,,,,,,,,,0,3,3,3,0,9,9,9,,,,,,,,,,,,,,,,,,,,,,,,,,,,,,,,,,,,,,,,,,,,,,,,,,,,,,,,,,,,,,,,,,,,,1.4936,549.2390283000132,None,space,1,549.2390283000132,None,0.8520878999988781,P053,FENCOG,1,Pre,2022_Jun_14_1109,N-Back (New Version 2021),2021.1.4,119.71130420848681,
,,,,Conditions/Version_1/threeback(1)_v1.xlsx,New rule: Press 'space' when you see 3-back (i.e. the same letter as the one that appeared 3 letters ago.),,,,,,,,,,,0,3,3,3,,,,,,,,,,,,,,,,,,,,,,,,,,,,,,,,,,,,,,,,,,,,,,,,,,,,,,,,,,,,,,,,,,,,,,,,,,,,,,,,,P053,FENCOG,1,Pre,2022_Jun_14_1109,N-Back (New Version 2021),2021.1.4,119.71130420848681,
,,,,Conditions/Version_1/oneback(2)_v1.xlsx,New rule: Press 'space' when you see 1-back (i.e. the same letter as the one that appeared 1 letter ago.),q,None,,,,,,,,,0,4,4,4,0,0,0,0,,,,,,,,,,,,,,,,,,,,,,,,,,,,,,,,,,,,,,,,,,,,,,,,,,,,,,,,,,,551.2610436000105,None,554.2486369000108,None,space,0.7144312000018544,554.2486369000108,None,551.2610436000105,None,1.9152,556.9262002000032,None,None,1,556.9262002000032,None,,P053,FENCOG,1,Pre,2022_Jun_14_1109,N-Back (New Version 2021),2021.1.4,119.71130420848681,
,,,,Conditions/Version_1/oneback(2)_v1.xlsx,New rule: Press 'space' when you see 1-back (i.e. the same letter as the one that appeared 1 letter ago.),Q,space,,,,,,,,,0,4,4,4,0,1,1,1,,,,,,,,,,,,,,,,,,,,,,,,,,,,,,,,,,,,,,,,,,,,,,,,,,,,,,,,,,,,,,,,,,,,,1.847,560.779540500007,None,space,1,560.779540500007,None,0.5359107999975095,P053,FENCOG,1,Pre,2022_Jun_14_1109,N-Back (New Version 2021),2021.1.4,119.71130420848681,
,,,,Conditions/Version_1/oneback(2)_v1.xlsx,New rule: Press 'space' when you see 1-back (i.e. the same letter as the one that appeared 1 letter ago.),P,None,,,,,,,,,0,4,4,4,0,2,2,2,,,,,,,,,,,,,,,,,,,,,,,,,,,,,,,,,,,,,,,,,,,,,,,,,,,,,,,,,,,,,,,,,,,,,1.7292,564.5178164000099,None,None,1,564.5178164000099,None,,P053,FENCOG,1,Pre,2022_Jun_14_1109,N-Back (New Version 2021),2021.1.4,119.71130420848681,
,,,,Conditions/Version_1/oneback(2)_v1.xlsx,New rule: Press 'space' when you see 1-back (i.e. the same letter as the one that appeared 1 letter ago.),o,None,,,,,,,,,0,4,4,4,0,3,3,3,,,,,,,,,,,,,,,,,,,,,,,,,,,,,,,,,,,,,,,,,,,,,,,,,,,,,,,,,,,,,,,,,,,,,1.041,567.558502800006,None,None,1,567.558502800006,None,,P053,FENCOG,1,Pre,2022_Jun_14_1109,N-Back (New Version 2021),2021.1.4,119.71130420848681,
,,,,Conditions/Version_1/oneback(2)_v1.xlsx,New rule: Press 'space' when you see 1-back (i.e. the same letter as the one that appeared 1 letter ago.),m,None,,,,,,,,,0,4,4,4,0,4,4,4,,,,,,,,,,,,,,,,,,,,,,,,,,,,,,,,,,,,,,,,,,,,,,,,,,,,,,,,,,,,,,,,,,,,,1.134,570.6934351000091,None,None,1,570.6934351000091,None,,P053,FENCOG,1,Pre,2022_Jun_14_1109,N-Back (New Version 2021),2021.1.4,119.71130420848681,
,,,,Conditions/Version_1/oneback(2)_v1.xlsx,New rule: Press 'space' when you see 1-back (i.e. the same letter as the one that appeared 1 letter ago.),Z,None,,,,,,,,,0,4,4,4,0,5,5,5,,,,,,,,,,,,,,,,,,,,,,,,,,,,,,,,,,,,,,,,,,,,,,,,,,,,,,,,,,,,,,,,,,,,,1.444,574.1522977000132,None,None,1,574.1522977000132,None,,P053,FENCOG,1,Pre,2022_Jun_14_1109,N-Back (New Version 2021),2021.1.4,119.71130420848681,
,,,,Conditions/Version_1/oneback(2)_v1.xlsx,New rule: Press 'space' when you see 1-back (i.e. the same letter as the one that appeared 1 letter ago.),c,None,,,,,,,,,0,4,4,4,0,6,6,6,,,,,,,,,,,,,,,,,,,,,,,,,,,,,,,,,,,,,,,,,,,,,,,,,,,,,,,,,,,,,,,,,,,,,1.1836,577.3445006000111,None,None,1,577.3445006000111,None,,P053,FENCOG,1,Pre,2022_Jun_14_1109,N-Back (New Version 2021),2021.1.4,119.71130420848681,
,,,,Conditions/Version_1/oneback(2)_v1.xlsx,New rule: Press 'space' when you see 1-back (i.e. the same letter as the one that appeared 1 letter ago.),c,space,,,,,,,,,0,4,4,4,0,7,7,7,,,,,,,,,,,,,,,,,,,,,,,,,,,,,,,,,,,,,,,,,,,,,,,,,,,,,,,,,,,,,,,,,,,,,1.9028,581.2544054000027,None,space,1,581.2544054000027,None,0.38862410000001546,P053,FENCOG,1,Pre,2022_Jun_14_1109,N-Back (New Version 2021),2021.1.4,119.71130420848681,
,,,,Conditions/Version_1/oneback(2)_v1.xlsx,New rule: Press 'space' when you see 1-back (i.e. the same letter as the one that appeared 1 letter ago.),P,None,,,,,,,,,0,4,4,4,0,8,8,8,,,,,,,,,,,,,,,,,,,,,,,,,,,,,,,,,,,,,,,,,,,,,,,,,,,,,,,,,,,,,,,,,,,,,1.971,585.2283492000133,None,None,1,585.2283492000133,None,,P053,FENCOG,1,Pre,2022_Jun_14_1109,N-Back (New Version 2021),2021.1.4,119.71130420848681,
,,,,Conditions/Version_1/oneback(2)_v1.xlsx,New rule: Press 'space' when you see 1-back (i.e. the same letter as the one that appeared 1 letter ago.),p,space,,,,,,,,,0,4,4,4,0,9,9,9,,,,,,,,,,,,,,,,,,,,,,,,,,,,,,,,,,,,,,,,,,,,,,,,,,,,,,,,,,,,,,,,,,,,,1.4936,588.7272342000069,None,space,1,588.7272342000069,None,0.40386799999396317,P053,FENCOG,1,Pre,2022_Jun_14_1109,N-Back (New Version 2021),2021.1.4,119.71130420848681,
,,,,Conditions/Version_1/oneback(2)_v1.xlsx,New rule: Press 'space' when you see 1-back (i.e. the same letter as the one that appeared 1 letter ago.),,,,,,,,,,,0,4,4,4,,,,,,,,,,,,,,,,,,,,,,,,,,,,,,,,,,,,,,,,,,,,,,,,,,,,,,,,,,,,,,,,,,,,,,,,,,,,,,,,,P053,FENCOG,1,Pre,2022_Jun_14_1109,N-Back (New Version 2021),2021.1.4,119.71130420848681,
,,,,Conditions/Version_1/zeroback(2)_v1.xlsx,New rule: Press 'space' when you see the letter 'x' or 'X'.,p,None,,,,,,,,,0,5,5,5,0,0,0,0,,,,,,,,,,,,,,,,,,,,,,,,,,,,,,,,,,,,,,,,,,,,,,,,,,,,,,,,,,,590.7467325000034,None,593.7356542000052,None,space,0.35513570001057815,593.7356542000052,None,590.7467325000034,None,1.0534,595.175624200012,None,None,1,595.175624200012,None,,P053,FENCOG,1,Pre,2022_Jun_14_1109,N-Back (New Version 2021),2021.1.4,119.71130420848681,
,,,,Conditions/Version_1/zeroback(2)_v1.xlsx,New rule: Press 'space' when you see the letter 'x' or 'X'.,L,None,,,,,,,,,0,5,5,5,0,1,1,1,,,,,,,,,,,,,,,,,,,,,,,,,,,,,,,,,,,,,,,,,,,,,,,,,,,,,,,,,,,,,,,,,,,,,1.2146,598.3910276000097,None,None,1,598.3910276000097,None,,P053,FENCOG,1,Pre,2022_Jun_14_1109,N-Back (New Version 2021),2021.1.4,119.71130420848681,
,,,,Conditions/Version_1/zeroback(2)_v1.xlsx,New rule: Press 'space' when you see the letter 'x' or 'X'.,G,None,,,,,,,,,0,5,5,5,0,2,2,2,,,,,,,,,,,,,,,,,,,,,,,,,,,,,,,,,,,,,,,,,,,,,,,,,,,,,,,,,,,,,,,,,,,,,1.568,601.964911300005,None,None,1,601.964911300005,None,,P053,FENCOG,1,Pre,2022_Jun_14_1109,N-Back (New Version 2021),2021.1.4,119.71130420848681,
,,,,Conditions/Version_1/zeroback(2)_v1.xlsx,New rule: Press 'space' when you see the letter 'x' or 'X'.,y,None,,,,,,,,,0,5,5,5,0,3,3,3,,,,,,,,,,,,,,,,,,,,,,,,,,,,,,,,,,,,,,,,,,,,,,,,,,,,,,,,,,,,,,,,,,,,,1.8966,605.8722320000088,None,None,1,605.8722320000088,None,,P053,FENCOG,1,Pre,2022_Jun_14_1109,N-Back (New Version 2021),2021.1.4,119.71130420848681,
,,,,Conditions/Version_1/zeroback(2)_v1.xlsx,New rule: Press 'space' when you see the letter 'x' or 'X'.,Y,None,,,,,,,,,0,5,5,5,0,4,4,4,,,,,,,,,,,,,,,,,,,,,,,,,,,,,,,,,,,,,,,,,,,,,,,,,,,,,,,,,,,,,,,,,,,,,1.103,608.9796770000103,None,None,1,608.9796770000103,None,,P053,FENCOG,1,Pre,2022_Jun_14_1109,N-Back (New Version 2021),2021.1.4,119.71130420848681,
,,,,Conditions/Version_1/zeroback(2)_v1.xlsx,New rule: Press 'space' when you see the letter 'x' or 'X'.,W,None,,,,,,,,,0,5,5,5,0,5,5,5,,,,,,,,,,,,,,,,,,,,,,,,,,,,,,,,,,,,,,,,,,,,,,,,,,,,,,,,,,,,,,,,,,,,,1.785,612.7713847000123,None,None,1,612.7713847000123,None,,P053,FENCOG,1,Pre,2022_Jun_14_1109,N-Back (New Version 2021),2021.1.4,119.71130420848681,
,,,,Conditions/Version_1/zeroback(2)_v1.xlsx,New rule: Press 'space' when you see the letter 'x' or 'X'.,x,space,,,,,,,,,0,5,5,5,0,6,6,6,,,,,,,,,,,,,,,,,,,,,,,,,,,,,,,,,,,,,,,,,,,,,,,,,,,,,,,,,,,,,,,,,,,,,1.7168,616.5023585000017,None,space,1,616.5023585000017,None,0.572864900008426,P053,FENCOG,1,Pre,2022_Jun_14_1109,N-Back (New Version 2021),2021.1.4,119.71130420848681,
,,,,Conditions/Version_1/zeroback(2)_v1.xlsx,New rule: Press 'space' when you see the letter 'x' or 'X'.,X,space,,,,,,,,,0,5,5,5,0,7,7,7,,,,,,,,,,,,,,,,,,,,,,,,,,,,,,,,,,,,,,,,,,,,,,,,,,,,,,,,,,,,,,,,,,,,,1.5432,620.0562050000008,None,space,1,620.0562050000008,None,0.443399000010686,P053,FENCOG,1,Pre,2022_Jun_14_1109,N-Back (New Version 2021),2021.1.4,119.71130420848681,
,,,,Conditions/Version_1/zeroback(2)_v1.xlsx,New rule: Press 'space' when you see the letter 'x' or 'X'.,p,None,,,,,,,,,0,5,5,5,0,8,8,8,,,,,,,,,,,,,,,,,,,,,,,,,,,,,,,,,,,,,,,,,,,,,,,,,,,,,,,,,,,,,,,,,,,,,1.32,623.3857761000108,None,None,1,623.3857761000108,None,,P053,FENCOG,1,Pre,2022_Jun_14_1109,N-Back (New Version 2021),2021.1.4,119.71130420848681,
,,,,Conditions/Version_1/zeroback(2)_v1.xlsx,New rule: Press 'space' when you see the letter 'x' or 'X'.,h,None,,,,,,,,,0,5,5,5,0,9,9,9,,,,,,,,,,,,,,,,,,,,,,,,,,,,,,,,,,,,,,,,,,,,,,,,,,,,,,,,,,,,,,,,,,,,,1.754,627.1492502000037,None,None,1,627.1492502000037,None,,P053,FENCOG,1,Pre,2022_Jun_14_1109,N-Back (New Version 2021),2021.1.4,119.71130420848681,
,,,,Conditions/Version_1/zeroback(2)_v1.xlsx,New rule: Press 'space' when you see the letter 'x' or 'X'.,,,,,,,,,,,0,5,5,5,,,,,,,,,,,,,,,,,,,,,,,,,,,,,,,,,,,,,,,,,,,,,,,,,,,,,,,,,,,,,,,,,,,,,,,,,,,,,,,,,P053,FENCOG,1,Pre,2022_Jun_14_1109,N-Back (New Version 2021),2021.1.4,119.71130420848681,
,,,,Conditions/Version_1/threeback(2)_v1.xlsx,New rule: Press 'space' when you see 3-back (i.e. the same letter as the one that appeared 3 letters ago.),q,None,,,,,,,,,0,6,6,6,0,0,0,0,,,,,,,,,,,,,,,,,,,,,,,,,,,,,,,,,,,,,,,,,,,,,,,,,,,,,,,,,,,629.1730024000135,None,632.1709498000127,None,space,5.455986999993911,632.1709498000127,None,629.1730024000135,None,1.8346,639.4986238000129,None,None,1,639.4986238000129,None,,P053,FENCOG,1,Pre,2022_Jun_14_1109,N-Back (New Version 2021),2021.1.4,119.71130420848681,
,,,,Conditions/Version_1/threeback(2)_v1.xlsx,New rule: Press 'space' when you see 3-back (i.e. the same letter as the one that appeared 3 letters ago.),Y,None,,,,,,,,,0,6,6,6,0,1,1,1,,,,,,,,,,,,,,,,,,,,,,,,,,,,,,,,,,,,,,,,,,,,,,,,,,,,,,,,,,,,,,,,,,,,,1.7106,643.2197899000021,None,None,1,643.2197899000021,None,,P053,FENCOG,1,Pre,2022_Jun_14_1109,N-Back (New Version 2021),2021.1.4,119.71130420848681,
,,,,Conditions/Version_1/threeback(2)_v1.xlsx,New rule: Press 'space' when you see 3-back (i.e. the same letter as the one that appeared 3 letters ago.),p,None,,,,,,,,,0,6,6,6,0,2,2,2,,,,,,,,,,,,,,,,,,,,,,,,,,,,,,,,,,,,,,,,,,,,,,,,,,,,,,,,,,,,,,,,,,,,,1.6052,646.826990600006,None,None,1,646.826990600006,None,,P053,FENCOG,1,Pre,2022_Jun_14_1109,N-Back (New Version 2021),2021.1.4,119.71130420848681,
,,,,Conditions/Version_1/threeback(2)_v1.xlsx,New rule: Press 'space' when you see 3-back (i.e. the same letter as the one that appeared 3 letters ago.),p,None,,,,,,,,,0,6,6,6,0,3,3,3,,,,,,,,,,,,,,,,,,,,,,,,,,,,,,,,,,,,,,,,,,,,,,,,,,,,,,,,,,,,,,,,,,,,,1.2022,650.0350910000125,None,None,1,650.0350910000125,None,,P053,FENCOG,1,Pre,2022_Jun_14_1109,N-Back (New Version 2021),2021.1.4,119.71130420848681,
,,,,Conditions/Version_1/threeback(2)_v1.xlsx,New rule: Press 'space' when you see 3-back (i.e. the same letter as the one that appeared 3 letters ago.),y,space,,,,,,,,,0,6,6,6,0,4,4,4,,,,,,,,,,,,,,,,,,,,,,,,,,,,,,,,,,,,,,,,,,,,,,,,,,,,,,,,,,,,,,,,,,,,,1.8284,653.8796786000021,None,None,0,653.8796786000021,None,,P053,FENCOG,1,Pre,2022_Jun_14_1109,N-Back (New Version 2021),2021.1.4,119.71130420848681,
,,,,Conditions/Version_1/threeback(2)_v1.xlsx,New rule: Press 'space' when you see 3-back (i.e. the same letter as the one that appeared 3 letters ago.),u,None,,,,,,,,,0,6,6,6,0,5,5,5,,,,,,,,,,,,,,,,,,,,,,,,,,,,,,,,,,,,,,,,,,,,,,,,,,,,,,,,,,,,,,,,,,,,,1.0596,656.9488599000033,None,None,1,656.9488599000033,None,,P053,FENCOG,1,Pre,2022_Jun_14_1109,N-Back (New Version 2021),2021.1.4,119.71130420848681,
,,,,Conditions/Version_1/threeback(2)_v1.xlsx,New rule: Press 'space' when you see 3-back (i.e. the same letter as the one that appeared 3 letters ago.),P,space,,,,,,,,,0,6,6,6,0,6,6,6,,,,,,,,,,,,,,,,,,,,,,,,,,,,,,,,,,,,,,,,,,,,,,,,,,,,,,,,,,,,,,,,,,,,,1.4254,660.3823754000041,None,space,1,660.3823754000041,None,0.580625799993868,P053,FENCOG,1,Pre,2022_Jun_14_1109,N-Back (New Version 2021),2021.1.4,119.71130420848681,
,,,,Conditions/Version_1/threeback(2)_v1.xlsx,New rule: Press 'space' when you see 3-back (i.e. the same letter as the one that appeared 3 letters ago.),a,None,,,,,,,,,0,6,6,6,0,7,7,7,,,,,,,,,,,,,,,,,,,,,,,,,,,,,,,,,,,,,,,,,,,,,,,,,,,,,,,,,,,,,,,,,,,,,1.8718,664.2639065000112,None,None,1,664.2639065000112,None,,P053,FENCOG,1,Pre,2022_Jun_14_1109,N-Back (New Version 2021),2021.1.4,119.71130420848681,
,,,,Conditions/Version_1/threeback(2)_v1.xlsx,New rule: Press 'space' when you see 3-back (i.e. the same letter as the one that appeared 3 letters ago.),U,space,,,,,,,,,0,6,6,6,0,8,8,8,,,,,,,,,,,,,,,,,,,,,,,,,,,,,,,,,,,,,,,,,,,,,,,,,,,,,,,,,,,,,,,,,,,,,1.8036,668.075978000008,None,space,1,668.075978000008,None,0.6390187999932095,P053,FENCOG,1,Pre,2022_Jun_14_1109,N-Back (New Version 2021),2021.1.4,119.71130420848681,
,,,,Conditions/Version_1/threeback(2)_v1.xlsx,New rule: Press 'space' when you see 3-back (i.e. the same letter as the one that appeared 3 letters ago.),q,None,,,,,,,,,0,6,6,6,0,9,9,9,,,,,,,,,,,,,,,,,,,,,,,,,,,,,,,,,,,,,,,,,,,,,,,,,,,,,,,,,,,,,,,,,,,,,1.072,671.1543216000136,None,None,1,671.1543216000136,None,,P053,FENCOG,1,Pre,2022_Jun_14_1109,N-Back (New Version 2021),2021.1.4,119.71130420848681,
,,,,Conditions/Version_1/threeback(2)_v1.xlsx,New rule: Press 'space' when you see 3-back (i.e. the same letter as the one that appeared 3 letters ago.),,,,,,,,,,,0,6,6,6,,,,,,,,,,,,,,,,,,,,,,,,,,,,,,,,,,,,,,,,,,,,,,,,,,,,,,,,,,,,,,,,,,,,,,,,,,,,,,,,,P053,FENCOG,1,Pre,2022_Jun_14_1109,N-Back (New Version 2021),2021.1.4,119.71130420848681,
,,,,Conditions/Version_1/twoback(2)_v1.xlsx,New rule: Press 'space' when you see 2-back (i.e. the same letter as the one that appeared 2 letters ago.),q,None,,,,,,,,,0,7,7,7,0,0,0,0,,,,,,,,,,,,,,,,,,,,,,,,,,,,,,,,,,,,,,,,,,,,,,,,,,,,,,,,,,,673.1830217000097,None,676.18297970001,None,space,0.5160083999944618,676.18297970001,None,673.1830217000097,None,1.9648,678.7009189000091,None,None,1,678.7009189000091,None,,P053,FENCOG,1,Pre,2022_Jun_14_1109,N-Back (New Version 2021),2021.1.4,119.71130420848681,
,,,,Conditions/Version_1/twoback(2)_v1.xlsx,New rule: Press 'space' when you see 2-back (i.e. the same letter as the one that appeared 2 letters ago.),r,None,,,,,,,,,0,7,7,7,0,1,1,1,,,,,,,,,,,,,,,,,,,,,,,,,,,,,,,,,,,,,,,,,,,,,,,,,,,,,,,,,,,,,,,,,,,,,1.816,682.518896300011,None,None,1,682.518896300011,None,,P053,FENCOG,1,Pre,2022_Jun_14_1109,N-Back (New Version 2021),2021.1.4,119.71130420848681,
,,,,Conditions/Version_1/twoback(2)_v1.xlsx,New rule: Press 'space' when you see 2-back (i.e. the same letter as the one that appeared 2 letters ago.),q,space,,,,,,,,,0,7,7,7,0,2,2,2,,,,,,,,,,,,,,,,,,,,,,,,,,,,,,,,,,,,,,,,,,,,,,,,,,,,,,,,,,,,,,,,,,,,,1.909,686.4434387000074,None,space,1,686.4434387000074,None,0.3355343000002904,P053,FENCOG,1,Pre,2022_Jun_14_1109,N-Back (New Version 2021),2021.1.4,119.71130420848681,
,,,,Conditions/Version_1/twoback(2)_v1.xlsx,New rule: Press 'space' when you see 2-back (i.e. the same letter as the one that appeared 2 letters ago.),P,None,,,,,,,,,0,7,7,7,0,3,3,3,,,,,,,,,,,,,,,,,,,,,,,,,,,,,,,,,,,,,,,,,,,,,,,,,,,,,,,,,,,,,,,,,,,,,1.4378,689.8893748000119,None,None,1,689.8893748000119,None,,P053,FENCOG,1,Pre,2022_Jun_14_1109,N-Back (New Version 2021),2021.1.4,119.71130420848681,
,,,,Conditions/Version_1/twoback(2)_v1.xlsx,New rule: Press 'space' when you see 2-back (i.e. the same letter as the one that appeared 2 letters ago.),p,None,,,,,,,,,0,7,7,7,0,4,4,4,,,,,,,,,,,,,,,,,,,,,,,,,,,,,,,,,,,,,,,,,,,,,,,,,,,,,,,,,,,,,,,,,,,,,1.1464,693.0381580000103,None,None,1,693.0381580000103,None,,P053,FENCOG,1,Pre,2022_Jun_14_1109,N-Back (New Version 2021),2021.1.4,119.71130420848681,
,,,,Conditions/Version_1/twoback(2)_v1.xlsx,New rule: Press 'space' when you see 2-back (i.e. the same letter as the one that appeared 2 letters ago.),H,None,,,,,,,,,0,7,7,7,0,5,5,5,,,,,,,,,,,,,,,,,,,,,,,,,,,,,,,,,,,,,,,,,,,,,,,,,,,,,,,,,,,,,,,,,,,,,1.0348,696.0795316000003,None,None,1,696.0795316000003,None,,P053,FENCOG,1,Pre,2022_Jun_14_1109,N-Back (New Version 2021),2021.1.4,119.71130420848681,
,,,,Conditions/Version_1/twoback(2)_v1.xlsx,New rule: Press 'space' when you see 2-back (i.e. the same letter as the one that appeared 2 letters ago.),g,None,,,,,,,,,0,7,7,7,0,6,6,6,,,,,,,,,,,,,,,,,,,,,,,,,,,,,,,,,,,,,,,,,,,,,,,,,,,,,,,,,,,,,,,,,,,,,1.9524,700.0362817000132,None,None,1,700.0362817000132,None,,P053,FENCOG,1,Pre,2022_Jun_14_1109,N-Back (New Version 2021),2021.1.4,119.71130420848681,
,,,,Conditions/Version_1/twoback(2)_v1.xlsx,New rule: Press 'space' when you see 2-back (i.e. the same letter as the one that appeared 2 letters ago.),j,None,,,,,,,,,0,7,7,7,0,7,7,7,,,,,,,,,,,,,,,,,,,,,,,,,,,,,,,,,,,,,,,,,,,,,,,,,,,,,,,,,,,,,,,,,,,,,1.1898,703.233893200013,None,None,1,703.233893200013,None,,P053,FENCOG,1,Pre,2022_Jun_14_1109,N-Back (New Version 2021),2021.1.4,119.71130420848681,
,,,,Conditions/Version_1/twoback(2)_v1.xlsx,New rule: Press 'space' when you see 2-back (i.e. the same letter as the one that appeared 2 letters ago.),g,space,,,,,,,,,0,7,7,7,0,8,8,8,,,,,,,,,,,,,,,,,,,,,,,,,,,,,,,,,,,,,,,,,,,,,,,,,,,,,,,,,,,,,,,,,,,,,1.6982,706.9341698000062,None,space,1,706.9341698000062,None,0.3487602999957744,P053,FENCOG,1,Pre,2022_Jun_14_1109,N-Back (New Version 2021),2021.1.4,119.71130420848681,
,,,,Conditions/Version_1/twoback(2)_v1.xlsx,New rule: Press 'space' when you see 2-back (i.e. the same letter as the one that appeared 2 letters ago.),G,None,,,,,,,,,0,7,7,7,0,9,9,9,,,,,,,,,,,,,,,,,,,,,,,,,,,,,,,,,,,,,,,,,,,,,,,,,,,,,,,,,,,,,,,,,,,,,1.7788,710.7191186000127,None,None,1,710.7191186000127,None,,P053,FENCOG,1,Pre,2022_Jun_14_1109,N-Back (New Version 2021),2021.1.4,119.71130420848681,
,,,,Conditions/Version_1/twoback(2)_v1.xlsx,New rule: Press 'space' when you see 2-back (i.e. the same letter as the one that appeared 2 letters ago.),,,,,,,,,,,0,7,7,7,,,,,,,,,,,,,,,,,,,,,,,,,,,,,,,,,,,,,,,,,,,,,,,,,,,,,,,,,,,,,,,,,,,,,,,,,,,,,,,,,P053,FENCOG,1,Pre,2022_Jun_14_1109,N-Back (New Version 2021),2021.1.4,119.71130420848681,
,,,,Conditions/Version_1/threeback(3)_v1.xlsx,New rule: Press 'space' when you see 3-back (i.e. the same letter as the one that appeared 3 letters ago.),w,None,,,,,,,,,0,8,8,8,0,0,0,0,,,,,,,,,,,,,,,,,,,,,,,,,,,,,,,,,,,,,,,,,,,,,,,,,,,,,,,,,,,712.7635737000091,None,715.7511484000133,None,space,0.6277717999910237,715.7511484000133,None,712.7635737000091,None,1.7788,718.1975632000103,None,None,1,718.1975632000103,None,,P053,FENCOG,1,Pre,2022_Jun_14_1109,N-Back (New Version 2021),2021.1.4,119.71130420848681,
,,,,Conditions/Version_1/threeback(3)_v1.xlsx,New rule: Press 'space' when you see 3-back (i.e. the same letter as the one that appeared 3 letters ago.),p,None,,,,,,,,,0,8,8,8,0,1,1,1,,,,,,,,,,,,,,,,,,,,,,,,,,,,,,,,,,,,,,,,,,,,,,,,,,,,,,,,,,,,,,,,,,,,,1.5432,721.7460804000002,None,None,1,721.7460804000002,None,,P053,FENCOG,1,Pre,2022_Jun_14_1109,N-Back (New Version 2021),2021.1.4,119.71130420848681,
,,,,Conditions/Version_1/threeback(3)_v1.xlsx,New rule: Press 'space' when you see 3-back (i.e. the same letter as the one that appeared 3 letters ago.),P,None,,,,,,,,,0,8,8,8,0,2,2,2,,,,,,,,,,,,,,,,,,,,,,,,,,,,,,,,,,,,,,,,,,,,,,,,,,,,,,,,,,,,,,,,,,,,,1.6672,725.4129226000077,None,None,1,725.4129226000077,None,,P053,FENCOG,1,Pre,2022_Jun_14_1109,N-Back (New Version 2021),2021.1.4,119.71130420848681,
,,,,Conditions/Version_1/threeback(3)_v1.xlsx,New rule: Press 'space' when you see 3-back (i.e. the same letter as the one that appeared 3 letters ago.),i,None,,,,,,,,,0,8,8,8,0,3,3,3,,,,,,,,,,,,,,,,,,,,,,,,,,,,,,,,,,,,,,,,,,,,,,,,,,,,,,,,,,,,,,,,,,,,,1.2208,728.6496415000001,None,None,1,728.6496415000001,None,,P053,FENCOG,1,Pre,2022_Jun_14_1109,N-Back (New Version 2021),2021.1.4,119.71130420848681,
,,,,Conditions/Version_1/threeback(3)_v1.xlsx,New rule: Press 'space' when you see 3-back (i.e. the same letter as the one that appeared 3 letters ago.),f,None,,,,,,,,,0,8,8,8,0,4,4,4,,,,,,,,,,,,,,,,,,,,,,,,,,,,,,,,,,,,,,,,,,,,,,,,,,,,,,,,,,,,,,,,,,,,,1.6424,732.3044227000064,None,None,1,732.3044227000064,None,,P053,FENCOG,1,Pre,2022_Jun_14_1109,N-Back (New Version 2021),2021.1.4,119.71130420848681,
,,,,Conditions/Version_1/threeback(3)_v1.xlsx,New rule: Press 'space' when you see 3-back (i.e. the same letter as the one that appeared 3 letters ago.),o,None,,,,,,,,,0,8,8,8,0,5,5,5,,,,,,,,,,,,,,,,,,,,,,,,,,,,,,,,,,,,,,,,,,,,,,,,,,,,,,,,,,,,,,,,,,,,,1.3324,735.6422940000048,None,None,1,735.6422940000048,None,,P053,FENCOG,1,Pre,2022_Jun_14_1109,N-Back (New Version 2021),2021.1.4,119.71130420848681,
,,,,Conditions/Version_1/threeback(3)_v1.xlsx,New rule: Press 'space' when you see 3-back (i.e. the same letter as the one that appeared 3 letters ago.),w,None,,,,,,,,,0,8,8,8,0,6,6,6,,,,,,,,,,,,,,,,,,,,,,,,,,,,,,,,,,,,,,,,,,,,,,,,,,,,,,,,,,,,,,,,,,,,,1.1836,738.8258091000025,None,None,1,738.8258091000025,None,,P053,FENCOG,1,Pre,2022_Jun_14_1109,N-Back (New Version 2021),2021.1.4,119.71130420848681,
,,,,Conditions/Version_1/threeback(3)_v1.xlsx,New rule: Press 'space' when you see 3-back (i.e. the same letter as the one that appeared 3 letters ago.),F,space,,,,,,,,,0,8,8,8,0,7,7,7,,,,,,,,,,,,,,,,,,,,,,,,,,,,,,,,,,,,,,,,,,,,,,,,,,,,,,,,,,,,,,,,,,,,,1.6982,742.531959400003,None,space,1,742.531959400003,None,0.7111891000095056,P053,FENCOG,1,Pre,2022_Jun_14_1109,N-Back (New Version 2021),2021.1.4,119.71130420848681,
,,,,Conditions/Version_1/threeback(3)_v1.xlsx,New rule: Press 'space' when you see 3-back (i.e. the same letter as the one that appeared 3 letters ago.),p,None,,,,,,,,,0,8,8,8,0,8,8,8,,,,,,,,,,,,,,,,,,,,,,,,,,,,,,,,,,,,,,,,,,,,,,,,,,,,,,,,,,,,,,,,,,,,,1.2394,745.7777019000059,None,None,1,745.7777019000059,None,,P053,FENCOG,1,Pre,2022_Jun_14_1109,N-Back (New Version 2021),2021.1.4,119.71130420848681,
,,,,Conditions/Version_1/threeback(3)_v1.xlsx,New rule: Press 'space' when you see 3-back (i.e. the same letter as the one that appeared 3 letters ago.),W,space,,,,,,,,,0,8,8,8,0,9,9,9,,,,,,,,,,,,,,,,,,,,,,,,,,,,,,,,,,,,,,,,,,,,,,,,,,,,,,,,,,,,,,,,,,,,,1.1278,748.9141650000092,None,space,1,748.9141650000092,None,1.9525452999951085,P053,FENCOG,1,Pre,2022_Jun_14_1109,N-Back (New Version 2021),2021.1.4,119.71130420848681,
,,,,Conditions/Version_1/threeback(3)_v1.xlsx,New rule: Press 'space' when you see 3-back (i.e. the same letter as the one that appeared 3 letters ago.),,,,,,,,,,,0,8,8,8,,,,,,,,,,,,,,,,,,,,,,,,,,,,,,,,,,,,,,,,,,,,,,,,,,,,,,,,,,,,,,,,,,,,,,,,,,,,,,,,,P053,FENCOG,1,Pre,2022_Jun_14_1109,N-Back (New Version 2021),2021.1.4,119.71130420848681,
,,,,Conditions/Version_1/zeroback(3)_v1.xlsx,New rule: Press 'space' when you see the letter 'x' or 'X'.,X,space,,,,,,,,,0,9,9,9,0,0,0,0,,,,,,,,,,,,,,,,,,,,,,,,,,,,,,,,,,,,,,,,,,,,,,,,,,,,,,,,,,,750.9391460000043,None,753.9301054000098,None,space,2.2650741999968886,753.9301054000098,None,750.9391460000043,None,1.0782,757.3083750000078,None,space,1,757.3083750000078,None,0.8387011000013445,P053,FENCOG,1,Pre,2022_Jun_14_1109,N-Back (New Version 2021),2021.1.4,119.71130420848681,
,,,,Conditions/Version_1/zeroback(3)_v1.xlsx,New rule: Press 'space' when you see the letter 'x' or 'X'.,B,None,,,,,,,,,0,9,9,9,0,1,1,1,,,,,,,,,,,,,,,,,,,,,,,,,,,,,,,,,,,,,,,,,,,,,,,,,,,,,,,,,,,,,,,,,,,,,1.0906,760.4072066000081,None,None,1,760.4072066000081,None,,P053,FENCOG,1,Pre,2022_Jun_14_1109,N-Back (New Version 2021),2021.1.4,119.71130420848681,
,,,,Conditions/Version_1/zeroback(3)_v1.xlsx,New rule: Press 'space' when you see the letter 'x' or 'X'.,m,None,,,,,,,,,0,9,9,9,0,2,2,2,,,,,,,,,,,,,,,,,,,,,,,,,,,,,,,,,,,,,,,,,,,,,,,,,,,,,,,,,,,,,,,,,,,,,1.3944,763.8109527000051,None,None,1,763.8109527000051,None,,P053,FENCOG,1,Pre,2022_Jun_14_1109,N-Back (New Version 2021),2021.1.4,119.71130420848681,
,,,,Conditions/Version_1/zeroback(3)_v1.xlsx,New rule: Press 'space' when you see the letter 'x' or 'X'.,m,None,,,,,,,,,0,9,9,9,0,3,3,3,,,,,,,,,,,,,,,,,,,,,,,,,,,,,,,,,,,,,,,,,,,,,,,,,,,,,,,,,,,,,,,,,,,,,1.909,767.7331134000124,None,None,1,767.7331134000124,None,,P053,FENCOG,1,Pre,2022_Jun_14_1109,N-Back (New Version 2021),2021.1.4,119.71130420848681,
,,,,Conditions/Version_1/zeroback(3)_v1.xlsx,New rule: Press 'space' when you see the letter 'x' or 'X'.,o,None,,,,,,,,,0,9,9,9,0,4,4,4,,,,,,,,,,,,,,,,,,,,,,,,,,,,,,,,,,,,,,,,,,,,,,,,,,,,,,,,,,,,,,,,,,,,,1.7912,771.5234841000056,None,None,1,771.5234841000056,None,,P053,FENCOG,1,Pre,2022_Jun_14_1109,N-Back (New Version 2021),2021.1.4,119.71130420848681,
,,,,Conditions/Version_1/zeroback(3)_v1.xlsx,New rule: Press 'space' when you see the letter 'x' or 'X'.,p,None,,,,,,,,,0,9,9,9,0,5,5,5,,,,,,,,,,,,,,,,,,,,,,,,,,,,,,,,,,,,,,,,,,,,,,,,,,,,,,,,,,,,,,,,,,,,,1.8842,775.4140191000042,None,None,1,775.4140191000042,None,,P053,FENCOG,1,Pre,2022_Jun_14_1109,N-Back (New Version 2021),2021.1.4,119.71130420848681,
,,,,Conditions/Version_1/zeroback(3)_v1.xlsx,New rule: Press 'space' when you see the letter 'x' or 'X'.,G,None,,,,,,,,,0,9,9,9,0,6,6,6,,,,,,,,,,,,,,,,,,,,,,,,,,,,,,,,,,,,,,,,,,,,,,,,,,,,,,,,,,,,,,,,,,,,,1.5246,778.9381678000063,None,None,1,778.9381678000063,None,,P053,FENCOG,1,Pre,2022_Jun_14_1109,N-Back (New Version 2021),2021.1.4,119.71130420848681,
,,,,Conditions/Version_1/zeroback(3)_v1.xlsx,New rule: Press 'space' when you see the letter 'x' or 'X'.,X,space,,,,,,,,,0,9,9,9,0,7,7,7,,,,,,,,,,,,,,,,,,,,,,,,,,,,,,,,,,,,,,,,,,,,,,,,,,,,,,,,,,,,,,,,,,,,,1.444,782.3963778000034,None,space,1,782.3963778000034,None,0.4315040999936173,P053,FENCOG,1,Pre,2022_Jun_14_1109,N-Back (New Version 2021),2021.1.4,119.71130420848681,
,,,,Conditions/Version_1/zeroback(3)_v1.xlsx,New rule: Press 'space' when you see the letter 'x' or 'X'.,p,None,,,,,,,,,0,9,9,9,0,8,8,8,,,,,,,,,,,,,,,,,,,,,,,,,,,,,,,,,,,,,,,,,,,,,,,,,,,,,,,,,,,,,,,,,,,,,1.6982,786.1024598000076,None,None,1,786.1024598000076,None,,P053,FENCOG,1,Pre,2022_Jun_14_1109,N-Back (New Version 2021),2021.1.4,119.71130420848681,
,,,,Conditions/Version_1/zeroback(3)_v1.xlsx,New rule: Press 'space' when you see the letter 'x' or 'X'.,x,space,,,,,,,,,0,9,9,9,0,9,9,9,,,,,,,,,,,,,,,,,,,,,,,,,,,,,,,,,,,,,,,,,,,,,,,,,,,,,,,,,,,,,,,,,,,,,1.4068,789.5181256000069,None,space,1,789.5181256000069,None,0.668976200002362,P053,FENCOG,1,Pre,2022_Jun_14_1109,N-Back (New Version 2021),2021.1.4,119.71130420848681,
,,,,Conditions/Version_1/zeroback(3)_v1.xlsx,New rule: Press 'space' when you see the letter 'x' or 'X'.,,,,,,,,,,,0,9,9,9,,,,,,,,,,,,,,,,,,,,,,,,,,,,,,,,,,,,,,,,,,,,,,,,,,,,,,,,,,,,,,,,,,,,,,,,,,,,,,,,,P053,FENCOG,1,Pre,2022_Jun_14_1109,N-Back (New Version 2021),2021.1.4,119.71130420848681,
,,,,Conditions/Version_1/twoback(3)_v1.xlsx,New rule: Press 'space' when you see 2-back (i.e. the same letter as the one that appeared 2 letters ago.),e,None,,,,,,,,,0,10,10,10,0,0,0,0,,,,,,,,,,,,,,,,,,,,,,,,,,,,,,,,,,,,,,,,,,,,,,,,,,,,,,,,,,,791.5404314000043,None,794.527030000012,None,space,0.34844720001274254,794.527030000012,None,791.5404314000043,None,1.506,796.4162191000069,None,None,1,796.4162191000069,None,,P053,FENCOG,1,Pre,2022_Jun_14_1109,N-Back (New Version 2021),2021.1.4,119.71130420848681,
,,,,Conditions/Version_1/twoback(3)_v1.xlsx,New rule: Press 'space' when you see 2-back (i.e. the same letter as the one that appeared 2 letters ago.),o,None,,,,,,,,,0,10,10,10,0,1,1,1,,,,,,,,,,,,,,,,,,,,,,,,,,,,,,,,,,,,,,,,,,,,,,,,,,,,,,,,,,,,,,,,,,,,,1.1278,799.5507950000028,None,None,1,799.5507950000028,None,,P053,FENCOG,1,Pre,2022_Jun_14_1109,N-Back (New Version 2021),2021.1.4,119.71130420848681,
,,,,Conditions/Version_1/twoback(3)_v1.xlsx,New rule: Press 'space' when you see 2-back (i.e. the same letter as the one that appeared 2 letters ago.),P,None,,,,,,,,,0,10,10,10,0,2,2,2,,,,,,,,,,,,,,,,,,,,,,,,,,,,,,,,,,,,,,,,,,,,,,,,,,,,,,,,,,,,,,,,,,,,,1.9028,803.4677658,None,None,1,803.4677658,None,,P053,FENCOG,1,Pre,2022_Jun_14_1109,N-Back (New Version 2021),2021.1.4,119.71130420848681,
,,,,Conditions/Version_1/twoback(3)_v1.xlsx,New rule: Press 'space' when you see 2-back (i.e. the same letter as the one that appeared 2 letters ago.),z,None,,,,,,,,,0,10,10,10,0,3,3,3,,,,,,,,,,,,,,,,,,,,,,,,,,,,,,,,,,,,,,,,,,,,,,,,,,,,,,,,,,,,,,,,,,,,,1.8098,807.3000706000021,None,None,1,807.3000706000021,None,,P053,FENCOG,1,Pre,2022_Jun_14_1109,N-Back (New Version 2021),2021.1.4,119.71130420848681,
,,,,Conditions/Version_1/twoback(3)_v1.xlsx,New rule: Press 'space' when you see 2-back (i.e. the same letter as the one that appeared 2 letters ago.),X,None,,,,,,,,,0,10,10,10,0,4,4,4,,,,,,,,,,,,,,,,,,,,,,,,,,,,,,,,,,,,,,,,,,,,,,,,,,,,,,,,,,,,,,,,,,,,,1.8346,811.1368823000084,None,None,1,811.1368823000084,None,,P053,FENCOG,1,Pre,2022_Jun_14_1109,N-Back (New Version 2021),2021.1.4,119.71130420848681,
,,,,Conditions/Version_1/twoback(3)_v1.xlsx,New rule: Press 'space' when you see 2-back (i.e. the same letter as the one that appeared 2 letters ago.),z,space,,,,,,,,,0,10,10,10,0,5,5,5,,,,,,,,,,,,,,,,,,,,,,,,,,,,,,,,,,,,,,,,,,,,,,,,,,,,,,,,,,,,,,,,,,,,,1.5184,814.6608258000051,None,space,1,814.6608258000051,None,0.8141326999902958,P053,FENCOG,1,Pre,2022_Jun_14_1109,N-Back (New Version 2021),2021.1.4,119.71130420848681,
,,,,Conditions/Version_1/twoback(3)_v1.xlsx,New rule: Press 'space' when you see 2-back (i.e. the same letter as the one that appeared 2 letters ago.),x,space,,,,,,,,,0,10,10,10,0,6,6,6,,,,,,,,,,,,,,,,,,,,,,,,,,,,,,,,,,,,,,,,,,,,,,,,,,,,,,,,,,,,,,,,,,,,,1.8966,818.5596433000028,None,space,1,818.5596433000028,None,0.37149100001261104,P053,FENCOG,1,Pre,2022_Jun_14_1109,N-Back (New Version 2021),2021.1.4,119.71130420848681,
,,,,Conditions/Version_1/twoback(3)_v1.xlsx,New rule: Press 'space' when you see 2-back (i.e. the same letter as the one that appeared 2 letters ago.),c,None,,,,,,,,,0,10,10,10,0,7,7,7,,,,,,,,,,,,,,,,,,,,,,,,,,,,,,,,,,,,,,,,,,,,,,,,,,,,,,,,,,,,,,,,,,,,,1.7664,822.3251471000112,None,None,1,822.3251471000112,None,,P053,FENCOG,1,Pre,2022_Jun_14_1109,N-Back (New Version 2021),2021.1.4,119.71130420848681,
,,,,Conditions/Version_1/twoback(3)_v1.xlsx,New rule: Press 'space' when you see 2-back (i.e. the same letter as the one that appeared 2 letters ago.),i,None,,,,,,,,,0,10,10,10,0,8,8,8,,,,,,,,,,,,,,,,,,,,,,,,,,,,,,,,,,,,,,,,,,,,,,,,,,,,,,,,,,,,,,,,,,,,,1.8408,826.1656688000076,None,None,1,826.1656688000076,None,,P053,FENCOG,1,Pre,2022_Jun_14_1109,N-Back (New Version 2021),2021.1.4,119.71130420848681,
,,,,Conditions/Version_1/twoback(3)_v1.xlsx,New rule: Press 'space' when you see 2-back (i.e. the same letter as the one that appeared 2 letters ago.),C,space,,,,,,,,,0,10,10,10,0,9,9,9,,,,,,,,,,,,,,,,,,,,,,,,,,,,,,,,,,,,,,,,,,,,,,,,,,,,,,,,,,,,,,,,,,,,,1.2332,829.4087234000035,None,space,1,829.4087234000035,None,0.34626140000182204,P053,FENCOG,1,Pre,2022_Jun_14_1109,N-Back (New Version 2021),2021.1.4,119.71130420848681,
,,,,Conditions/Version_1/twoback(3)_v1.xlsx,New rule: Press 'space' when you see 2-back (i.e. the same letter as the one that appeared 2 letters ago.),,,,,,,,,,,0,10,10,10,,,,,,,,,,,,,,,,,,,,,,,,,,,,,,,,,,,,,,,,,,,,,,,,,,,,,,,,,,,,,,,,,,,,,,,,,,,,,,,,,P053,FENCOG,1,Pre,2022_Jun_14_1109,N-Back (New Version 2021),2021.1.4,119.71130420848681,
,,,,Conditions/Version_1/oneback(3)_v1.xlsx,New rule: Press 'space' when you see 1-back (i.e. the same letter as the one that appeared 1 letter ago.),o,None,,,,,,,,,0,11,11,11,0,0,0,0,,,,,,,,,,,,,,,,,,,,,,,,,,,,,,,,,,,,,,,,,,,,,,,,,,,,,,,,,,,831.4432848000142,None,834.4241402000043,None,space,0.5068750000064028,834.4241402000043,None,831.4432848000142,None,1.8222,836.7877292000048,None,None,1,836.7877292000048,None,,P053,FENCOG,1,Pre,2022_Jun_14_1109,N-Back (New Version 2021),2021.1.4,119.71130420848681,
,,,,Conditions/Version_1/oneback(3)_v1.xlsx,New rule: Press 'space' when you see 1-back (i.e. the same letter as the one that appeared 1 letter ago.),O,space,,,,,,,,,0,11,11,11,0,1,1,1,,,,,,,,,,,,,,,,,,,,,,,,,,,,,,,,,,,,,,,,,,,,,,,,,,,,,,,,,,,,,,,,,,,,,1.2766,840.0705149000132,None,space,1,840.0705149000132,None,0.3966359000041848,P053,FENCOG,1,Pre,2022_Jun_14_1109,N-Back (New Version 2021),2021.1.4,119.71130420848681,
,,,,Conditions/Version_1/oneback(3)_v1.xlsx,New rule: Press 'space' when you see 1-back (i.e. the same letter as the one that appeared 1 letter ago.),h,None,,,,,,,,,0,11,11,11,0,2,2,2,,,,,,,,,,,,,,,,,,,,,,,,,,,,,,,,,,,,,,,,,,,,,,,,,,,,,,,,,,,,,,,,,,,,,1.63,843.7106159000105,None,None,1,843.7106159000105,None,,P053,FENCOG,1,Pre,2022_Jun_14_1109,N-Back (New Version 2021),2021.1.4,119.71130420848681,
,,,,Conditions/Version_1/oneback(3)_v1.xlsx,New rule: Press 'space' when you see 1-back (i.e. the same letter as the one that appeared 1 letter ago.),g,None,,,,,,,,,0,11,11,11,0,3,3,3,,,,,,,,,,,,,,,,,,,,,,,,,,,,,,,,,,,,,,,,,,,,,,,,,,,,,,,,,,,,,,,,,,,,,1.3448,847.0596763000067,None,None,1,847.0596763000067,None,,P053,FENCOG,1,Pre,2022_Jun_14_1109,N-Back (New Version 2021),2021.1.4,119.71130420848681,
,,,,Conditions/Version_1/oneback(3)_v1.xlsx,New rule: Press 'space' when you see 1-back (i.e. the same letter as the one that appeared 1 letter ago.),n,None,,,,,,,,,0,11,11,11,0,4,4,4,,,,,,,,,,,,,,,,,,,,,,,,,,,,,,,,,,,,,,,,,,,,,,,,,,,,,,,,,,,,,,,,,,,,,1.0162,850.0810776000144,None,None,1,850.0810776000144,None,,P053,FENCOG,1,Pre,2022_Jun_14_1109,N-Back (New Version 2021),2021.1.4,119.71130420848681,
,,,,Conditions/Version_1/oneback(3)_v1.xlsx,New rule: Press 'space' when you see 1-back (i.e. the same letter as the one that appeared 1 letter ago.),z,None,,,,,,,,,0,11,11,11,0,5,5,5,,,,,,,,,,,,,,,,,,,,,,,,,,,,,,,,,,,,,,,,,,,,,,,,,,,,,,,,,,,,,,,,,,,,,1.7478,853.8324407000036,None,None,1,853.8324407000036,None,,P053,FENCOG,1,Pre,2022_Jun_14_1109,N-Back (New Version 2021),2021.1.4,119.71130420848681,
,,,,Conditions/Version_1/oneback(3)_v1.xlsx,New rule: Press 'space' when you see 1-back (i.e. the same letter as the one that appeared 1 letter ago.),X,None,,,,,,,,,0,11,11,11,0,6,6,6,,,,,,,,,,,,,,,,,,,,,,,,,,,,,,,,,,,,,,,,,,,,,,,,,,,,,,,,,,,,,,,,,,,,,1.6052,857.4481004000118,None,None,1,857.4481004000118,None,,P053,FENCOG,1,Pre,2022_Jun_14_1109,N-Back (New Version 2021),2021.1.4,119.71130420848681,
,,,,Conditions/Version_1/oneback(3)_v1.xlsx,New rule: Press 'space' when you see 1-back (i.e. the same letter as the one that appeared 1 letter ago.),r,None,,,,,,,,,0,11,11,11,0,7,7,7,,,,,,,,,,,,,,,,,,,,,,,,,,,,,,,,,,,,,,,,,,,,,,,,,,,,,,,,,,,,,,,,,,,,,1.0286,860.4816215000028,None,None,1,860.4816215000028,None,,P053,FENCOG,1,Pre,2022_Jun_14_1109,N-Back (New Version 2021),2021.1.4,119.71130420848681,
,,,,Conditions/Version_1/oneback(3)_v1.xlsx,New rule: Press 'space' when you see 1-back (i.e. the same letter as the one that appeared 1 letter ago.),r,space,,,,,,,,,0,11,11,11,0,8,8,8,,,,,,,,,,,,,,,,,,,,,,,,,,,,,,,,,,,,,,,,,,,,,,,,,,,,,,,,,,,,,,,,,,,,,1.2518,863.7464905000088,None,space,1,863.7464905000088,None,0.5367030999914277,P053,FENCOG,1,Pre,2022_Jun_14_1109,N-Back (New Version 2021),2021.1.4,119.71130420848681,
,,,,Conditions/Version_1/oneback(3)_v1.xlsx,New rule: Press 'space' when you see 1-back (i.e. the same letter as the one that appeared 1 letter ago.),P,None,,,,,,,,,0,11,11,11,0,9,9,9,,,,,,,,,,,,,,,,,,,,,,,,,,,,,,,,,,,,,,,,,,,,,,,,,,,,,,,,,,,,,,,,,,,,,1.3014,867.091305000009,None,None,1,867.091305000009,None,,P053,FENCOG,1,Pre,2022_Jun_14_1109,N-Back (New Version 2021),2021.1.4,119.71130420848681,
,,,,Conditions/Version_1/oneback(3)_v1.xlsx,New rule: Press 'space' when you see 1-back (i.e. the same letter as the one that appeared 1 letter ago.),,,,,,,,,,,0,11,11,11,,,,,,,,,,,,,,,,,,,,,,,,,,,,,,,,,,,,,,,,,,,,,,,,,,,,,,,,,,,,,,,,,,,,,,,,,,,,,,,,,P053,FENCOG,1,Pre,2022_Jun_14_1109,N-Back (New Version 2021),2021.1.4,119.71130420848681,
,,,,Conditions/Version_1/twoback(4)_v1.xlsx,New rule: Press 'space' when you see 2-back (i.e. the same letter as the one that appeared 2 letters ago.),r,None,,,,,,,,,0,12,12,12,0,0,0,0,,,,,,,,,,,,,,,,,,,,,,,,,,,,,,,,,,,,,,,,,,,,,,,,,,,,,,,,,,,869.0914742000023,None,872.0790127000073,None,space,0.5718981999962125,872.0790127000073,None,869.0914742000023,None,1.3882,874.0683453000092,None,None,1,874.0683453000092,None,,P053,FENCOG,1,Pre,2022_Jun_14_1109,N-Back (New Version 2021),2021.1.4,119.71130420848681,
,,,,Conditions/Version_1/twoback(4)_v1.xlsx,New rule: Press 'space' when you see 2-back (i.e. the same letter as the one that appeared 2 letters ago.),T,None,,,,,,,,,0,12,12,12,0,1,1,1,,,,,,,,,,,,,,,,,,,,,,,,,,,,,,,,,,,,,,,,,,,,,,,,,,,,,,,,,,,,,,,,,,,,,1.4254,877.5050993000041,None,None,1,877.5050993000041,None,,P053,FENCOG,1,Pre,2022_Jun_14_1109,N-Back (New Version 2021),2021.1.4,119.71130420848681,
,,,,Conditions/Version_1/twoback(4)_v1.xlsx,New rule: Press 'space' when you see 2-back (i.e. the same letter as the one that appeared 2 letters ago.),o,None,,,,,,,,,0,12,12,12,0,2,2,2,,,,,,,,,,,,,,,,,,,,,,,,,,,,,,,,,,,,,,,,,,,,,,,,,,,,,,,,,,,,,,,,,,,,,1.6052,881.1160772000003,None,None,1,881.1160772000003,None,,P053,FENCOG,1,Pre,2022_Jun_14_1109,N-Back (New Version 2021),2021.1.4,119.71130420848681,
,,,,Conditions/Version_1/twoback(4)_v1.xlsx,New rule: Press 'space' when you see 2-back (i.e. the same letter as the one that appeared 2 letters ago.),p,None,,,,,,,,,0,12,12,12,0,3,3,3,,,,,,,,,,,,,,,,,,,,,,,,,,,,,,,,,,,,,,,,,,,,,,,,,,,,,,,,,,,,,,,,,,,,,1.4068,884.5234591000044,None,None,1,884.5234591000044,None,,P053,FENCOG,1,Pre,2022_Jun_14_1109,N-Back (New Version 2021),2021.1.4,119.71130420848681,
,,,,Conditions/Version_1/twoback(4)_v1.xlsx,New rule: Press 'space' when you see 2-back (i.e. the same letter as the one that appeared 2 letters ago.),p,None,,,,,,,,,0,12,12,12,0,4,4,4,,,,,,,,,,,,,,,,,,,,,,,,,,,,,,,,,,,,,,,,,,,,,,,,,,,,,,,,,,,,,,,,,,,,,1.4626,887.9889943000017,None,None,1,887.9889943000017,None,,P053,FENCOG,1,Pre,2022_Jun_14_1109,N-Back (New Version 2021),2021.1.4,119.71130420848681,
,,,,Conditions/Version_1/twoback(4)_v1.xlsx,New rule: Press 'space' when you see 2-back (i.e. the same letter as the one that appeared 2 letters ago.),y,None,,,,,,,,,0,12,12,12,0,5,5,5,,,,,,,,,,,,,,,,,,,,,,,,,,,,,,,,,,,,,,,,,,,,,,,,,,,,,,,,,,,,,,,,,,,,,1.7106,891.704711000013,None,None,1,891.704711000013,None,,P053,FENCOG,1,Pre,2022_Jun_14_1109,N-Back (New Version 2021),2021.1.4,119.71130420848681,
,,,,Conditions/Version_1/twoback(4)_v1.xlsx,New rule: Press 'space' when you see 2-back (i.e. the same letter as the one that appeared 2 letters ago.),P,space,,,,,,,,,0,12,12,12,0,6,6,6,,,,,,,,,,,,,,,,,,,,,,,,,,,,,,,,,,,,,,,,,,,,,,,,,,,,,,,,,,,,,,,,,,,,,1.258,894.964286900009,None,space,1,894.964286900009,None,0.5755113999912282,P053,FENCOG,1,Pre,2022_Jun_14_1109,N-Back (New Version 2021),2021.1.4,119.71130420848681,
,,,,Conditions/Version_1/twoback(4)_v1.xlsx,New rule: Press 'space' when you see 2-back (i.e. the same letter as the one that appeared 2 letters ago.),y,None,,,,,,,,,0,12,12,12,0,7,7,7,,,,,,,,,,,,,,,,,,,,,,,,,,,,,,,,,,,,,,,,,,,,,,,,,,,,,,,,,,,,,,,,,,,,,1.785,898.760944900001,None,space,0,898.760944900001,None,0.3301017000048887,P053,FENCOG,1,Pre,2022_Jun_14_1109,N-Back (New Version 2021),2021.1.4,119.71130420848681,
,,,,Conditions/Version_1/twoback(4)_v1.xlsx,New rule: Press 'space' when you see 2-back (i.e. the same letter as the one that appeared 2 letters ago.),y,space,,,,,,,,,0,12,12,12,0,8,8,8,,,,,,,,,,,,,,,,,,,,,,,,,,,,,,,,,,,,,,,,,,,,,,,,,,,,,,,,,,,,,,,,,,,,,1.5556,902.3191896000062,None,None,0,902.3191896000062,None,,P053,FENCOG,1,Pre,2022_Jun_14_1109,N-Back (New Version 2021),2021.1.4,119.71130420848681,
,,,,Conditions/Version_1/twoback(4)_v1.xlsx,New rule: Press 'space' when you see 2-back (i.e. the same letter as the one that appeared 2 letters ago.),,,,,,,,,,,0,12,12,12,,,,,,,,,,,,,,,,,,,,,,,,,,,,,,,,,,,,,,,,,,,,,,,,,,,,,,,,,,,,,,,,,,,,,,,,,,,,,,,,,P053,FENCOG,1,Pre,2022_Jun_14_1109,N-Back (New Version 2021),2021.1.4,119.71130420848681,
,,,,Conditions/Version_1/zeroback(4)_v1.xlsx,New rule: Press 'space' when you see the letter 'x' or 'X'.,o,None,,,,,,,,,0,13,13,13,0,0,0,0,,,,,,,,,,,,,,,,,,,,,,,,,,,,,,,,,,,,,,,,,,,,,,,,,,,,,,,,,,,904.3462126000086,None,907.3357055000088,None,space,0.5073955999978352,907.3357055000088,None,904.3462126000086,None,1.3386,909.222488600004,None,None,1,909.222488600004,None,,P053,FENCOG,1,Pre,2022_Jun_14_1109,N-Back (New Version 2021),2021.1.4,119.71130420848681,
,,,,Conditions/Version_1/zeroback(4)_v1.xlsx,New rule: Press 'space' when you see the letter 'x' or 'X'.,X,space,,,,,,,,,0,13,13,13,0,1,1,1,,,,,,,,,,,,,,,,,,,,,,,,,,,,,,,,,,,,,,,,,,,,,,,,,,,,,,,,,,,,,,,,,,,,,1.227,912.4568184000091,None,space,1,912.4568184000091,None,0.3542691999900853,P053,FENCOG,1,Pre,2022_Jun_14_1109,N-Back (New Version 2021),2021.1.4,119.71130420848681,
,,,,Conditions/Version_1/zeroback(4)_v1.xlsx,New rule: Press 'space' when you see the letter 'x' or 'X'.,p,None,,,,,,,,,0,13,13,13,0,2,2,2,,,,,,,,,,,,,,,,,,,,,,,,,,,,,,,,,,,,,,,,,,,,,,,,,,,,,,,,,,,,,,,,,,,,,1.5246,915.9815181000013,None,None,1,915.9815181000013,None,,P053,FENCOG,1,Pre,2022_Jun_14_1109,N-Back (New Version 2021),2021.1.4,119.71130420848681,
,,,,Conditions/Version_1/zeroback(4)_v1.xlsx,New rule: Press 'space' when you see the letter 'x' or 'X'.,m,None,,,,,,,,,0,13,13,13,0,3,3,3,,,,,,,,,,,,,,,,,,,,,,,,,,,,,,,,,,,,,,,,,,,,,,,,,,,,,,,,,,,,,,,,,,,,,1.847,919.8385565000062,None,None,1,919.8385565000062,None,,P053,FENCOG,1,Pre,2022_Jun_14_1109,N-Back (New Version 2021),2021.1.4,119.71130420848681,
,,,,Conditions/Version_1/zeroback(4)_v1.xlsx,New rule: Press 'space' when you see the letter 'x' or 'X'.,n,None,,,,,,,,,0,13,13,13,0,4,4,4,,,,,,,,,,,,,,,,,,,,,,,,,,,,,,,,,,,,,,,,,,,,,,,,,,,,,,,,,,,,,,,,,,,,,1.8284,923.6855245000042,None,None,1,923.6855245000042,None,,P053,FENCOG,1,Pre,2022_Jun_14_1109,N-Back (New Version 2021),2021.1.4,119.71130420848681,
,,,,Conditions/Version_1/zeroback(4)_v1.xlsx,New rule: Press 'space' when you see the letter 'x' or 'X'.,m,None,,,,,,,,,0,13,13,13,0,5,5,5,,,,,,,,,,,,,,,,,,,,,,,,,,,,,,,,,,,,,,,,,,,,,,,,,,,,,,,,,,,,,,,,,,,,,1.5618,927.2600180000009,None,None,1,927.2600180000009,None,,P053,FENCOG,1,Pre,2022_Jun_14_1109,N-Back (New Version 2021),2021.1.4,119.71130420848681,
,,,,Conditions/Version_1/zeroback(4)_v1.xlsx,New rule: Press 'space' when you see the letter 'x' or 'X'.,C,None,,,,,,,,,0,13,13,13,0,6,6,6,,,,,,,,,,,,,,,,,,,,,,,,,,,,,,,,,,,,,,,,,,,,,,,,,,,,,,,,,,,,,,,,,,,,,1.0968,930.3642595000128,None,None,1,930.3642595000128,None,,P053,FENCOG,1,Pre,2022_Jun_14_1109,N-Back (New Version 2021),2021.1.4,119.71130420848681,
,,,,Conditions/Version_1/zeroback(4)_v1.xlsx,New rule: Press 'space' when you see the letter 'x' or 'X'.,m,None,,,,,,,,,0,13,13,13,0,7,7,7,,,,,,,,,,,,,,,,,,,,,,,,,,,,,,,,,,,,,,,,,,,,,,,,,,,,,,,,,,,,,,,,,,,,,1.0224,933.4008296000102,None,None,1,933.4008296000102,None,,P053,FENCOG,1,Pre,2022_Jun_14_1109,N-Back (New Version 2021),2021.1.4,119.71130420848681,
,,,,Conditions/Version_1/zeroback(4)_v1.xlsx,New rule: Press 'space' when you see the letter 'x' or 'X'.,p,None,,,,,,,,,0,13,13,13,0,8,8,8,,,,,,,,,,,,,,,,,,,,,,,,,,,,,,,,,,,,,,,,,,,,,,,,,,,,,,,,,,,,,,,,,,,,,1.196,936.6022964000003,None,None,1,936.6022964000003,None,,P053,FENCOG,1,Pre,2022_Jun_14_1109,N-Back (New Version 2021),2021.1.4,119.71130420848681,
,,,,Conditions/Version_1/zeroback(4)_v1.xlsx,New rule: Press 'space' when you see the letter 'x' or 'X'.,X,space,,,,,,,,,0,13,13,13,0,9,9,9,,,,,,,,,,,,,,,,,,,,,,,,,,,,,,,,,,,,,,,,,,,,,,,,,,,,,,,,,,,,,,,,,,,,,1.9152,940.5315098000137,None,space,1,940.5315098000137,None,0.4554846999963047,P053,FENCOG,1,Pre,2022_Jun_14_1109,N-Back (New Version 2021),2021.1.4,119.71130420848681,
,,,,Conditions/Version_1/zeroback(4)_v1.xlsx,New rule: Press 'space' when you see the letter 'x' or 'X'.,,,,,,,,,,,0,13,13,13,,,,,,,,,,,,,,,,,,,,,,,,,,,,,,,,,,,,,,,,,,,,,,,,,,,,,,,,,,,,,,,,,,,,,,,,,,,,,,,,,P053,FENCOG,1,Pre,2022_Jun_14_1109,N-Back (New Version 2021),2021.1.4,119.71130420848681,
,,,,Conditions/Version_1/oneback(4)_v1.xlsx,New rule: Press 'space' when you see 1-back (i.e. the same letter as the one that appeared 1 letter ago.),w,None,,,,,,,,,0,14,14,14,0,0,0,0,,,,,,,,,,,,,,,,,,,,,,,,,,,,,,,,,,,,,,,,,,,,,,,,,,,,,,,,,,,942.5535794000025,None,945.542271000013,None,space,0.5490241999941645,945.542271000013,None,942.5535794000025,None,1.8904,948.0256838000059,None,None,1,948.0256838000059,None,,P053,FENCOG,1,Pre,2022_Jun_14_1109,N-Back (New Version 2021),2021.1.4,119.71130420848681,
,,,,Conditions/Version_1/oneback(4)_v1.xlsx,New rule: Press 'space' when you see 1-back (i.e. the same letter as the one that appeared 1 letter ago.),q,None,,,,,,,,,0,14,14,14,0,1,1,1,,,,,,,,,,,,,,,,,,,,,,,,,,,,,,,,,,,,,,,,,,,,,,,,,,,,,,,,,,,,,,,,,,,,,1.5246,951.556158300009,None,None,1,951.556158300009,None,,P053,FENCOG,1,Pre,2022_Jun_14_1109,N-Back (New Version 2021),2021.1.4,119.71130420848681,
,,,,Conditions/Version_1/oneback(4)_v1.xlsx,New rule: Press 'space' when you see 1-back (i.e. the same letter as the one that appeared 1 letter ago.),i,None,,,,,,,,,0,14,14,14,0,2,2,2,,,,,,,,,,,,,,,,,,,,,,,,,,,,,,,,,,,,,,,,,,,,,,,,,,,,,,,,,,,,,,,,,,,,,1.2456,954.8138075000024,None,None,1,954.8138075000024,None,,P053,FENCOG,1,Pre,2022_Jun_14_1109,N-Back (New Version 2021),2021.1.4,119.71130420848681,
,,,,Conditions/Version_1/oneback(4)_v1.xlsx,New rule: Press 'space' when you see 1-back (i.e. the same letter as the one that appeared 1 letter ago.),t,None,,,,,,,,,0,14,14,14,0,3,3,3,,,,,,,,,,,,,,,,,,,,,,,,,,,,,,,,,,,,,,,,,,,,,,,,,,,,,,,,,,,,,,,,,,,,,1.8098,958.6351282000105,None,None,1,958.6351282000105,None,,P053,FENCOG,1,Pre,2022_Jun_14_1109,N-Back (New Version 2021),2021.1.4,119.71130420848681,
,,,,Conditions/Version_1/oneback(4)_v1.xlsx,New rule: Press 'space' when you see 1-back (i.e. the same letter as the one that appeared 1 letter ago.),v,None,,,,,,,,,0,14,14,14,0,4,4,4,,,,,,,,,,,,,,,,,,,,,,,,,,,,,,,,,,,,,,,,,,,,,,,,,,,,,,,,,,,,,,,,,,,,,1.8346,962.4772341000062,None,None,1,962.4772341000062,None,,P053,FENCOG,1,Pre,2022_Jun_14_1109,N-Back (New Version 2021),2021.1.4,119.71130420848681,
,,,,Conditions/Version_1/oneback(4)_v1.xlsx,New rule: Press 'space' when you see 1-back (i.e. the same letter as the one that appeared 1 letter ago.),V,space,,,,,,,,,0,14,14,14,0,5,5,5,,,,,,,,,,,,,,,,,,,,,,,,,,,,,,,,,,,,,,,,,,,,,,,,,,,,,,,,,,,,,,,,,,,,,1.8532,966.3438989000133,None,space,1,966.3438989000133,None,0.5229968000057852,P053,FENCOG,1,Pre,2022_Jun_14_1109,N-Back (New Version 2021),2021.1.4,119.71130420848681,
,,,,Conditions/Version_1/oneback(4)_v1.xlsx,New rule: Press 'space' when you see 1-back (i.e. the same letter as the one that appeared 1 letter ago.),v,space,,,,,,,,,0,14,14,14,0,6,6,6,,,,,,,,,,,,,,,,,,,,,,,,,,,,,,,,,,,,,,,,,,,,,,,,,,,,,,,,,,,,,,,,,,,,,1.4006,969.7484130000084,None,space,1,969.7484130000084,None,0.3746730999991996,P053,FENCOG,1,Pre,2022_Jun_14_1109,N-Back (New Version 2021),2021.1.4,119.71130420848681,
,,,,Conditions/Version_1/oneback(4)_v1.xlsx,New rule: Press 'space' when you see 1-back (i.e. the same letter as the one that appeared 1 letter ago.),p,None,,,,,,,,,0,14,14,14,0,7,7,7,,,,,,,,,,,,,,,,,,,,,,,,,,,,,,,,,,,,,,,,,,,,,,,,,,,,,,,,,,,,,,,,,,,,,1.878,973.6311480000004,None,None,1,973.6311480000004,None,,P053,FENCOG,1,Pre,2022_Jun_14_1109,N-Back (New Version 2021),2021.1.4,119.71130420848681,
,,,,Conditions/Version_1/oneback(4)_v1.xlsx,New rule: Press 'space' when you see 1-back (i.e. the same letter as the one that appeared 1 letter ago.),w,None,,,,,,,,,0,14,14,14,0,8,8,8,,,,,,,,,,,,,,,,,,,,,,,,,,,,,,,,,,,,,,,,,,,,,,,,,,,,,,,,,,,,,,,,,,,,,1.7044,977.3491929000011,None,None,1,977.3491929000011,None,,P053,FENCOG,1,Pre,2022_Jun_14_1109,N-Back (New Version 2021),2021.1.4,119.71130420848681,
,,,,Conditions/Version_1/oneback(4)_v1.xlsx,New rule: Press 'space' when you see 1-back (i.e. the same letter as the one that appeared 1 letter ago.),W,space,,,,,,,,,0,14,14,14,0,9,9,9,,,,,,,,,,,,,,,,,,,,,,,,,,,,,,,,,,,,,,,,,,,,,,,,,,,,,,,,,,,,,,,,,,,,,1.0968,980.4536616000114,None,space,1,980.4536616000114,None,0.42933800000173505,P053,FENCOG,1,Pre,2022_Jun_14_1109,N-Back (New Version 2021),2021.1.4,119.71130420848681,
,,,,Conditions/Version_1/oneback(4)_v1.xlsx,New rule: Press 'space' when you see 1-back (i.e. the same letter as the one that appeared 1 letter ago.),,,,,,,,,,,0,14,14,14,,,,,,,,,,,,,,,,,,,,,,,,,,,,,,,,,,,,,,,,,,,,,,,,,,,,,,,,,,,,,,,,,,,,,,,,,,,,,,,,,P053,FENCOG,1,Pre,2022_Jun_14_1109,N-Back (New Version 2021),2021.1.4,119.71130420848681,
,,,,Conditions/Version_1/threeback(4)_v1.xlsx,New rule: Press 'space' when you see 3-back (i.e. the same letter as the one that appeared 3 letters ago.),A,None,,,,,,,,,0,15,15,15,0,0,0,0,,,,,,,,,,,,,,,,,,,,,,,,,,,,,,,,,,,,,,,,,,,,,,,,,,,,,,,,,,,982.4710697000119,None,985.4539705000061,None,space,1.269049599999562,985.4539705000061,None,982.4710697000119,None,1.63,988.3763831000106,None,None,1,988.3763831000106,None,,P053,FENCOG,1,Pre,2022_Jun_14_1109,N-Back (New Version 2021),2021.1.4,119.71130420848681,
,,,,Conditions/Version_1/threeback(4)_v1.xlsx,New rule: Press 'space' when you see 3-back (i.e. the same letter as the one that appeared 3 letters ago.),n,None,,,,,,,,,0,15,15,15,0,1,1,1,,,,,,,,,,,,,,,,,,,,,,,,,,,,,,,,,,,,,,,,,,,,,,,,,,,,,,,,,,,,,,,,,,,,,1.6734,992.0500894000143,None,None,1,992.0500894000143,None,,P053,FENCOG,1,Pre,2022_Jun_14_1109,N-Back (New Version 2021),2021.1.4,119.71130420848681,
,,,,Conditions/Version_1/threeback(4)_v1.xlsx,New rule: Press 'space' when you see 3-back (i.e. the same letter as the one that appeared 3 letters ago.),g,None,,,,,,,,,0,15,15,15,0,2,2,2,,,,,,,,,,,,,,,,,,,,,,,,,,,,,,,,,,,,,,,,,,,,,,,,,,,,,,,,,,,,,,,,,,,,,1.506,995.560069900006,None,None,1,995.560069900006,None,,P053,FENCOG,1,Pre,2022_Jun_14_1109,N-Back (New Version 2021),2021.1.4,119.71130420848681,
,,,,Conditions/Version_1/threeback(4)_v1.xlsx,New rule: Press 'space' when you see 3-back (i.e. the same letter as the one that appeared 3 letters ago.),A,space,,,,,,,,,0,15,15,15,0,3,3,3,,,,,,,,,,,,,,,,,,,,,,,,,,,,,,,,,,,,,,,,,,,,,,,,,,,,,,,,,,,,,,,,,,,,,1.9524,999.5273172000016,None,space,1,999.5273172000016,None,0.7238705999916419,P053,FENCOG,1,Pre,2022_Jun_14_1109,N-Back (New Version 2021),2021.1.4,119.71130420848681,
,,,,Conditions/Version_1/threeback(4)_v1.xlsx,New rule: Press 'space' when you see 3-back (i.e. the same letter as the one that appeared 3 letters ago.),p,None,,,,,,,,,0,15,15,15,0,4,4,4,,,,,,,,,,,,,,,,,,,,,,,,,,,,,,,,,,,,,,,,,,,,,,,,,,,,,,,,,,,,,,,,,,,,,1.8718,1003.4094828000088,None,None,1,1003.4094828000088,None,,P053,FENCOG,1,Pre,2022_Jun_14_1109,N-Back (New Version 2021),2021.1.4,119.71130420848681,
,,,,Conditions/Version_1/threeback(4)_v1.xlsx,New rule: Press 'space' when you see 3-back (i.e. the same letter as the one that appeared 3 letters ago.),O,None,,,,,,,,,0,15,15,15,0,5,5,5,,,,,,,,,,,,,,,,,,,,,,,,,,,,,,,,,,,,,,,,,,,,,,,,,,,,,,,,,,,,,,,,,,,,,1.754,1007.1707367000054,None,None,1,1007.1707367000054,None,,P053,FENCOG,1,Pre,2022_Jun_14_1109,N-Back (New Version 2021),2021.1.4,119.71130420848681,
,,,,Conditions/Version_1/threeback(4)_v1.xlsx,New rule: Press 'space' when you see 3-back (i.e. the same letter as the one that appeared 3 letters ago.),a,space,,,,,,,,,0,15,15,15,0,6,6,6,,,,,,,,,,,,,,,,,,,,,,,,,,,,,,,,,,,,,,,,,,,,,,,,,,,,,,,,,,,,,,,,,,,,,1.5742,1010.7459270000109,None,space,1,1010.7459270000109,None,0.4090305999998236,P053,FENCOG,1,Pre,2022_Jun_14_1109,N-Back (New Version 2021),2021.1.4,119.71130420848681,
,,,,Conditions/Version_1/threeback(4)_v1.xlsx,New rule: Press 'space' when you see 3-back (i.e. the same letter as the one that appeared 3 letters ago.),p,space,,,,,,,,,0,15,15,15,0,7,7,7,,,,,,,,,,,,,,,,,,,,,,,,,,,,,,,,,,,,,,,,,,,,,,,,,,,,,,,,,,,,,,,,,,,,,1.413,1014.1686890000128,None,space,1,1014.1686890000128,None,0.4267371000023559,P053,FENCOG,1,Pre,2022_Jun_14_1109,N-Back (New Version 2021),2021.1.4,119.71130420848681,
,,,,Conditions/Version_1/threeback(4)_v1.xlsx,New rule: Press 'space' when you see 3-back (i.e. the same letter as the one that appeared 3 letters ago.),x,None,,,,,,,,,0,15,15,15,0,8,8,8,,,,,,,,,,,,,,,,,,,,,,,,,,,,,,,,,,,,,,,,,,,,,,,,,,,,,,,,,,,,,,,,,,,,,1.4688,1017.6439898000099,None,None,1,1017.6439898000099,None,,P053,FENCOG,1,Pre,2022_Jun_14_1109,N-Back (New Version 2021),2021.1.4,119.71130420848681,
,,,,Conditions/Version_1/threeback(4)_v1.xlsx,New rule: Press 'space' when you see 3-back (i.e. the same letter as the one that appeared 3 letters ago.),X,None,,,,,,,,,0,15,15,15,0,9,9,9,,,,,,,,,,,,,,,,,,,,,,,,,,,,,,,,,,,,,,,,,,,,,,,,,,,,,,,,,,,,,,,,,,,,,1.0844,1020.7489055000042,None,None,1,1020.7489055000042,None,,P053,FENCOG,1,Pre,2022_Jun_14_1109,N-Back (New Version 2021),2021.1.4,119.71130420848681,
,,,,Conditions/Version_1/threeback(4)_v1.xlsx,New rule: Press 'space' when you see 3-back (i.e. the same letter as the one that appeared 3 letters ago.),,,,,,,,,,,0,15,15,15,,,,,,,,,,,,,,,,,,,,,,,,,,,,,,,,,,,,,,,,,,,,,,,,,,,,,,,,,,,,,,,,,,,,,,,,,,,,,,,,,P053,FENCOG,1,Pre,2022_Jun_14_1109,N-Back (New Version 2021),2021.1.4,119.71130420848681,
