CondFileP,InstructionsP,LettersDisplayedP,CorrectnessP,CondFile,Instructions,LettersDisplayed,Correctness,practicetrials.thisRepN,practicetrials.thisTrialN,practicetrials.thisN,practicetrials.thisIndex,InnerLoopPractice.thisRepN,InnerLoopPractice.thisTrialN,InnerLoopPractice.thisN,InnerLoopPractice.thisIndex,trials.thisRepN,trials.thisTrialN,trials.thisN,trials.thisIndex,InnerLoop.thisRepN,InnerLoop.thisTrialN,InnerLoop.thisN,InnerLoop.thisIndex,TaskVersionText.started,TaskVersionText.stopped,InstrKey1.keys,InstrKey1.rt,InstrKey1.started,InstrKey1.stopped,text.started,text.stopped,key_resp_4.keys,key_resp_4.rt,key_resp_4.started,key_resp_4.stopped,text_2.started,text_2.stopped,key_resp_3.keys,key_resp_3.rt,key_resp_3.started,key_resp_3.stopped,text_3.started,text_3.stopped,key_resp_2.keys,key_resp_2.rt,key_resp_2.started,key_resp_2.stopped,PractIn1.started,PractIn1.stopped,PractIn2.started,PractIn2.stopped,PractInstructionPass.keys,PractInstructionPass.rt,PractInstructionPass.started,PractInstructionPass.stopped,PractBlock1.started,PractBlock1.stopped,ISIjitterPractice,ISI_Pract_Fixation.started,ISI_Pract_Fixation.stopped,N_backP.started,N_backP.stopped,KeyPractice.keys,KeyPractice.corr,KeyPractice.started,KeyPractice.stopped,text_4.started,text_4.stopped,KeyPractice.rt,TransitionText.started,TransitionText.stopped,key_resp_6.keys,key_resp_6.rt,key_resp_6.started,key_resp_6.stopped,text_5.started,text_5.stopped,key_resp_5.keys,key_resp_5.rt,key_resp_5.started,key_resp_5.stopped,MainInt1.started,MainInt1.stopped,MainInt2.started,MainInt2.stopped,InstructionPass.keys,InstructionPass.rt,InstructionPass.started,InstructionPass.stopped,Blocks1.started,Blocks1.stopped,ISIjitter,N_backD.started,N_backD.stopped,key_resp.keys,key_resp.corr,key_resp.started,key_resp.stopped,key_resp.rt,participant,Study Name,Task Version (required to run),PRE/POST,date,expName,psychopyVersion,frameRate
,,,,,,,,,,,,,,,,,,,,,,,,58.9753915,None,space,14.3114951,59.4638908,None,,,,,,,,,,,,,,,,,,,,,,,,,,,,,,,,,,,,,,,,,,,,,,,,,,,,,,,,,,,,,,,,,,,,,,,P054,FENCOG,1,Pre,2022_Jun_15_1114,N-Back (New Version 2021),2021.1.4,120.0262618
,,,,,,,,,,,,,,,,,,,,,,,,,,,,,,73.8226088,None,space,6.009549,74.3181367,None,,,,,,,,,,,,,,,,,,,,,,,,,,,,,,,,,,,,,,,,,,,,,,,,,,,,,,,,,,,,,,,,,P054,FENCOG,1,Pre,2022_Jun_15_1114,N-Back (New Version 2021),2021.1.4,120.0262618
,,,,,,,,,,,,,,,,,,,,,,,,,,,,,,,,,,,,80.3911073,None,space,17.1958287,80.8918001,None,,,,,,,,,,,,,,,,,,,,,,,,,,,,,,,,,,,,,,,,,,,,,,,,,,,,,,,,,,,P054,FENCOG,1,Pre,2022_Jun_15_1114,N-Back (New Version 2021),2021.1.4,120.0262618
,,,,,,,,,,,,,,,,,,,,,,,,,,,,,,,,,,,,,,,,,,98.1402942,None,space,12.2356611,98.6362162,None,,,,,,,,,,,,,,,,,,,,,,,,,,,,,,,,,,,,,,,,,,,,,,,,,,,,,P054,FENCOG,1,Pre,2022_Jun_15_1114,N-Back (New Version 2021),2021.1.4,120.0262618
Conditions/Version_1Pr/zeroback(1)_v1.xlsx,Rule: Press 'space' when you see the letter 'x' or 'X'.,Z,None,,,,,0,0,0,0,0,0,0,0,,,,,,,,,,,,,,,,,,,,,,,,,,,,,,,,,112.4695906,None,115.4649702,None,space,1.1181306,115.4649702,None,112.4695906,None,1.94,116.617861,None,118.5749561,None,None,1,118.5749561,None,120.5751673,None,,,,,,,,,,,,,,,,,,,,,,,,,,,,,,,,P054,FENCOG,1,Pre,2022_Jun_15_1114,N-Back (New Version 2021),2021.1.4,120.0262618
Conditions/Version_1Pr/zeroback(1)_v1.xlsx,Rule: Press 'space' when you see the letter 'x' or 'X'.,r,None,,,,,0,0,0,0,0,1,1,1,,,,,,,,,,,,,,,,,,,,,,,,,,,,,,,,,,,,,,,,,,,1.915,122.0700116,None,123.9932932,None,None,1,123.9932932,None,125.9938649,None,,,,,,,,,,,,,,,,,,,,,,,,,,,,,,,,P054,FENCOG,1,Pre,2022_Jun_15_1114,N-Back (New Version 2021),2021.1.4,120.0262618
Conditions/Version_1Pr/zeroback(1)_v1.xlsx,Rule: Press 'space' when you see the letter 'x' or 'X'.,X,space,,,,,0,0,0,0,0,2,2,2,,,,,,,,,,,,,,,,,,,,,,,,,,,,,,,,,,,,,,,,,,,1.64,127.4933793,None,129.1385273,None,space,1,129.1385273,None,129.4377676,None,0.2772901,,,,,,,,,,,,,,,,,,,,,,,,,,,,,,,P054,FENCOG,1,Pre,2022_Jun_15_1114,N-Back (New Version 2021),2021.1.4,120.0262618
Conditions/Version_1Pr/zeroback(1)_v1.xlsx,Rule: Press 'space' when you see the letter 'x' or 'X'.,p,None,,,,,0,0,0,0,0,3,3,3,,,,,,,,,,,,,,,,,,,,,,,,,,,,,,,,,,,,,,,,,,,1.89,130.9445058,None,132.8412564,None,None,1,132.8412564,None,134.8374597,None,,,,,,,,,,,,,,,,,,,,,,,,,,,,,,,,P054,FENCOG,1,Pre,2022_Jun_15_1114,N-Back (New Version 2021),2021.1.4,120.0262618
Conditions/Version_1Pr/zeroback(1)_v1.xlsx,Rule: Press 'space' when you see the letter 'x' or 'X'.,w,None,,,,,0,0,0,0,0,4,4,4,,,,,,,,,,,,,,,,,,,,,,,,,,,,,,,,,,,,,,,,,,,1.165,136.3408684,None,137.5099435,None,None,1,137.5099435,None,139.5115616,None,,,,,,,,,,,,,,,,,,,,,,,,,,,,,,,,P054,FENCOG,1,Pre,2022_Jun_15_1114,N-Back (New Version 2021),2021.1.4,120.0262618
Conditions/Version_1Pr/zeroback(1)_v1.xlsx,Rule: Press 'space' when you see the letter 'x' or 'X'.,e,None,,,,,0,0,0,0,0,5,5,5,,,,,,,,,,,,,,,,,,,,,,,,,,,,,,,,,,,,,,,,,,,1.715,141.0144939,None,142.7379976,None,None,1,142.7379976,None,144.7386249,None,,,,,,,,,,,,,,,,,,,,,,,,,,,,,,,,P054,FENCOG,1,Pre,2022_Jun_15_1114,N-Back (New Version 2021),2021.1.4,120.0262618
Conditions/Version_1Pr/zeroback(1)_v1.xlsx,Rule: Press 'space' when you see the letter 'x' or 'X'.,X,space,,,,,0,0,0,0,0,6,6,6,,,,,,,,,,,,,,,,,,,,,,,,,,,,,,,,,,,,,,,,,,,1.29,146.2379736,None,147.5354857,None,space,1,147.5354857,None,147.872781,None,0.3205221,,,,,,,,,,,,,,,,,,,,,,,,,,,,,,,P054,FENCOG,1,Pre,2022_Jun_15_1114,N-Back (New Version 2021),2021.1.4,120.0262618
Conditions/Version_1Pr/zeroback(1)_v1.xlsx,Rule: Press 'space' when you see the letter 'x' or 'X'.,x,space,,,,,0,0,0,0,0,7,7,7,,,,,,,,,,,,,,,,,,,,,,,,,,,,,,,,,,,,,,,,,,,1.965,149.379805,None,151.352563,None,space,1,151.352563,None,151.7065322,None,0.3426882,,,,,,,,,,,,,,,,,,,,,,,,,,,,,,,P054,FENCOG,1,Pre,2022_Jun_15_1114,N-Back (New Version 2021),2021.1.4,120.0262618
Conditions/Version_1Pr/zeroback(1)_v1.xlsx,Rule: Press 'space' when you see the letter 'x' or 'X'.,p,None,,,,,0,0,0,0,0,8,8,8,,,,,,,,,,,,,,,,,,,,,,,,,,,,,,,,,,,,,,,,,,,1.79,153.212929,None,155.0092628,None,space,0,155.0092628,None,155.4141636,None,0.3821751,,,,,,,,,,,,,,,,,,,,,,,,,,,,,,,P054,FENCOG,1,Pre,2022_Jun_15_1114,N-Back (New Version 2021),2021.1.4,120.0262618
Conditions/Version_1Pr/zeroback(1)_v1.xlsx,Rule: Press 'space' when you see the letter 'x' or 'X'.,r,None,,,,,0,0,0,0,0,9,9,9,,,,,,,,,,,,,,,,,,,,,,,,,,,,,,,,,,,,,,,,,,,1.49,156.9199881,None,158.4159956,None,None,1,158.4159956,None,160.4183329,None,,,,,,,,,,,,,,,,,,,,,,,,,,,,,,,,P054,FENCOG,1,Pre,2022_Jun_15_1114,N-Back (New Version 2021),2021.1.4,120.0262618
Conditions/Version_1Pr/zeroback(1)_v1.xlsx,Rule: Press 'space' when you see the letter 'x' or 'X'.,,,,,,,0,0,0,0,,,,,,,,,,,,,,,,,,,,,,,,,,,,,,,,,,,,,,,,,,,,,,,,,,,,,,,,,,,,,,,,,,,,,,,,,,,,,,,,,,,,,,,,,P054,FENCOG,1,Pre,2022_Jun_15_1114,N-Back (New Version 2021),2021.1.4,120.0262618
Conditions/Version_1Pr/oneback(1)_v1.xlsx,New rule: Press 'space' when you see 1-back (i.e. the same letter as the one that appeared 1 letter ago.),a,None,,,,,0,1,1,1,0,0,0,0,,,,,,,,,,,,,,,,,,,,,,,,,,,,,,,,,161.9578903,None,164.9460918,None,space,1.4530194,164.9460918,None,161.9578903,None,1.815,166.4260586,None,168.2542932,None,None,1,168.2542932,None,170.250851,None,,,,,,,,,,,,,,,,,,,,,,,,,,,,,,,,P054,FENCOG,1,Pre,2022_Jun_15_1114,N-Back (New Version 2021),2021.1.4,120.0262618
Conditions/Version_1Pr/oneback(1)_v1.xlsx,New rule: Press 'space' when you see 1-back (i.e. the same letter as the one that appeared 1 letter ago.),x,None,,,,,0,1,1,1,0,1,1,1,,,,,,,,,,,,,,,,,,,,,,,,,,,,,,,,,,,,,,,,,,,1.59,171.7553769,None,173.3521526,None,None,1,173.3521526,None,175.3532098,None,,,,,,,,,,,,,,,,,,,,,,,,,,,,,,,,P054,FENCOG,1,Pre,2022_Jun_15_1114,N-Back (New Version 2021),2021.1.4,120.0262618
Conditions/Version_1Pr/oneback(1)_v1.xlsx,New rule: Press 'space' when you see 1-back (i.e. the same letter as the one that appeared 1 letter ago.),g,None,,,,,0,1,1,1,0,2,2,2,,,,,,,,,,,,,,,,,,,,,,,,,,,,,,,,,,,,,,,,,,,1.44,176.8538273,None,178.302263,None,None,1,178.302263,None,180.3008405,None,,,,,,,,,,,,,,,,,,,,,,,,,,,,,,,,P054,FENCOG,1,Pre,2022_Jun_15_1114,N-Back (New Version 2021),2021.1.4,120.0262618
Conditions/Version_1Pr/oneback(1)_v1.xlsx,New rule: Press 'space' when you see 1-back (i.e. the same letter as the one that appeared 1 letter ago.),G,space,,,,,0,1,1,1,0,3,3,3,,,,,,,,,,,,,,,,,,,,,,,,,,,,,,,,,,,,,,,,,,,1.14,181.8023349,None,182.9519094,None,space,1,182.9519094,None,183.3230952,None,0.3513841,,,,,,,,,,,,,,,,,,,,,,,,,,,,,,,P054,FENCOG,1,Pre,2022_Jun_15_1114,N-Back (New Version 2021),2021.1.4,120.0262618
Conditions/Version_1Pr/oneback(1)_v1.xlsx,New rule: Press 'space' when you see 1-back (i.e. the same letter as the one that appeared 1 letter ago.),u,None,,,,,0,1,1,1,0,4,4,4,,,,,,,,,,,,,,,,,,,,,,,,,,,,,,,,,,,,,,,,,,,1.99,184.827947,None,186.8284048,None,None,1,186.8284048,None,188.8281295,None,,,,,,,,,,,,,,,,,,,,,,,,,,,,,,,,P054,FENCOG,1,Pre,2022_Jun_15_1114,N-Back (New Version 2021),2021.1.4,120.0262618
Conditions/Version_1Pr/oneback(1)_v1.xlsx,New rule: Press 'space' when you see 1-back (i.e. the same letter as the one that appeared 1 letter ago.),y,None,,,,,0,1,1,1,0,5,5,5,,,,,,,,,,,,,,,,,,,,,,,,,,,,,,,,,,,,,,,,,,,1.39,190.325221,None,191.7217346,None,None,1,191.7217346,None,193.7239788,None,,,,,,,,,,,,,,,,,,,,,,,,,,,,,,,,P054,FENCOG,1,Pre,2022_Jun_15_1114,N-Back (New Version 2021),2021.1.4,120.0262618
Conditions/Version_1Pr/oneback(1)_v1.xlsx,New rule: Press 'space' when you see 1-back (i.e. the same letter as the one that appeared 1 letter ago.),y,space,,,,,0,1,1,1,0,6,6,6,,,,,,,,,,,,,,,,,,,,,,,,,,,,,,,,,,,,,,,,,,,1.265,195.223397,None,196.4903419,None,space,1,196.4903419,None,196.8345624,None,0.3329848,,,,,,,,,,,,,,,,,,,,,,,,,,,,,,,P054,FENCOG,1,Pre,2022_Jun_15_1114,N-Back (New Version 2021),2021.1.4,120.0262618
Conditions/Version_1Pr/oneback(1)_v1.xlsx,New rule: Press 'space' when you see 1-back (i.e. the same letter as the one that appeared 1 letter ago.),k,None,,,,,0,1,1,1,0,7,7,7,,,,,,,,,,,,,,,,,,,,,,,,,,,,,,,,,,,,,,,,,,,1.965,198.3399293,None,200.3139773,None,None,1,200.3139773,None,202.3101127,None,,,,,,,,,,,,,,,,,,,,,,,,,,,,,,,,P054,FENCOG,1,Pre,2022_Jun_15_1114,N-Back (New Version 2021),2021.1.4,120.0262618
Conditions/Version_1Pr/oneback(1)_v1.xlsx,New rule: Press 'space' when you see 1-back (i.e. the same letter as the one that appeared 1 letter ago.),c,None,,,,,0,1,1,1,0,8,8,8,,,,,,,,,,,,,,,,,,,,,,,,,,,,,,,,,,,,,,,,,,,1.365,203.8125353,None,205.1866988,None,None,1,205.1866988,None,207.1920871,None,,,,,,,,,,,,,,,,,,,,,,,,,,,,,,,,P054,FENCOG,1,Pre,2022_Jun_15_1114,N-Back (New Version 2021),2021.1.4,120.0262618
Conditions/Version_1Pr/oneback(1)_v1.xlsx,New rule: Press 'space' when you see 1-back (i.e. the same letter as the one that appeared 1 letter ago.),r,None,,,,,0,1,1,1,0,9,9,9,,,,,,,,,,,,,,,,,,,,,,,,,,,,,,,,,,,,,,,,,,,1.79,208.6864705,None,210.4793852,None,None,1,210.4793852,None,212.4891133,None,,,,,,,,,,,,,,,,,,,,,,,,,,,,,,,,P054,FENCOG,1,Pre,2022_Jun_15_1114,N-Back (New Version 2021),2021.1.4,120.0262618
Conditions/Version_1Pr/oneback(1)_v1.xlsx,New rule: Press 'space' when you see 1-back (i.e. the same letter as the one that appeared 1 letter ago.),,,,,,,0,1,1,1,,,,,,,,,,,,,,,,,,,,,,,,,,,,,,,,,,,,,,,,,,,,,,,,,,,,,,,,,,,,,,,,,,,,,,,,,,,,,,,,,,,,,,,,,P054,FENCOG,1,Pre,2022_Jun_15_1114,N-Back (New Version 2021),2021.1.4,120.0262618
Conditions/Version_1Pr/twoback(1)_v1.xlsx,New rule: Press 'space' when you see 2-back (i.e. the same letter as the one that appeared 2 letters ago.),E,None,,,,,0,2,2,2,0,0,0,0,,,,,,,,,,,,,,,,,,,,,,,,,,,,,,,,,214.0242526,None,217.0053009,None,space,1.1696289,217.0053009,None,214.0242526,None,1.115,218.2114523,None,219.3412872,None,None,1,219.3412872,None,221.3408585,None,,,,,,,,,,,,,,,,,,,,,,,,,,,,,,,,P054,FENCOG,1,Pre,2022_Jun_15_1114,N-Back (New Version 2021),2021.1.4,120.0262618
Conditions/Version_1Pr/twoback(1)_v1.xlsx,New rule: Press 'space' when you see 2-back (i.e. the same letter as the one that appeared 2 letters ago.),p,None,,,,,0,2,2,2,0,1,1,1,,,,,,,,,,,,,,,,,,,,,,,,,,,,,,,,,,,,,,,,,,,1.99,222.8404847,None,224.8364805,None,None,1,224.8364805,None,226.8384695,None,,,,,,,,,,,,,,,,,,,,,,,,,,,,,,,,P054,FENCOG,1,Pre,2022_Jun_15_1114,N-Back (New Version 2021),2021.1.4,120.0262618
Conditions/Version_1Pr/twoback(1)_v1.xlsx,New rule: Press 'space' when you see 2-back (i.e. the same letter as the one that appeared 2 letters ago.),e,space,,,,,0,2,2,2,0,2,2,2,,,,,,,,,,,,,,,,,,,,,,,,,,,,,,,,,,,,,,,,,,,1.965,228.3390234,None,230.3100899,None,space,1,230.3100899,None,230.6498472,None,0.3291227,,,,,,,,,,,,,,,,,,,,,,,,,,,,,,,P054,FENCOG,1,Pre,2022_Jun_15_1114,N-Back (New Version 2021),2021.1.4,120.0262618
Conditions/Version_1Pr/twoback(1)_v1.xlsx,New rule: Press 'space' when you see 2-back (i.e. the same letter as the one that appeared 2 letters ago.),s,None,,,,,0,2,2,2,0,3,3,3,,,,,,,,,,,,,,,,,,,,,,,,,,,,,,,,,,,,,,,,,,,1.615,232.155398,None,233.780362,None,None,1,233.780362,None,235.7810733,None,,,,,,,,,,,,,,,,,,,,,,,,,,,,,,,,P054,FENCOG,1,Pre,2022_Jun_15_1114,N-Back (New Version 2021),2021.1.4,120.0262618
Conditions/Version_1Pr/twoback(1)_v1.xlsx,New rule: Press 'space' when you see 2-back (i.e. the same letter as the one that appeared 2 letters ago.),S,None,,,,,0,2,2,2,0,4,4,4,,,,,,,,,,,,,,,,,,,,,,,,,,,,,,,,,,,,,,,,,,,1.715,237.2784365,None,239.0048168,None,space,0,239.0048168,None,239.4830524,None,0.450543,,,,,,,,,,,,,,,,,,,,,,,,,,,,,,,P054,FENCOG,1,Pre,2022_Jun_15_1114,N-Back (New Version 2021),2021.1.4,120.0262618
Conditions/Version_1Pr/twoback(1)_v1.xlsx,New rule: Press 'space' when you see 2-back (i.e. the same letter as the one that appeared 2 letters ago.),s,space,,,,,0,2,2,2,0,5,5,5,,,,,,,,,,,,,,,,,,,,,,,,,,,,,,,,,,,,,,,,,,,1.415,240.986209,None,242.405036,None,space,1,242.405036,None,243.1432047,None,0.7147243,,,,,,,,,,,,,,,,,,,,,,,,,,,,,,,P054,FENCOG,1,Pre,2022_Jun_15_1114,N-Back (New Version 2021),2021.1.4,120.0262618
Conditions/Version_1Pr/twoback(1)_v1.xlsx,New rule: Press 'space' when you see 2-back (i.e. the same letter as the one that appeared 2 letters ago.),P,None,,,,,0,2,2,2,0,6,6,6,,,,,,,,,,,,,,,,,,,,,,,,,,,,,,,,,,,,,,,,,,,1.49,244.6502073,None,246.1485676,None,None,1,246.1485676,None,248.1516511,None,,,,,,,,,,,,,,,,,,,,,,,,,,,,,,,,P054,FENCOG,1,Pre,2022_Jun_15_1114,N-Back (New Version 2021),2021.1.4,120.0262618
Conditions/Version_1Pr/twoback(1)_v1.xlsx,New rule: Press 'space' when you see 2-back (i.e. the same letter as the one that appeared 2 letters ago.),C,None,,,,,0,2,2,2,0,7,7,7,,,,,,,,,,,,,,,,,,,,,,,,,,,,,,,,,,,,,,,,,,,1.515,249.649004,None,251.1705273,None,None,1,251.1705273,None,253.1730137,None,,,,,,,,,,,,,,,,,,,,,,,,,,,,,,,,P054,FENCOG,1,Pre,2022_Jun_15_1114,N-Back (New Version 2021),2021.1.4,120.0262618
Conditions/Version_1Pr/twoback(1)_v1.xlsx,New rule: Press 'space' when you see 2-back (i.e. the same letter as the one that appeared 2 letters ago.),x,None,,,,,0,2,2,2,0,8,8,8,,,,,,,,,,,,,,,,,,,,,,,,,,,,,,,,,,,,,,,,,,,1.265,254.6732855,None,255.9458849,None,None,1,255.9458849,None,257.9511249,None,,,,,,,,,,,,,,,,,,,,,,,,,,,,,,,,P054,FENCOG,1,Pre,2022_Jun_15_1114,N-Back (New Version 2021),2021.1.4,120.0262618
Conditions/Version_1Pr/twoback(1)_v1.xlsx,New rule: Press 'space' when you see 2-back (i.e. the same letter as the one that appeared 2 letters ago.),Z,None,,,,,0,2,2,2,0,9,9,9,,,,,,,,,,,,,,,,,,,,,,,,,,,,,,,,,,,,,,,,,,,1.79,259.4462623,None,261.2433119,None,None,1,261.2433119,None,263.241743,None,,,,,,,,,,,,,,,,,,,,,,,,,,,,,,,,P054,FENCOG,1,Pre,2022_Jun_15_1114,N-Back (New Version 2021),2021.1.4,120.0262618
Conditions/Version_1Pr/twoback(1)_v1.xlsx,New rule: Press 'space' when you see 2-back (i.e. the same letter as the one that appeared 2 letters ago.),,,,,,,0,2,2,2,,,,,,,,,,,,,,,,,,,,,,,,,,,,,,,,,,,,,,,,,,,,,,,,,,,,,,,,,,,,,,,,,,,,,,,,,,,,,,,,,,,,,,,,,P054,FENCOG,1,Pre,2022_Jun_15_1114,N-Back (New Version 2021),2021.1.4,120.0262618
Conditions/Version_1Pr/threeback(1)_v1.xlsx,New rule: Press 'space' when you see 3-back (i.e. the same letter as the one that appeared 3 letters ago.),r,None,,,,,0,3,3,3,0,0,0,0,,,,,,,,,,,,,,,,,,,,,,,,,,,,,,,,,264.7840254,None,267.7664571,None,space,36.7686804,267.7664571,None,264.7840254,None,1.39,304.5681763,None,305.9629623,None,None,1,305.9629623,None,307.9633809,None,,,,,,,,,,,,,,,,,,,,,,,,,,,,,,,,P054,FENCOG,1,Pre,2022_Jun_15_1114,N-Back (New Version 2021),2021.1.4,120.0262618
Conditions/Version_1Pr/threeback(1)_v1.xlsx,New rule: Press 'space' when you see 3-back (i.e. the same letter as the one that appeared 3 letters ago.),a,None,,,,,0,3,3,3,0,1,1,1,,,,,,,,,,,,,,,,,,,,,,,,,,,,,,,,,,,,,,,,,,,1.765,309.4646659,None,311.234469,None,None,1,311.234469,None,313.2390752,None,,,,,,,,,,,,,,,,,,,,,,,,,,,,,,,,P054,FENCOG,1,Pre,2022_Jun_15_1114,N-Back (New Version 2021),2021.1.4,120.0262618
Conditions/Version_1Pr/threeback(1)_v1.xlsx,New rule: Press 'space' when you see 3-back (i.e. the same letter as the one that appeared 3 letters ago.),t,None,,,,,0,3,3,3,0,2,2,2,,,,,,,,,,,,,,,,,,,,,,,,,,,,,,,,,,,,,,,,,,,1.74,314.7381436,None,316.4838309,None,None,1,316.4838309,None,318.4857336,None,,,,,,,,,,,,,,,,,,,,,,,,,,,,,,,,P054,FENCOG,1,Pre,2022_Jun_15_1114,N-Back (New Version 2021),2021.1.4,120.0262618
Conditions/Version_1Pr/threeback(1)_v1.xlsx,New rule: Press 'space' when you see 3-back (i.e. the same letter as the one that appeared 3 letters ago.),r,space,,,,,0,3,3,3,0,3,3,3,,,,,,,,,,,,,,,,,,,,,,,,,,,,,,,,,,,,,,,,,,,1.815,319.9878643,None,321.8079061,None,space,1,321.8079061,None,322.1770835,None,0.3513864,,,,,,,,,,,,,,,,,,,,,,,,,,,,,,,P054,FENCOG,1,Pre,2022_Jun_15_1114,N-Back (New Version 2021),2021.1.4,120.0262618
Conditions/Version_1Pr/threeback(1)_v1.xlsx,New rule: Press 'space' when you see 3-back (i.e. the same letter as the one that appeared 3 letters ago.),a,None,,,,,0,3,3,3,0,4,4,4,,,,,,,,,,,,,,,,,,,,,,,,,,,,,,,,,,,,,,,,,,,1.515,323.6787803,None,325.1974036,None,space,0,325.1974036,None,325.6185624,None,0.4019416,,,,,,,,,,,,,,,,,,,,,,,,,,,,,,,P054,FENCOG,1,Pre,2022_Jun_15_1114,N-Back (New Version 2021),2021.1.4,120.0262618
Conditions/Version_1Pr/threeback(1)_v1.xlsx,New rule: Press 'space' when you see 3-back (i.e. the same letter as the one that appeared 3 letters ago.),Y,None,,,,,0,3,3,3,0,5,5,5,,,,,,,,,,,,,,,,,,,,,,,,,,,,,,,,,,,,,,,,,,,1.69,327.1197921,None,328.8156775,None,None,1,328.8156775,None,330.8283847,None,,,,,,,,,,,,,,,,,,,,,,,,,,,,,,,,P054,FENCOG,1,Pre,2022_Jun_15_1114,N-Back (New Version 2021),2021.1.4,120.0262618
Conditions/Version_1Pr/threeback(1)_v1.xlsx,New rule: Press 'space' when you see 3-back (i.e. the same letter as the one that appeared 3 letters ago.),q,None,,,,,0,3,3,3,0,6,6,6,,,,,,,,,,,,,,,,,,,,,,,,,,,,,,,,,,,,,,,,,,,1.665,332.3168835,None,333.9907557,None,None,1,333.9907557,None,335.9902218,None,,,,,,,,,,,,,,,,,,,,,,,,,,,,,,,,P054,FENCOG,1,Pre,2022_Jun_15_1114,N-Back (New Version 2021),2021.1.4,120.0262618
Conditions/Version_1Pr/threeback(1)_v1.xlsx,New rule: Press 'space' when you see 3-back (i.e. the same letter as the one that appeared 3 letters ago.),A,space,,,,,0,3,3,3,0,7,7,7,,,,,,,,,,,,,,,,,,,,,,,,,,,,,,,,,,,,,,,,,,,1.865,337.4895553,None,339.3703545,None,space,1,339.3703545,None,339.7315476,None,0.348981,,,,,,,,,,,,,,,,,,,,,,,,,,,,,,,P054,FENCOG,1,Pre,2022_Jun_15_1114,N-Back (New Version 2021),2021.1.4,120.0262618
Conditions/Version_1Pr/threeback(1)_v1.xlsx,New rule: Press 'space' when you see 3-back (i.e. the same letter as the one that appeared 3 letters ago.),y,None,,,,,0,3,3,3,0,8,8,8,,,,,,,,,,,,,,,,,,,,,,,,,,,,,,,,,,,,,,,,,,,1.415,341.2423933,None,342.6689126,None,space,0,342.6689126,None,343.6811638,None,0.9864324,,,,,,,,,,,,,,,,,,,,,,,,,,,,,,,P054,FENCOG,1,Pre,2022_Jun_15_1114,N-Back (New Version 2021),2021.1.4,120.0262618
Conditions/Version_1Pr/threeback(1)_v1.xlsx,New rule: Press 'space' when you see 3-back (i.e. the same letter as the one that appeared 3 letters ago.),r,None,,,,,0,3,3,3,0,9,9,9,,,,,,,,,,,,,,,,,,,,,,,,,,,,,,,,,,,,,,,,,,,1.465,345.1887404,None,346.657948,None,None,1,346.657948,None,348.6658876,None,,,,,,,,,,,,,,,,,,,,,,,,,,,,,,,,P054,FENCOG,1,Pre,2022_Jun_15_1114,N-Back (New Version 2021),2021.1.4,120.0262618
Conditions/Version_1Pr/threeback(1)_v1.xlsx,New rule: Press 'space' when you see 3-back (i.e. the same letter as the one that appeared 3 letters ago.),,,,,,,0,3,3,3,,,,,,,,,,,,,,,,,,,,,,,,,,,,,,,,,,,,,,,,,,,,,,,,,,,,,,,,,,,,,,,,,,,,,,,,,,,,,,,,,,,,,,,,,P054,FENCOG,1,Pre,2022_Jun_15_1114,N-Back (New Version 2021),2021.1.4,120.0262618
,,,,,,,,,,,,,,,,,,,,,,,,,,,,,,,,,,,,,,,,,,,,,,,,,,,,,,,,,,,,,,,,,,,,,,350.1756219,None,space,2.5137817,350.6694482,None,,,,,,,,,,,,,,,,,,,,,,,,,P054,FENCOG,1,Pre,2022_Jun_15_1114,N-Back (New Version 2021),2021.1.4,120.0262618
,,,,,,,,,,,,,,,,,,,,,,,,,,,,,,,,,,,,,,,,,,,,,,,,,,,,,,,,,,,,,,,,,,,,,,,,,,,,353.2223876,None,space,2.6885054,353.7105395,None,,,,,,,,,,,,,,,,,,,P054,FENCOG,1,Pre,2022_Jun_15_1114,N-Back (New Version 2021),2021.1.4,120.0262618
,,,,Conditions/Version_1/zeroback(1)_v1.xlsx,Rule: Press 'space' when you see the letter 'x' or 'X'.,b,None,,,,,,,,,0,0,0,0,0,0,0,0,,,,,,,,,,,,,,,,,,,,,,,,,,,,,,,,,,,,,,,,,,,,,,,,,,,,,,,,,,,356.5521739,None,359.5476503,None,space,1.0193354,359.5476503,None,356.5521739,None,1.475,362.0913881,None,None,1,362.0913881,None,,P054,FENCOG,1,Pre,2022_Jun_15_1114,N-Back (New Version 2021),2021.1.4,120.0262618
,,,,Conditions/Version_1/zeroback(1)_v1.xlsx,Rule: Press 'space' when you see the letter 'x' or 'X'.,T,None,,,,,,,,,0,0,0,0,0,1,1,1,,,,,,,,,,,,,,,,,,,,,,,,,,,,,,,,,,,,,,,,,,,,,,,,,,,,,,,,,,,,,,,,,,,,,1.1774,365.2778837,None,None,1,365.2778837,None,,P054,FENCOG,1,Pre,2022_Jun_15_1114,N-Back (New Version 2021),2021.1.4,120.0262618
,,,,Conditions/Version_1/zeroback(1)_v1.xlsx,Rule: Press 'space' when you see the letter 'x' or 'X'.,L,None,,,,,,,,,0,0,0,0,0,2,2,2,,,,,,,,,,,,,,,,,,,,,,,,,,,,,,,,,,,,,,,,,,,,,,,,,,,,,,,,,,,,,,,,,,,,,1.5246,368.8117271,None,None,1,368.8117271,None,,P054,FENCOG,1,Pre,2022_Jun_15_1114,N-Back (New Version 2021),2021.1.4,120.0262618
,,,,Conditions/Version_1/zeroback(1)_v1.xlsx,Rule: Press 'space' when you see the letter 'x' or 'X'.,x,space,,,,,,,,,0,0,0,0,0,3,3,3,,,,,,,,,,,,,,,,,,,,,,,,,,,,,,,,,,,,,,,,,,,,,,,,,,,,,,,,,,,,,,,,,,,,,1.2084,372.0168179,None,space,1,372.0168179,None,1.598387,P054,FENCOG,1,Pre,2022_Jun_15_1114,N-Back (New Version 2021),2021.1.4,120.0262618
,,,,Conditions/Version_1/zeroback(1)_v1.xlsx,Rule: Press 'space' when you see the letter 'x' or 'X'.,o,None,,,,,,,,,0,0,0,0,0,4,4,4,,,,,,,,,,,,,,,,,,,,,,,,,,,,,,,,,,,,,,,,,,,,,,,,,,,,,,,,,,,,,,,,,,,,,1.0782,375.1014042,None,None,1,375.1014042,None,,P054,FENCOG,1,Pre,2022_Jun_15_1114,N-Back (New Version 2021),2021.1.4,120.0262618
,,,,Conditions/Version_1/zeroback(1)_v1.xlsx,Rule: Press 'space' when you see the letter 'x' or 'X'.,P,None,,,,,,,,,0,0,0,0,0,5,5,5,,,,,,,,,,,,,,,,,,,,,,,,,,,,,,,,,,,,,,,,,,,,,,,,,,,,,,,,,,,,,,,,,,,,,1.4626,378.5729829,None,None,1,378.5729829,None,,P054,FENCOG,1,Pre,2022_Jun_15_1114,N-Back (New Version 2021),2021.1.4,120.0262618
,,,,Conditions/Version_1/zeroback(1)_v1.xlsx,Rule: Press 'space' when you see the letter 'x' or 'X'.,X,space,,,,,,,,,0,0,0,0,0,6,6,6,,,,,,,,,,,,,,,,,,,,,,,,,,,,,,,,,,,,,,,,,,,,,,,,,,,,,,,,,,,,,,,,,,,,,1.4874,382.081278,None,space,1,382.081278,None,0.3258457,P054,FENCOG,1,Pre,2022_Jun_15_1114,N-Back (New Version 2021),2021.1.4,120.0262618
,,,,Conditions/Version_1/zeroback(1)_v1.xlsx,Rule: Press 'space' when you see the letter 'x' or 'X'.,n,None,,,,,,,,,0,0,0,0,0,7,7,7,,,,,,,,,,,,,,,,,,,,,,,,,,,,,,,,,,,,,,,,,,,,,,,,,,,,,,,,,,,,,,,,,,,,,1.5804,385.6811299,None,None,1,385.6811299,None,,P054,FENCOG,1,Pre,2022_Jun_15_1114,N-Back (New Version 2021),2021.1.4,120.0262618
,,,,Conditions/Version_1/zeroback(1)_v1.xlsx,Rule: Press 'space' when you see the letter 'x' or 'X'.,M,None,,,,,,,,,0,0,0,0,0,8,8,8,,,,,,,,,,,,,,,,,,,,,,,,,,,,,,,,,,,,,,,,,,,,,,,,,,,,,,,,,,,,,,,,,,,,,1.1526,388.8485321,None,None,1,388.8485321,None,,P054,FENCOG,1,Pre,2022_Jun_15_1114,N-Back (New Version 2021),2021.1.4,120.0262618
,,,,Conditions/Version_1/zeroback(1)_v1.xlsx,Rule: Press 'space' when you see the letter 'x' or 'X'.,a,None,,,,,,,,,0,0,0,0,0,9,9,9,,,,,,,,,,,,,,,,,,,,,,,,,,,,,,,,,,,,,,,,,,,,,,,,,,,,,,,,,,,,,,,,,,,,,1.0472,391.9072929,None,None,1,391.9072929,None,,P054,FENCOG,1,Pre,2022_Jun_15_1114,N-Back (New Version 2021),2021.1.4,120.0262618
,,,,Conditions/Version_1/zeroback(1)_v1.xlsx,Rule: Press 'space' when you see the letter 'x' or 'X'.,,,,,,,,,,,0,0,0,0,,,,,,,,,,,,,,,,,,,,,,,,,,,,,,,,,,,,,,,,,,,,,,,,,,,,,,,,,,,,,,,,,,,,,,,,,,,,,,,,,P054,FENCOG,1,Pre,2022_Jun_15_1114,N-Back (New Version 2021),2021.1.4,120.0262618
,,,,Conditions/Version_1/oneback(1)_v1.xlsx,New rule: Press 'space' when you see 1-back (i.e. the same letter as the one that appeared 1 letter ago.),b,None,,,,,,,,,0,1,1,1,0,0,0,0,,,,,,,,,,,,,,,,,,,,,,,,,,,,,,,,,,,,,,,,,,,,,,,,,,,,,,,,,,,393.9426952,None,396.9273719,None,space,0.3676605,396.9273719,None,393.9426952,None,1.0844,398.4265098,None,None,1,398.4265098,None,,P054,FENCOG,1,Pre,2022_Jun_15_1114,N-Back (New Version 2021),2021.1.4,120.0262618
,,,,Conditions/Version_1/oneback(1)_v1.xlsx,New rule: Press 'space' when you see 1-back (i.e. the same letter as the one that appeared 1 letter ago.),p,None,,,,,,,,,0,1,1,1,0,1,1,1,,,,,,,,,,,,,,,,,,,,,,,,,,,,,,,,,,,,,,,,,,,,,,,,,,,,,,,,,,,,,,,,,,,,,1.3448,401.7813116,None,None,1,401.7813116,None,,P054,FENCOG,1,Pre,2022_Jun_15_1114,N-Back (New Version 2021),2021.1.4,120.0262618
,,,,Conditions/Version_1/oneback(1)_v1.xlsx,New rule: Press 'space' when you see 1-back (i.e. the same letter as the one that appeared 1 letter ago.),M,None,,,,,,,,,0,1,1,1,0,2,2,2,,,,,,,,,,,,,,,,,,,,,,,,,,,,,,,,,,,,,,,,,,,,,,,,,,,,,,,,,,,,,,,,,,,,,1.4936,405.2906959,None,None,1,405.2906959,None,,P054,FENCOG,1,Pre,2022_Jun_15_1114,N-Back (New Version 2021),2021.1.4,120.0262618
,,,,Conditions/Version_1/oneback(1)_v1.xlsx,New rule: Press 'space' when you see 1-back (i.e. the same letter as the one that appeared 1 letter ago.),M,space,,,,,,,,,0,1,1,1,0,3,3,3,,,,,,,,,,,,,,,,,,,,,,,,,,,,,,,,,,,,,,,,,,,,,,,,,,,,,,,,,,,,,,,,,,,,,1.8036,409.1028931,None,space,1,409.1028931,None,0.3680273,P054,FENCOG,1,Pre,2022_Jun_15_1114,N-Back (New Version 2021),2021.1.4,120.0262618
,,,,Conditions/Version_1/oneback(1)_v1.xlsx,New rule: Press 'space' when you see 1-back (i.e. the same letter as the one that appeared 1 letter ago.),n,None,,,,,,,,,0,1,1,1,0,4,4,4,,,,,,,,,,,,,,,,,,,,,,,,,,,,,,,,,,,,,,,,,,,,,,,,,,,,,,,,,,,,,,,,,,,,,1.4192,412.5406542,None,None,1,412.5406542,None,,P054,FENCOG,1,Pre,2022_Jun_15_1114,N-Back (New Version 2021),2021.1.4,120.0262618
,,,,Conditions/Version_1/oneback(1)_v1.xlsx,New rule: Press 'space' when you see 1-back (i.e. the same letter as the one that appeared 1 letter ago.),g,None,,,,,,,,,0,1,1,1,0,5,5,5,,,,,,,,,,,,,,,,,,,,,,,,,,,,,,,,,,,,,,,,,,,,,,,,,,,,,,,,,,,,,,,,,,,,,1.94,416.4875761,None,None,1,416.4875761,None,,P054,FENCOG,1,Pre,2022_Jun_15_1114,N-Back (New Version 2021),2021.1.4,120.0262618
,,,,Conditions/Version_1/oneback(1)_v1.xlsx,New rule: Press 'space' when you see 1-back (i.e. the same letter as the one that appeared 1 letter ago.),P,None,,,,,,,,,0,1,1,1,0,6,6,6,,,,,,,,,,,,,,,,,,,,,,,,,,,,,,,,,,,,,,,,,,,,,,,,,,,,,,,,,,,,,,,,,,,,,1.2332,419.7299898,None,None,1,419.7299898,None,,P054,FENCOG,1,Pre,2022_Jun_15_1114,N-Back (New Version 2021),2021.1.4,120.0262618
,,,,Conditions/Version_1/oneback(1)_v1.xlsx,New rule: Press 'space' when you see 1-back (i.e. the same letter as the one that appeared 1 letter ago.),o,None,,,,,,,,,0,1,1,1,0,7,7,7,,,,,,,,,,,,,,,,,,,,,,,,,,,,,,,,,,,,,,,,,,,,,,,,,,,,,,,,,,,,,,,,,,,,,1.8594,423.5931584,None,None,1,423.5931584,None,,P054,FENCOG,1,Pre,2022_Jun_15_1114,N-Back (New Version 2021),2021.1.4,120.0262618
,,,,Conditions/Version_1/oneback(1)_v1.xlsx,New rule: Press 'space' when you see 1-back (i.e. the same letter as the one that appeared 1 letter ago.),f,None,,,,,,,,,0,1,1,1,0,8,8,8,,,,,,,,,,,,,,,,,,,,,,,,,,,,,,,,,,,,,,,,,,,,,,,,,,,,,,,,,,,,,,,,,,,,,1.878,427.4883678,None,None,1,427.4883678,None,,P054,FENCOG,1,Pre,2022_Jun_15_1114,N-Back (New Version 2021),2021.1.4,120.0262618
,,,,Conditions/Version_1/oneback(1)_v1.xlsx,New rule: Press 'space' when you see 1-back (i.e. the same letter as the one that appeared 1 letter ago.),F,space,,,,,,,,,0,1,1,1,0,9,9,9,,,,,,,,,,,,,,,,,,,,,,,,,,,,,,,,,,,,,,,,,,,,,,,,,,,,,,,,,,,,,,,,,,,,,1.5618,431.0600764,None,space,1,431.0600764,None,0.3551632,P054,FENCOG,1,Pre,2022_Jun_15_1114,N-Back (New Version 2021),2021.1.4,120.0262618
,,,,Conditions/Version_1/oneback(1)_v1.xlsx,New rule: Press 'space' when you see 1-back (i.e. the same letter as the one that appeared 1 letter ago.),,,,,,,,,,,0,1,1,1,,,,,,,,,,,,,,,,,,,,,,,,,,,,,,,,,,,,,,,,,,,,,,,,,,,,,,,,,,,,,,,,,,,,,,,,,,,,,,,,,P054,FENCOG,1,Pre,2022_Jun_15_1114,N-Back (New Version 2021),2021.1.4,120.0262618
,,,,Conditions/Version_1/twoback(1)_v1.xlsx,New rule: Press 'space' when you see 2-back (i.e. the same letter as the one that appeared 2 letters ago.),b,None,,,,,,,,,0,2,2,2,0,0,0,0,,,,,,,,,,,,,,,,,,,,,,,,,,,,,,,,,,,,,,,,,,,,,,,,,,,,,,,,,,,433.0983955,None,436.0833555,None,space,3.923491,436.0833555,None,433.0983955,None,1.4564,441.5041958,None,None,1,441.5041958,None,,P054,FENCOG,1,Pre,2022_Jun_15_1114,N-Back (New Version 2021),2021.1.4,120.0262618
,,,,Conditions/Version_1/twoback(1)_v1.xlsx,New rule: Press 'space' when you see 2-back (i.e. the same letter as the one that appeared 2 letters ago.),h,None,,,,,,,,,0,2,2,2,0,1,1,1,,,,,,,,,,,,,,,,,,,,,,,,,,,,,,,,,,,,,,,,,,,,,,,,,,,,,,,,,,,,,,,,,,,,,1.9524,445.4757308,None,None,1,445.4757308,None,,P054,FENCOG,1,Pre,2022_Jun_15_1114,N-Back (New Version 2021),2021.1.4,120.0262618
,,,,Conditions/Version_1/twoback(1)_v1.xlsx,New rule: Press 'space' when you see 2-back (i.e. the same letter as the one that appeared 2 letters ago.),j,None,,,,,,,,,0,2,2,2,0,2,2,2,,,,,,,,,,,,,,,,,,,,,,,,,,,,,,,,,,,,,,,,,,,,,,,,,,,,,,,,,,,,,,,,,,,,,1.4812,448.9643526,None,None,1,448.9643526,None,,P054,FENCOG,1,Pre,2022_Jun_15_1114,N-Back (New Version 2021),2021.1.4,120.0262618
,,,,Conditions/Version_1/twoback(1)_v1.xlsx,New rule: Press 'space' when you see 2-back (i.e. the same letter as the one that appeared 2 letters ago.),H,space,,,,,,,,,0,2,2,2,0,3,3,3,,,,,,,,,,,,,,,,,,,,,,,,,,,,,,,,,,,,,,,,,,,,,,,,,,,,,,,,,,,,,,,,,,,,,1.7788,452.7542377,None,space,1,452.7542377,None,0.3409681,P054,FENCOG,1,Pre,2022_Jun_15_1114,N-Back (New Version 2021),2021.1.4,120.0262618
,,,,Conditions/Version_1/twoback(1)_v1.xlsx,New rule: Press 'space' when you see 2-back (i.e. the same letter as the one that appeared 2 letters ago.),p,None,,,,,,,,,0,2,2,2,0,4,4,4,,,,,,,,,,,,,,,,,,,,,,,,,,,,,,,,,,,,,,,,,,,,,,,,,,,,,,,,,,,,,,,,,,,,,1.9958,456.7585253,None,None,1,456.7585253,None,,P054,FENCOG,1,Pre,2022_Jun_15_1114,N-Back (New Version 2021),2021.1.4,120.0262618
,,,,Conditions/Version_1/twoback(1)_v1.xlsx,New rule: Press 'space' when you see 2-back (i.e. the same letter as the one that appeared 2 letters ago.),p,None,,,,,,,,,0,2,2,2,0,5,5,5,,,,,,,,,,,,,,,,,,,,,,,,,,,,,,,,,,,,,,,,,,,,,,,,,,,,,,,,,,,,,,,,,,,,,1.3696,460.1382132,None,None,1,460.1382132,None,,P054,FENCOG,1,Pre,2022_Jun_15_1114,N-Back (New Version 2021),2021.1.4,120.0262618
,,,,Conditions/Version_1/twoback(1)_v1.xlsx,New rule: Press 'space' when you see 2-back (i.e. the same letter as the one that appeared 2 letters ago.),w,None,,,,,,,,,0,2,2,2,0,6,6,6,,,,,,,,,,,,,,,,,,,,,,,,,,,,,,,,,,,,,,,,,,,,,,,,,,,,,,,,,,,,,,,,,,,,,1.5184,463.665494,None,None,1,463.665494,None,,P054,FENCOG,1,Pre,2022_Jun_15_1114,N-Back (New Version 2021),2021.1.4,120.0262618
,,,,Conditions/Version_1/twoback(1)_v1.xlsx,New rule: Press 'space' when you see 2-back (i.e. the same letter as the one that appeared 2 letters ago.),R,None,,,,,,,,,0,2,2,2,0,7,7,7,,,,,,,,,,,,,,,,,,,,,,,,,,,,,,,,,,,,,,,,,,,,,,,,,,,,,,,,,,,,,,,,,,,,,1.6982,467.3760332,None,None,1,467.3760332,None,,P054,FENCOG,1,Pre,2022_Jun_15_1114,N-Back (New Version 2021),2021.1.4,120.0262618
,,,,Conditions/Version_1/twoback(1)_v1.xlsx,New rule: Press 'space' when you see 2-back (i.e. the same letter as the one that appeared 2 letters ago.),a,None,,,,,,,,,0,2,2,2,0,8,8,8,,,,,,,,,,,,,,,,,,,,,,,,,,,,,,,,,,,,,,,,,,,,,,,,,,,,,,,,,,,,,,,,,,,,,1.1712,470.5643953,None,None,1,470.5643953,None,,P054,FENCOG,1,Pre,2022_Jun_15_1114,N-Back (New Version 2021),2021.1.4,120.0262618
,,,,Conditions/Version_1/twoback(1)_v1.xlsx,New rule: Press 'space' when you see 2-back (i.e. the same letter as the one that appeared 2 letters ago.),r,space,,,,,,,,,0,2,2,2,0,9,9,9,,,,,,,,,,,,,,,,,,,,,,,,,,,,,,,,,,,,,,,,,,,,,,,,,,,,,,,,,,,,,,,,,,,,,1.4626,474.0470079,None,space,1,474.0470079,None,0.3040887,P054,FENCOG,1,Pre,2022_Jun_15_1114,N-Back (New Version 2021),2021.1.4,120.0262618
,,,,Conditions/Version_1/twoback(1)_v1.xlsx,New rule: Press 'space' when you see 2-back (i.e. the same letter as the one that appeared 2 letters ago.),,,,,,,,,,,0,2,2,2,,,,,,,,,,,,,,,,,,,,,,,,,,,,,,,,,,,,,,,,,,,,,,,,,,,,,,,,,,,,,,,,,,,,,,,,,,,,,,,,,P054,FENCOG,1,Pre,2022_Jun_15_1114,N-Back (New Version 2021),2021.1.4,120.0262618
,,,,Conditions/Version_1/threeback(1)_v1.xlsx,New rule: Press 'space' when you see 3-back (i.e. the same letter as the one that appeared 3 letters ago.),r,None,,,,,,,,,0,3,3,3,0,0,0,0,,,,,,,,,,,,,,,,,,,,,,,,,,,,,,,,,,,,,,,,,,,,,,,,,,,,,,,,,,,476.0904286,None,479.0780228,None,space,2.4728469,479.0780228,None,476.0904286,None,1.8842,483.4717308,None,None,1,483.4717308,None,,P054,FENCOG,1,Pre,2022_Jun_15_1114,N-Back (New Version 2021),2021.1.4,120.0262618
,,,,Conditions/Version_1/threeback(1)_v1.xlsx,New rule: Press 'space' when you see 3-back (i.e. the same letter as the one that appeared 3 letters ago.),o,None,,,,,,,,,0,3,3,3,0,1,1,1,,,,,,,,,,,,,,,,,,,,,,,,,,,,,,,,,,,,,,,,,,,,,,,,,,,,,,,,,,,,,,,,,,,,,1.537,487.0119812,None,None,1,487.0119812,None,,P054,FENCOG,1,Pre,2022_Jun_15_1114,N-Back (New Version 2021),2021.1.4,120.0262618
,,,,Conditions/Version_1/threeback(1)_v1.xlsx,New rule: Press 'space' when you see 3-back (i.e. the same letter as the one that appeared 3 letters ago.),P,None,,,,,,,,,0,3,3,3,0,2,2,2,,,,,,,,,,,,,,,,,,,,,,,,,,,,,,,,,,,,,,,,,,,,,,,,,,,,,,,,,,,,,,,,,,,,,1.6672,490.6925314,None,None,1,490.6925314,None,,P054,FENCOG,1,Pre,2022_Jun_15_1114,N-Back (New Version 2021),2021.1.4,120.0262618
,,,,Conditions/Version_1/threeback(1)_v1.xlsx,New rule: Press 'space' when you see 3-back (i.e. the same letter as the one that appeared 3 letters ago.),R,space,,,,,,,,,0,3,3,3,0,3,3,3,,,,,,,,,,,,,,,,,,,,,,,,,,,,,,,,,,,,,,,,,,,,,,,,,,,,,,,,,,,,,,,,,,,,,1.7044,494.4094375,None,space,1,494.4094375,None,0.3421519,P054,FENCOG,1,Pre,2022_Jun_15_1114,N-Back (New Version 2021),2021.1.4,120.0262618
,,,,Conditions/Version_1/threeback(1)_v1.xlsx,New rule: Press 'space' when you see 3-back (i.e. the same letter as the one that appeared 3 letters ago.),p,None,,,,,,,,,0,3,3,3,0,4,4,4,,,,,,,,,,,,,,,,,,,,,,,,,,,,,,,,,,,,,,,,,,,,,,,,,,,,,,,,,,,,,,,,,,,,,1.971,498.3861375,None,None,1,498.3861375,None,,P054,FENCOG,1,Pre,2022_Jun_15_1114,N-Back (New Version 2021),2021.1.4,120.0262618
,,,,Conditions/Version_1/threeback(1)_v1.xlsx,New rule: Press 'space' when you see 3-back (i.e. the same letter as the one that appeared 3 letters ago.),E,None,,,,,,,,,0,3,3,3,0,5,5,5,,,,,,,,,,,,,,,,,,,,,,,,,,,,,,,,,,,,,,,,,,,,,,,,,,,,,,,,,,,,,,,,,,,,,1.8222,502.2199451,None,None,1,502.2199451,None,,P054,FENCOG,1,Pre,2022_Jun_15_1114,N-Back (New Version 2021),2021.1.4,120.0262618
,,,,Conditions/Version_1/threeback(1)_v1.xlsx,New rule: Press 'space' when you see 3-back (i.e. the same letter as the one that appeared 3 letters ago.),e,None,,,,,,,,,0,3,3,3,0,6,6,6,,,,,,,,,,,,,,,,,,,,,,,,,,,,,,,,,,,,,,,,,,,,,,,,,,,,,,,,,,,,,,,,,,,,,1.8904,506.1214946,None,None,1,506.1214946,None,,P054,FENCOG,1,Pre,2022_Jun_15_1114,N-Back (New Version 2021),2021.1.4,120.0262618
,,,,Conditions/Version_1/threeback(1)_v1.xlsx,New rule: Press 'space' when you see 3-back (i.e. the same letter as the one that appeared 3 letters ago.),m,None,,,,,,,,,0,3,3,3,0,7,7,7,,,,,,,,,,,,,,,,,,,,,,,,,,,,,,,,,,,,,,,,,,,,,,,,,,,,,,,,,,,,,,,,,,,,,1.0472,509.1797885,None,None,1,509.1797885,None,,P054,FENCOG,1,Pre,2022_Jun_15_1114,N-Back (New Version 2021),2021.1.4,120.0262618
,,,,Conditions/Version_1/threeback(1)_v1.xlsx,New rule: Press 'space' when you see 3-back (i.e. the same letter as the one that appeared 3 letters ago.),n,None,,,,,,,,,0,3,3,3,0,8,8,8,,,,,,,,,,,,,,,,,,,,,,,,,,,,,,,,,,,,,,,,,,,,,,,,,,,,,,,,,,,,,,,,,,,,,1.3076,512.4999974,None,None,1,512.4999974,None,,P054,FENCOG,1,Pre,2022_Jun_15_1114,N-Back (New Version 2021),2021.1.4,120.0262618
,,,,Conditions/Version_1/threeback(1)_v1.xlsx,New rule: Press 'space' when you see 3-back (i.e. the same letter as the one that appeared 3 letters ago.),e,space,,,,,,,,,0,3,3,3,0,9,9,9,,,,,,,,,,,,,,,,,,,,,,,,,,,,,,,,,,,,,,,,,,,,,,,,,,,,,,,,,,,,,,,,,,,,,1.3138,515.8242738,None,space,1,515.8242738,None,0.3351099,P054,FENCOG,1,Pre,2022_Jun_15_1114,N-Back (New Version 2021),2021.1.4,120.0262618
,,,,Conditions/Version_1/threeback(1)_v1.xlsx,New rule: Press 'space' when you see 3-back (i.e. the same letter as the one that appeared 3 letters ago.),,,,,,,,,,,0,3,3,3,,,,,,,,,,,,,,,,,,,,,,,,,,,,,,,,,,,,,,,,,,,,,,,,,,,,,,,,,,,,,,,,,,,,,,,,,,,,,,,,,P054,FENCOG,1,Pre,2022_Jun_15_1114,N-Back (New Version 2021),2021.1.4,120.0262618
,,,,Conditions/Version_1/oneback(2)_v1.xlsx,New rule: Press 'space' when you see 1-back (i.e. the same letter as the one that appeared 1 letter ago.),q,None,,,,,,,,,0,4,4,4,0,0,0,0,,,,,,,,,,,,,,,,,,,,,,,,,,,,,,,,,,,,,,,,,,,,,,,,,,,,,,,,,,,517.8681203,None,520.8500895,None,space,2.0767768,520.8500895,None,517.8681203,None,1.4564,524.423728,None,None,1,524.423728,None,,P054,FENCOG,1,Pre,2022_Jun_15_1114,N-Back (New Version 2021),2021.1.4,120.0262618
,,,,Conditions/Version_1/oneback(2)_v1.xlsx,New rule: Press 'space' when you see 1-back (i.e. the same letter as the one that appeared 1 letter ago.),Q,space,,,,,,,,,0,4,4,4,0,1,1,1,,,,,,,,,,,,,,,,,,,,,,,,,,,,,,,,,,,,,,,,,,,,,,,,,,,,,,,,,,,,,,,,,,,,,1.2704,527.7086675,None,space,1,527.7086675,None,0.3469307,P054,FENCOG,1,Pre,2022_Jun_15_1114,N-Back (New Version 2021),2021.1.4,120.0262618
,,,,Conditions/Version_1/oneback(2)_v1.xlsx,New rule: Press 'space' when you see 1-back (i.e. the same letter as the one that appeared 1 letter ago.),P,None,,,,,,,,,0,4,4,4,0,2,2,2,,,,,,,,,,,,,,,,,,,,,,,,,,,,,,,,,,,,,,,,,,,,,,,,,,,,,,,,,,,,,,,,,,,,,1.94,531.6613046,None,None,1,531.6613046,None,,P054,FENCOG,1,Pre,2022_Jun_15_1114,N-Back (New Version 2021),2021.1.4,120.0262618
,,,,Conditions/Version_1/oneback(2)_v1.xlsx,New rule: Press 'space' when you see 1-back (i.e. the same letter as the one that appeared 1 letter ago.),o,None,,,,,,,,,0,4,4,4,0,3,3,3,,,,,,,,,,,,,,,,,,,,,,,,,,,,,,,,,,,,,,,,,,,,,,,,,,,,,,,,,,,,,,,,,,,,,1.1092,534.781679,None,None,1,534.781679,None,,P054,FENCOG,1,Pre,2022_Jun_15_1114,N-Back (New Version 2021),2021.1.4,120.0262618
,,,,Conditions/Version_1/oneback(2)_v1.xlsx,New rule: Press 'space' when you see 1-back (i.e. the same letter as the one that appeared 1 letter ago.),m,None,,,,,,,,,0,4,4,4,0,4,4,4,,,,,,,,,,,,,,,,,,,,,,,,,,,,,,,,,,,,,,,,,,,,,,,,,,,,,,,,,,,,,,,,,,,,,1.4998,538.2884248,None,None,1,538.2884248,None,,P054,FENCOG,1,Pre,2022_Jun_15_1114,N-Back (New Version 2021),2021.1.4,120.0262618
,,,,Conditions/Version_1/oneback(2)_v1.xlsx,New rule: Press 'space' when you see 1-back (i.e. the same letter as the one that appeared 1 letter ago.),Z,None,,,,,,,,,0,4,4,4,0,5,5,5,,,,,,,,,,,,,,,,,,,,,,,,,,,,,,,,,,,,,,,,,,,,,,,,,,,,,,,,,,,,,,,,,,,,,1.9276,542.2246003,None,None,1,542.2246003,None,,P054,FENCOG,1,Pre,2022_Jun_15_1114,N-Back (New Version 2021),2021.1.4,120.0262618
,,,,Conditions/Version_1/oneback(2)_v1.xlsx,New rule: Press 'space' when you see 1-back (i.e. the same letter as the one that appeared 1 letter ago.),c,None,,,,,,,,,0,4,4,4,0,6,6,6,,,,,,,,,,,,,,,,,,,,,,,,,,,,,,,,,,,,,,,,,,,,,,,,,,,,,,,,,,,,,,,,,,,,,1.382,545.6170742,None,None,1,545.6170742,None,,P054,FENCOG,1,Pre,2022_Jun_15_1114,N-Back (New Version 2021),2021.1.4,120.0262618
,,,,Conditions/Version_1/oneback(2)_v1.xlsx,New rule: Press 'space' when you see 1-back (i.e. the same letter as the one that appeared 1 letter ago.),c,space,,,,,,,,,0,4,4,4,0,7,7,7,,,,,,,,,,,,,,,,,,,,,,,,,,,,,,,,,,,,,,,,,,,,,,,,,,,,,,,,,,,,,,,,,,,,,1.9834,549.6027436,None,space,1,549.6027436,None,0.3804895,P054,FENCOG,1,Pre,2022_Jun_15_1114,N-Back (New Version 2021),2021.1.4,120.0262618
,,,,Conditions/Version_1/oneback(2)_v1.xlsx,New rule: Press 'space' when you see 1-back (i.e. the same letter as the one that appeared 1 letter ago.),P,None,,,,,,,,,0,4,4,4,0,8,8,8,,,,,,,,,,,,,,,,,,,,,,,,,,,,,,,,,,,,,,,,,,,,,,,,,,,,,,,,,,,,,,,,,,,,,1.5494,553.1639336,None,None,1,553.1639336,None,,P054,FENCOG,1,Pre,2022_Jun_15_1114,N-Back (New Version 2021),2021.1.4,120.0262618
,,,,Conditions/Version_1/oneback(2)_v1.xlsx,New rule: Press 'space' when you see 1-back (i.e. the same letter as the one that appeared 1 letter ago.),p,space,,,,,,,,,0,4,4,4,0,9,9,9,,,,,,,,,,,,,,,,,,,,,,,,,,,,,,,,,,,,,,,,,,,,,,,,,,,,,,,,,,,,,,,,,,,,,1.351,556.5292061,None,space,1,556.5292061,None,0.3900613,P054,FENCOG,1,Pre,2022_Jun_15_1114,N-Back (New Version 2021),2021.1.4,120.0262618
,,,,Conditions/Version_1/oneback(2)_v1.xlsx,New rule: Press 'space' when you see 1-back (i.e. the same letter as the one that appeared 1 letter ago.),,,,,,,,,,,0,4,4,4,,,,,,,,,,,,,,,,,,,,,,,,,,,,,,,,,,,,,,,,,,,,,,,,,,,,,,,,,,,,,,,,,,,,,,,,,,,,,,,,,P054,FENCOG,1,Pre,2022_Jun_15_1114,N-Back (New Version 2021),2021.1.4,120.0262618
,,,,Conditions/Version_1/zeroback(2)_v1.xlsx,New rule: Press 'space' when you see the letter 'x' or 'X'.,p,None,,,,,,,,,0,5,5,5,0,0,0,0,,,,,,,,,,,,,,,,,,,,,,,,,,,,,,,,,,,,,,,,,,,,,,,,,,,,,,,,,,,558.5667946,None,561.5550772,None,space,0.275702,561.5550772,None,558.5667946,None,1.4936,563.3655472,None,None,1,563.3655472,None,,P054,FENCOG,1,Pre,2022_Jun_15_1114,N-Back (New Version 2021),2021.1.4,120.0262618
,,,,Conditions/Version_1/zeroback(2)_v1.xlsx,New rule: Press 'space' when you see the letter 'x' or 'X'.,L,None,,,,,,,,,0,5,5,5,0,1,1,1,,,,,,,,,,,,,,,,,,,,,,,,,,,,,,,,,,,,,,,,,,,,,,,,,,,,,,,,,,,,,,,,,,,,,1.1898,566.5674273,None,None,1,566.5674273,None,,P054,FENCOG,1,Pre,2022_Jun_15_1114,N-Back (New Version 2021),2021.1.4,120.0262618
,,,,Conditions/Version_1/zeroback(2)_v1.xlsx,New rule: Press 'space' when you see the letter 'x' or 'X'.,G,None,,,,,,,,,0,5,5,5,0,2,2,2,,,,,,,,,,,,,,,,,,,,,,,,,,,,,,,,,,,,,,,,,,,,,,,,,,,,,,,,,,,,,,,,,,,,,1.3324,569.9079128,None,None,1,569.9079128,None,,P054,FENCOG,1,Pre,2022_Jun_15_1114,N-Back (New Version 2021),2021.1.4,120.0262618
,,,,Conditions/Version_1/zeroback(2)_v1.xlsx,New rule: Press 'space' when you see the letter 'x' or 'X'.,y,None,,,,,,,,,0,5,5,5,0,3,3,3,,,,,,,,,,,,,,,,,,,,,,,,,,,,,,,,,,,,,,,,,,,,,,,,,,,,,,,,,,,,,,,,,,,,,1.785,573.7070291,None,None,1,573.7070291,None,,P054,FENCOG,1,Pre,2022_Jun_15_1114,N-Back (New Version 2021),2021.1.4,120.0262618
,,,,Conditions/Version_1/zeroback(2)_v1.xlsx,New rule: Press 'space' when you see the letter 'x' or 'X'.,Y,None,,,,,,,,,0,5,5,5,0,4,4,4,,,,,,,,,,,,,,,,,,,,,,,,,,,,,,,,,,,,,,,,,,,,,,,,,,,,,,,,,,,,,,,,,,,,,1.3386,577.0586796,None,None,1,577.0586796,None,,P054,FENCOG,1,Pre,2022_Jun_15_1114,N-Back (New Version 2021),2021.1.4,120.0262618
,,,,Conditions/Version_1/zeroback(2)_v1.xlsx,New rule: Press 'space' when you see the letter 'x' or 'X'.,W,None,,,,,,,,,0,5,5,5,0,5,5,5,,,,,,,,,,,,,,,,,,,,,,,,,,,,,,,,,,,,,,,,,,,,,,,,,,,,,,,,,,,,,,,,,,,,,1.3138,580.3925524,None,None,1,580.3925524,None,,P054,FENCOG,1,Pre,2022_Jun_15_1114,N-Back (New Version 2021),2021.1.4,120.0262618
,,,,Conditions/Version_1/zeroback(2)_v1.xlsx,New rule: Press 'space' when you see the letter 'x' or 'X'.,x,space,,,,,,,,,0,5,5,5,0,6,6,6,,,,,,,,,,,,,,,,,,,,,,,,,,,,,,,,,,,,,,,,,,,,,,,,,,,,,,,,,,,,,,,,,,,,,1.32,583.7126245,None,space,1,583.7126245,None,0.3263553,P054,FENCOG,1,Pre,2022_Jun_15_1114,N-Back (New Version 2021),2021.1.4,120.0262618
,,,,Conditions/Version_1/zeroback(2)_v1.xlsx,New rule: Press 'space' when you see the letter 'x' or 'X'.,X,space,,,,,,,,,0,5,5,5,0,7,7,7,,,,,,,,,,,,,,,,,,,,,,,,,,,,,,,,,,,,,,,,,,,,,,,,,,,,,,,,,,,,,,,,,,,,,1.9462,587.6719368,None,space,1,587.6719368,None,0.3591018,P054,FENCOG,1,Pre,2022_Jun_15_1114,N-Back (New Version 2021),2021.1.4,120.0262618
,,,,Conditions/Version_1/zeroback(2)_v1.xlsx,New rule: Press 'space' when you see the letter 'x' or 'X'.,p,None,,,,,,,,,0,5,5,5,0,8,8,8,,,,,,,,,,,,,,,,,,,,,,,,,,,,,,,,,,,,,,,,,,,,,,,,,,,,,,,,,,,,,,,,,,,,,1.7478,591.4275125,None,None,1,591.4275125,None,,P054,FENCOG,1,Pre,2022_Jun_15_1114,N-Back (New Version 2021),2021.1.4,120.0262618
,,,,Conditions/Version_1/zeroback(2)_v1.xlsx,New rule: Press 'space' when you see the letter 'x' or 'X'.,h,None,,,,,,,,,0,5,5,5,0,9,9,9,,,,,,,,,,,,,,,,,,,,,,,,,,,,,,,,,,,,,,,,,,,,,,,,,,,,,,,,,,,,,,,,,,,,,1.7974,595.2360712,None,None,1,595.2360712,None,,P054,FENCOG,1,Pre,2022_Jun_15_1114,N-Back (New Version 2021),2021.1.4,120.0262618
,,,,Conditions/Version_1/zeroback(2)_v1.xlsx,New rule: Press 'space' when you see the letter 'x' or 'X'.,,,,,,,,,,,0,5,5,5,,,,,,,,,,,,,,,,,,,,,,,,,,,,,,,,,,,,,,,,,,,,,,,,,,,,,,,,,,,,,,,,,,,,,,,,,,,,,,,,,P054,FENCOG,1,Pre,2022_Jun_15_1114,N-Back (New Version 2021),2021.1.4,120.0262618
,,,,Conditions/Version_1/threeback(2)_v1.xlsx,New rule: Press 'space' when you see 3-back (i.e. the same letter as the one that appeared 3 letters ago.),q,None,,,,,,,,,0,6,6,6,0,0,0,0,,,,,,,,,,,,,,,,,,,,,,,,,,,,,,,,,,,,,,,,,,,,,,,,,,,,,,,,,,,597.2821051,None,600.2676415,None,space,2.3390078,600.2676415,None,597.2821051,None,1.63,604.2735398,None,None,1,604.2735398,None,,P054,FENCOG,1,Pre,2022_Jun_15_1114,N-Back (New Version 2021),2021.1.4,120.0262618
,,,,Conditions/Version_1/threeback(2)_v1.xlsx,New rule: Press 'space' when you see 3-back (i.e. the same letter as the one that appeared 3 letters ago.),Y,None,,,,,,,,,0,6,6,6,0,1,1,1,,,,,,,,,,,,,,,,,,,,,,,,,,,,,,,,,,,,,,,,,,,,,,,,,,,,,,,,,,,,,,,,,,,,,1.2704,607.5539305,None,None,1,607.5539305,None,,P054,FENCOG,1,Pre,2022_Jun_15_1114,N-Back (New Version 2021),2021.1.4,120.0262618
,,,,Conditions/Version_1/threeback(2)_v1.xlsx,New rule: Press 'space' when you see 3-back (i.e. the same letter as the one that appeared 3 letters ago.),p,None,,,,,,,,,0,6,6,6,0,2,2,2,,,,,,,,,,,,,,,,,,,,,,,,,,,,,,,,,,,,,,,,,,,,,,,,,,,,,,,,,,,,,,,,,,,,,1.2952,610.8558797,None,None,1,610.8558797,None,,P054,FENCOG,1,Pre,2022_Jun_15_1114,N-Back (New Version 2021),2021.1.4,120.0262618
,,,,Conditions/Version_1/threeback(2)_v1.xlsx,New rule: Press 'space' when you see 3-back (i.e. the same letter as the one that appeared 3 letters ago.),p,None,,,,,,,,,0,6,6,6,0,3,3,3,,,,,,,,,,,,,,,,,,,,,,,,,,,,,,,,,,,,,,,,,,,,,,,,,,,,,,,,,,,,,,,,,,,,,1.1836,614.0507746,None,None,1,614.0507746,None,,P054,FENCOG,1,Pre,2022_Jun_15_1114,N-Back (New Version 2021),2021.1.4,120.0262618
,,,,Conditions/Version_1/threeback(2)_v1.xlsx,New rule: Press 'space' when you see 3-back (i.e. the same letter as the one that appeared 3 letters ago.),y,space,,,,,,,,,0,6,6,6,0,4,4,4,,,,,,,,,,,,,,,,,,,,,,,,,,,,,,,,,,,,,,,,,,,,,,,,,,,,,,,,,,,,,,,,,,,,,1.5246,617.5883238,None,space,1,617.5883238,None,0.3638334,P054,FENCOG,1,Pre,2022_Jun_15_1114,N-Back (New Version 2021),2021.1.4,120.0262618
,,,,Conditions/Version_1/threeback(2)_v1.xlsx,New rule: Press 'space' when you see 3-back (i.e. the same letter as the one that appeared 3 letters ago.),u,None,,,,,,,,,0,6,6,6,0,5,5,5,,,,,,,,,,,,,,,,,,,,,,,,,,,,,,,,,,,,,,,,,,,,,,,,,,,,,,,,,,,,,,,,,,,,,1.0658,620.6619687,None,None,1,620.6619687,None,,P054,FENCOG,1,Pre,2022_Jun_15_1114,N-Back (New Version 2021),2021.1.4,120.0262618
,,,,Conditions/Version_1/threeback(2)_v1.xlsx,New rule: Press 'space' when you see 3-back (i.e. the same letter as the one that appeared 3 letters ago.),P,space,,,,,,,,,0,6,6,6,0,6,6,6,,,,,,,,,,,,,,,,,,,,,,,,,,,,,,,,,,,,,,,,,,,,,,,,,,,,,,,,,,,,,,,,,,,,,1.0968,623.7671001,None,None,0,623.7671001,None,,P054,FENCOG,1,Pre,2022_Jun_15_1114,N-Back (New Version 2021),2021.1.4,120.0262618
,,,,Conditions/Version_1/threeback(2)_v1.xlsx,New rule: Press 'space' when you see 3-back (i.e. the same letter as the one that appeared 3 letters ago.),a,None,,,,,,,,,0,6,6,6,0,7,7,7,,,,,,,,,,,,,,,,,,,,,,,,,,,,,,,,,,,,,,,,,,,,,,,,,,,,,,,,,,,,,,,,,,,,,1.6176,627.3910397,None,None,1,627.3910397,None,,P054,FENCOG,1,Pre,2022_Jun_15_1114,N-Back (New Version 2021),2021.1.4,120.0262618
,,,,Conditions/Version_1/threeback(2)_v1.xlsx,New rule: Press 'space' when you see 3-back (i.e. the same letter as the one that appeared 3 letters ago.),U,space,,,,,,,,,0,6,6,6,0,8,8,8,,,,,,,,,,,,,,,,,,,,,,,,,,,,,,,,,,,,,,,,,,,,,,,,,,,,,,,,,,,,,,,,,,,,,1.8966,631.3092119,None,space,1,631.3092119,None,0.3055693,P054,FENCOG,1,Pre,2022_Jun_15_1114,N-Back (New Version 2021),2021.1.4,120.0262618
,,,,Conditions/Version_1/threeback(2)_v1.xlsx,New rule: Press 'space' when you see 3-back (i.e. the same letter as the one that appeared 3 letters ago.),q,None,,,,,,,,,0,6,6,6,0,9,9,9,,,,,,,,,,,,,,,,,,,,,,,,,,,,,,,,,,,,,,,,,,,,,,,,,,,,,,,,,,,,,,,,,,,,,1.1712,634.4890823,None,None,1,634.4890823,None,,P054,FENCOG,1,Pre,2022_Jun_15_1114,N-Back (New Version 2021),2021.1.4,120.0262618
,,,,Conditions/Version_1/threeback(2)_v1.xlsx,New rule: Press 'space' when you see 3-back (i.e. the same letter as the one that appeared 3 letters ago.),,,,,,,,,,,0,6,6,6,,,,,,,,,,,,,,,,,,,,,,,,,,,,,,,,,,,,,,,,,,,,,,,,,,,,,,,,,,,,,,,,,,,,,,,,,,,,,,,,,P054,FENCOG,1,Pre,2022_Jun_15_1114,N-Back (New Version 2021),2021.1.4,120.0262618
,,,,Conditions/Version_1/twoback(2)_v1.xlsx,New rule: Press 'space' when you see 2-back (i.e. the same letter as the one that appeared 2 letters ago.),q,None,,,,,,,,,0,7,7,7,0,0,0,0,,,,,,,,,,,,,,,,,,,,,,,,,,,,,,,,,,,,,,,,,,,,,,,,,,,,,,,,,,,636.5357281,None,639.5223914,None,space,1.0442388,639.5223914,None,636.5357281,None,1.2642,641.8674381,None,None,1,641.8674381,None,,P054,FENCOG,1,Pre,2022_Jun_15_1114,N-Back (New Version 2021),2021.1.4,120.0262618
,,,,Conditions/Version_1/twoback(2)_v1.xlsx,New rule: Press 'space' when you see 2-back (i.e. the same letter as the one that appeared 2 letters ago.),r,None,,,,,,,,,0,7,7,7,0,1,1,1,,,,,,,,,,,,,,,,,,,,,,,,,,,,,,,,,,,,,,,,,,,,,,,,,,,,,,,,,,,,,,,,,,,,,1.351,645.230085,None,None,1,645.230085,None,,P054,FENCOG,1,Pre,2022_Jun_15_1114,N-Back (New Version 2021),2021.1.4,120.0262618
,,,,Conditions/Version_1/twoback(2)_v1.xlsx,New rule: Press 'space' when you see 2-back (i.e. the same letter as the one that appeared 2 letters ago.),q,space,,,,,,,,,0,7,7,7,0,2,2,2,,,,,,,,,,,,,,,,,,,,,,,,,,,,,,,,,,,,,,,,,,,,,,,,,,,,,,,,,,,,,,,,,,,,,1.3634,648.604053,None,space,1,648.604053,None,0.5387853,P054,FENCOG,1,Pre,2022_Jun_15_1114,N-Back (New Version 2021),2021.1.4,120.0262618
,,,,Conditions/Version_1/twoback(2)_v1.xlsx,New rule: Press 'space' when you see 2-back (i.e. the same letter as the one that appeared 2 letters ago.),P,None,,,,,,,,,0,7,7,7,0,3,3,3,,,,,,,,,,,,,,,,,,,,,,,,,,,,,,,,,,,,,,,,,,,,,,,,,,,,,,,,,,,,,,,,,,,,,1.4316,652.0430978,None,None,1,652.0430978,None,,P054,FENCOG,1,Pre,2022_Jun_15_1114,N-Back (New Version 2021),2021.1.4,120.0262618
,,,,Conditions/Version_1/twoback(2)_v1.xlsx,New rule: Press 'space' when you see 2-back (i.e. the same letter as the one that appeared 2 letters ago.),p,None,,,,,,,,,0,7,7,7,0,4,4,4,,,,,,,,,,,,,,,,,,,,,,,,,,,,,,,,,,,,,,,,,,,,,,,,,,,,,,,,,,,,,,,,,,,,,1.8098,655.8575028,None,None,1,655.8575028,None,,P054,FENCOG,1,Pre,2022_Jun_15_1114,N-Back (New Version 2021),2021.1.4,120.0262618
,,,,Conditions/Version_1/twoback(2)_v1.xlsx,New rule: Press 'space' when you see 2-back (i.e. the same letter as the one that appeared 2 letters ago.),H,None,,,,,,,,,0,7,7,7,0,5,5,5,,,,,,,,,,,,,,,,,,,,,,,,,,,,,,,,,,,,,,,,,,,,,,,,,,,,,,,,,,,,,,,,,,,,,1.4068,659.2700909,None,None,1,659.2700909,None,,P054,FENCOG,1,Pre,2022_Jun_15_1114,N-Back (New Version 2021),2021.1.4,120.0262618
,,,,Conditions/Version_1/twoback(2)_v1.xlsx,New rule: Press 'space' when you see 2-back (i.e. the same letter as the one that appeared 2 letters ago.),g,None,,,,,,,,,0,7,7,7,0,6,6,6,,,,,,,,,,,,,,,,,,,,,,,,,,,,,,,,,,,,,,,,,,,,,,,,,,,,,,,,,,,,,,,,,,,,,1.599,662.8812984,None,None,1,662.8812984,None,,P054,FENCOG,1,Pre,2022_Jun_15_1114,N-Back (New Version 2021),2021.1.4,120.0262618
,,,,Conditions/Version_1/twoback(2)_v1.xlsx,New rule: Press 'space' when you see 2-back (i.e. the same letter as the one that appeared 2 letters ago.),j,None,,,,,,,,,0,7,7,7,0,7,7,7,,,,,,,,,,,,,,,,,,,,,,,,,,,,,,,,,,,,,,,,,,,,,,,,,,,,,,,,,,,,,,,,,,,,,1.6672,666.5574652,None,None,1,666.5574652,None,,P054,FENCOG,1,Pre,2022_Jun_15_1114,N-Back (New Version 2021),2021.1.4,120.0262618
,,,,Conditions/Version_1/twoback(2)_v1.xlsx,New rule: Press 'space' when you see 2-back (i.e. the same letter as the one that appeared 2 letters ago.),g,space,,,,,,,,,0,7,7,7,0,8,8,8,,,,,,,,,,,,,,,,,,,,,,,,,,,,,,,,,,,,,,,,,,,,,,,,,,,,,,,,,,,,,,,,,,,,,1.9276,670.5041152,None,space,1,670.5041152,None,0.3028822,P054,FENCOG,1,Pre,2022_Jun_15_1114,N-Back (New Version 2021),2021.1.4,120.0262618
,,,,Conditions/Version_1/twoback(2)_v1.xlsx,New rule: Press 'space' when you see 2-back (i.e. the same letter as the one that appeared 2 letters ago.),G,None,,,,,,,,,0,7,7,7,0,9,9,9,,,,,,,,,,,,,,,,,,,,,,,,,,,,,,,,,,,,,,,,,,,,,,,,,,,,,,,,,,,,,,,,,,,,,1.0472,673.5631402,None,None,1,673.5631402,None,,P054,FENCOG,1,Pre,2022_Jun_15_1114,N-Back (New Version 2021),2021.1.4,120.0262618
,,,,Conditions/Version_1/twoback(2)_v1.xlsx,New rule: Press 'space' when you see 2-back (i.e. the same letter as the one that appeared 2 letters ago.),,,,,,,,,,,0,7,7,7,,,,,,,,,,,,,,,,,,,,,,,,,,,,,,,,,,,,,,,,,,,,,,,,,,,,,,,,,,,,,,,,,,,,,,,,,,,,,,,,,P054,FENCOG,1,Pre,2022_Jun_15_1114,N-Back (New Version 2021),2021.1.4,120.0262618
,,,,Conditions/Version_1/threeback(3)_v1.xlsx,New rule: Press 'space' when you see 3-back (i.e. the same letter as the one that appeared 3 letters ago.),w,None,,,,,,,,,0,8,8,8,0,0,0,0,,,,,,,,,,,,,,,,,,,,,,,,,,,,,,,,,,,,,,,,,,,,,,,,,,,,,,,,,,,675.59933,None,678.5775026,None,space,0.8371993,678.5775026,None,675.59933,None,1.3696,680.8255563,None,None,1,680.8255563,None,,P054,FENCOG,1,Pre,2022_Jun_15_1114,N-Back (New Version 2021),2021.1.4,120.0262618
,,,,Conditions/Version_1/threeback(3)_v1.xlsx,New rule: Press 'space' when you see 3-back (i.e. the same letter as the one that appeared 3 letters ago.),p,None,,,,,,,,,0,8,8,8,0,1,1,1,,,,,,,,,,,,,,,,,,,,,,,,,,,,,,,,,,,,,,,,,,,,,,,,,,,,,,,,,,,,,,,,,,,,,1.7602,684.5981545,None,None,1,684.5981545,None,,P054,FENCOG,1,Pre,2022_Jun_15_1114,N-Back (New Version 2021),2021.1.4,120.0262618
,,,,Conditions/Version_1/threeback(3)_v1.xlsx,New rule: Press 'space' when you see 3-back (i.e. the same letter as the one that appeared 3 letters ago.),P,None,,,,,,,,,0,8,8,8,0,2,2,2,,,,,,,,,,,,,,,,,,,,,,,,,,,,,,,,,,,,,,,,,,,,,,,,,,,,,,,,,,,,,,,,,,,,,1.0286,687.6330406,None,None,1,687.6330406,None,,P054,FENCOG,1,Pre,2022_Jun_15_1114,N-Back (New Version 2021),2021.1.4,120.0262618
,,,,Conditions/Version_1/threeback(3)_v1.xlsx,New rule: Press 'space' when you see 3-back (i.e. the same letter as the one that appeared 3 letters ago.),i,None,,,,,,,,,0,8,8,8,0,3,3,3,,,,,,,,,,,,,,,,,,,,,,,,,,,,,,,,,,,,,,,,,,,,,,,,,,,,,,,,,,,,,,,,,,,,,1.6734,691.3251313,None,None,1,691.3251313,None,,P054,FENCOG,1,Pre,2022_Jun_15_1114,N-Back (New Version 2021),2021.1.4,120.0262618
,,,,Conditions/Version_1/threeback(3)_v1.xlsx,New rule: Press 'space' when you see 3-back (i.e. the same letter as the one that appeared 3 letters ago.),f,None,,,,,,,,,0,8,8,8,0,4,4,4,,,,,,,,,,,,,,,,,,,,,,,,,,,,,,,,,,,,,,,,,,,,,,,,,,,,,,,,,,,,,,,,,,,,,1.5618,694.8966122,None,None,1,694.8966122,None,,P054,FENCOG,1,Pre,2022_Jun_15_1114,N-Back (New Version 2021),2021.1.4,120.0262618
,,,,Conditions/Version_1/threeback(3)_v1.xlsx,New rule: Press 'space' when you see 3-back (i.e. the same letter as the one that appeared 3 letters ago.),o,None,,,,,,,,,0,8,8,8,0,5,5,5,,,,,,,,,,,,,,,,,,,,,,,,,,,,,,,,,,,,,,,,,,,,,,,,,,,,,,,,,,,,,,,,,,,,,1.847,698.7591118,None,None,1,698.7591118,None,,P054,FENCOG,1,Pre,2022_Jun_15_1114,N-Back (New Version 2021),2021.1.4,120.0262618
,,,,Conditions/Version_1/threeback(3)_v1.xlsx,New rule: Press 'space' when you see 3-back (i.e. the same letter as the one that appeared 3 letters ago.),w,None,,,,,,,,,0,8,8,8,0,6,6,6,,,,,,,,,,,,,,,,,,,,,,,,,,,,,,,,,,,,,,,,,,,,,,,,,,,,,,,,,,,,,,,,,,,,,1.444,702.2190021,None,None,1,702.2190021,None,,P054,FENCOG,1,Pre,2022_Jun_15_1114,N-Back (New Version 2021),2021.1.4,120.0262618
,,,,Conditions/Version_1/threeback(3)_v1.xlsx,New rule: Press 'space' when you see 3-back (i.e. the same letter as the one that appeared 3 letters ago.),F,space,,,,,,,,,0,8,8,8,0,7,7,7,,,,,,,,,,,,,,,,,,,,,,,,,,,,,,,,,,,,,,,,,,,,,,,,,,,,,,,,,,,,,,,,,,,,,1.0472,705.2791605,None,space,1,705.2791605,None,0.3599271,P054,FENCOG,1,Pre,2022_Jun_15_1114,N-Back (New Version 2021),2021.1.4,120.0262618
,,,,Conditions/Version_1/threeback(3)_v1.xlsx,New rule: Press 'space' when you see 3-back (i.e. the same letter as the one that appeared 3 letters ago.),p,None,,,,,,,,,0,8,8,8,0,8,8,8,,,,,,,,,,,,,,,,,,,,,,,,,,,,,,,,,,,,,,,,,,,,,,,,,,,,,,,,,,,,,,,,,,,,,1.4254,708.7087779,None,None,1,708.7087779,None,,P054,FENCOG,1,Pre,2022_Jun_15_1114,N-Back (New Version 2021),2021.1.4,120.0262618
,,,,Conditions/Version_1/threeback(3)_v1.xlsx,New rule: Press 'space' when you see 3-back (i.e. the same letter as the one that appeared 3 letters ago.),W,space,,,,,,,,,0,8,8,8,0,9,9,9,,,,,,,,,,,,,,,,,,,,,,,,,,,,,,,,,,,,,,,,,,,,,,,,,,,,,,,,,,,,,,,,,,,,,1.7912,712.508849,None,None,0,712.508849,None,,P054,FENCOG,1,Pre,2022_Jun_15_1114,N-Back (New Version 2021),2021.1.4,120.0262618
,,,,Conditions/Version_1/threeback(3)_v1.xlsx,New rule: Press 'space' when you see 3-back (i.e. the same letter as the one that appeared 3 letters ago.),,,,,,,,,,,0,8,8,8,,,,,,,,,,,,,,,,,,,,,,,,,,,,,,,,,,,,,,,,,,,,,,,,,,,,,,,,,,,,,,,,,,,,,,,,,,,,,,,,,P054,FENCOG,1,Pre,2022_Jun_15_1114,N-Back (New Version 2021),2021.1.4,120.0262618
,,,,Conditions/Version_1/zeroback(3)_v1.xlsx,New rule: Press 'space' when you see the letter 'x' or 'X'.,X,space,,,,,,,,,0,9,9,9,0,0,0,0,,,,,,,,,,,,,,,,,,,,,,,,,,,,,,,,,,,,,,,,,,,,,,,,,,,,,,,,,,,714.5344725,None,717.5231803,None,space,0.2838236,717.5231803,None,714.5344725,None,1.5804,719.4219965,None,space,1,719.4219965,None,1.0809909,P054,FENCOG,1,Pre,2022_Jun_15_1114,N-Back (New Version 2021),2021.1.4,120.0262618
,,,,Conditions/Version_1/zeroback(3)_v1.xlsx,New rule: Press 'space' when you see the letter 'x' or 'X'.,B,None,,,,,,,,,0,9,9,9,0,1,1,1,,,,,,,,,,,,,,,,,,,,,,,,,,,,,,,,,,,,,,,,,,,,,,,,,,,,,,,,,,,,,,,,,,,,,1.3944,722.8267435,None,None,1,722.8267435,None,,P054,FENCOG,1,Pre,2022_Jun_15_1114,N-Back (New Version 2021),2021.1.4,120.0262618
,,,,Conditions/Version_1/zeroback(3)_v1.xlsx,New rule: Press 'space' when you see the letter 'x' or 'X'.,m,None,,,,,,,,,0,9,9,9,0,2,2,2,,,,,,,,,,,,,,,,,,,,,,,,,,,,,,,,,,,,,,,,,,,,,,,,,,,,,,,,,,,,,,,,,,,,,1.4936,726.3302053,None,None,1,726.3302053,None,,P054,FENCOG,1,Pre,2022_Jun_15_1114,N-Back (New Version 2021),2021.1.4,120.0262618
,,,,Conditions/Version_1/zeroback(3)_v1.xlsx,New rule: Press 'space' when you see the letter 'x' or 'X'.,m,None,,,,,,,,,0,9,9,9,0,3,3,3,,,,,,,,,,,,,,,,,,,,,,,,,,,,,,,,,,,,,,,,,,,,,,,,,,,,,,,,,,,,,,,,,,,,,1.8532,730.1900588,None,None,1,730.1900588,None,,P054,FENCOG,1,Pre,2022_Jun_15_1114,N-Back (New Version 2021),2021.1.4,120.0262618
,,,,Conditions/Version_1/zeroback(3)_v1.xlsx,New rule: Press 'space' when you see the letter 'x' or 'X'.,o,None,,,,,,,,,0,9,9,9,0,4,4,4,,,,,,,,,,,,,,,,,,,,,,,,,,,,,,,,,,,,,,,,,,,,,,,,,,,,,,,,,,,,,,,,,,,,,1.9772,734.172344,None,None,1,734.172344,None,,P054,FENCOG,1,Pre,2022_Jun_15_1114,N-Back (New Version 2021),2021.1.4,120.0262618
,,,,Conditions/Version_1/zeroback(3)_v1.xlsx,New rule: Press 'space' when you see the letter 'x' or 'X'.,p,None,,,,,,,,,0,9,9,9,0,5,5,5,,,,,,,,,,,,,,,,,,,,,,,,,,,,,,,,,,,,,,,,,,,,,,,,,,,,,,,,,,,,,,,,,,,,,1.072,737.2490391,None,None,1,737.2490391,None,,P054,FENCOG,1,Pre,2022_Jun_15_1114,N-Back (New Version 2021),2021.1.4,120.0262618
,,,,Conditions/Version_1/zeroback(3)_v1.xlsx,New rule: Press 'space' when you see the letter 'x' or 'X'.,G,None,,,,,,,,,0,9,9,9,0,6,6,6,,,,,,,,,,,,,,,,,,,,,,,,,,,,,,,,,,,,,,,,,,,,,,,,,,,,,,,,,,,,,,,,,,,,,1.3696,740.6344242,None,None,1,740.6344242,None,,P054,FENCOG,1,Pre,2022_Jun_15_1114,N-Back (New Version 2021),2021.1.4,120.0262618
,,,,Conditions/Version_1/zeroback(3)_v1.xlsx,New rule: Press 'space' when you see the letter 'x' or 'X'.,X,space,,,,,,,,,0,9,9,9,0,7,7,7,,,,,,,,,,,,,,,,,,,,,,,,,,,,,,,,,,,,,,,,,,,,,,,,,,,,,,,,,,,,,,,,,,,,,1.227,743.8737832,None,space,1,743.8737832,None,0.3967699,P054,FENCOG,1,Pre,2022_Jun_15_1114,N-Back (New Version 2021),2021.1.4,120.0262618
,,,,Conditions/Version_1/zeroback(3)_v1.xlsx,New rule: Press 'space' when you see the letter 'x' or 'X'.,p,None,,,,,,,,,0,9,9,9,0,8,8,8,,,,,,,,,,,,,,,,,,,,,,,,,,,,,,,,,,,,,,,,,,,,,,,,,,,,,,,,,,,,,,,,,,,,,1.8842,747.772554,None,None,1,747.772554,None,,P054,FENCOG,1,Pre,2022_Jun_15_1114,N-Back (New Version 2021),2021.1.4,120.0262618
,,,,Conditions/Version_1/zeroback(3)_v1.xlsx,New rule: Press 'space' when you see the letter 'x' or 'X'.,x,space,,,,,,,,,0,9,9,9,0,9,9,9,,,,,,,,,,,,,,,,,,,,,,,,,,,,,,,,,,,,,,,,,,,,,,,,,,,,,,,,,,,,,,,,,,,,,1.0844,750.8720625,None,space,1,750.8720625,None,0.2866935,P054,FENCOG,1,Pre,2022_Jun_15_1114,N-Back (New Version 2021),2021.1.4,120.0262618
,,,,Conditions/Version_1/zeroback(3)_v1.xlsx,New rule: Press 'space' when you see the letter 'x' or 'X'.,,,,,,,,,,,0,9,9,9,,,,,,,,,,,,,,,,,,,,,,,,,,,,,,,,,,,,,,,,,,,,,,,,,,,,,,,,,,,,,,,,,,,,,,,,,,,,,,,,,P054,FENCOG,1,Pre,2022_Jun_15_1114,N-Back (New Version 2021),2021.1.4,120.0262618
,,,,Conditions/Version_1/twoback(3)_v1.xlsx,New rule: Press 'space' when you see 2-back (i.e. the same letter as the one that appeared 2 letters ago.),e,None,,,,,,,,,0,10,10,10,0,0,0,0,,,,,,,,,,,,,,,,,,,,,,,,,,,,,,,,,,,,,,,,,,,,,,,,,,,,,,,,,,,752.904638,None,755.8879635,None,space,1.1424418,755.8879635,None,752.904638,None,1.444,758.5119721,None,None,1,758.5119721,None,,P054,FENCOG,1,Pre,2022_Jun_15_1114,N-Back (New Version 2021),2021.1.4,120.0262618
,,,,Conditions/Version_1/twoback(3)_v1.xlsx,New rule: Press 'space' when you see 2-back (i.e. the same letter as the one that appeared 2 letters ago.),o,None,,,,,,,,,0,10,10,10,0,1,1,1,,,,,,,,,,,,,,,,,,,,,,,,,,,,,,,,,,,,,,,,,,,,,,,,,,,,,,,,,,,,,,,,,,,,,1.8966,762.4187615,None,None,1,762.4187615,None,,P054,FENCOG,1,Pre,2022_Jun_15_1114,N-Back (New Version 2021),2021.1.4,120.0262618
,,,,Conditions/Version_1/twoback(3)_v1.xlsx,New rule: Press 'space' when you see 2-back (i.e. the same letter as the one that appeared 2 letters ago.),P,None,,,,,,,,,0,10,10,10,0,2,2,2,,,,,,,,,,,,,,,,,,,,,,,,,,,,,,,,,,,,,,,,,,,,,,,,,,,,,,,,,,,,,,,,,,,,,1.6672,766.0935548,None,None,1,766.0935548,None,,P054,FENCOG,1,Pre,2022_Jun_15_1114,N-Back (New Version 2021),2021.1.4,120.0262618
,,,,Conditions/Version_1/twoback(3)_v1.xlsx,New rule: Press 'space' when you see 2-back (i.e. the same letter as the one that appeared 2 letters ago.),z,None,,,,,,,,,0,10,10,10,0,3,3,3,,,,,,,,,,,,,,,,,,,,,,,,,,,,,,,,,,,,,,,,,,,,,,,,,,,,,,,,,,,,,,,,,,,,,1.9338,770.0379462,None,None,1,770.0379462,None,,P054,FENCOG,1,Pre,2022_Jun_15_1114,N-Back (New Version 2021),2021.1.4,120.0262618
,,,,Conditions/Version_1/twoback(3)_v1.xlsx,New rule: Press 'space' when you see 2-back (i.e. the same letter as the one that appeared 2 letters ago.),X,None,,,,,,,,,0,10,10,10,0,4,4,4,,,,,,,,,,,,,,,,,,,,,,,,,,,,,,,,,,,,,,,,,,,,,,,,,,,,,,,,,,,,,,,,,,,,,1.7416,773.7919398,None,None,1,773.7919398,None,,P054,FENCOG,1,Pre,2022_Jun_15_1114,N-Back (New Version 2021),2021.1.4,120.0262618
,,,,Conditions/Version_1/twoback(3)_v1.xlsx,New rule: Press 'space' when you see 2-back (i.e. the same letter as the one that appeared 2 letters ago.),z,space,,,,,,,,,0,10,10,10,0,5,5,5,,,,,,,,,,,,,,,,,,,,,,,,,,,,,,,,,,,,,,,,,,,,,,,,,,,,,,,,,,,,,,,,,,,,,1.909,777.7136139,None,space,1,777.7136139,None,0.3335535,P054,FENCOG,1,Pre,2022_Jun_15_1114,N-Back (New Version 2021),2021.1.4,120.0262618
,,,,Conditions/Version_1/twoback(3)_v1.xlsx,New rule: Press 'space' when you see 2-back (i.e. the same letter as the one that appeared 2 letters ago.),x,space,,,,,,,,,0,10,10,10,0,6,6,6,,,,,,,,,,,,,,,,,,,,,,,,,,,,,,,,,,,,,,,,,,,,,,,,,,,,,,,,,,,,,,,,,,,,,1.2332,780.9515774,None,space,1,780.9515774,None,0.303278,P054,FENCOG,1,Pre,2022_Jun_15_1114,N-Back (New Version 2021),2021.1.4,120.0262618
,,,,Conditions/Version_1/twoback(3)_v1.xlsx,New rule: Press 'space' when you see 2-back (i.e. the same letter as the one that appeared 2 letters ago.),c,None,,,,,,,,,0,10,10,10,0,7,7,7,,,,,,,,,,,,,,,,,,,,,,,,,,,,,,,,,,,,,,,,,,,,,,,,,,,,,,,,,,,,,,,,,,,,,1.289,784.2490389,None,None,1,784.2490389,None,,P054,FENCOG,1,Pre,2022_Jun_15_1114,N-Back (New Version 2021),2021.1.4,120.0262618
,,,,Conditions/Version_1/twoback(3)_v1.xlsx,New rule: Press 'space' when you see 2-back (i.e. the same letter as the one that appeared 2 letters ago.),i,None,,,,,,,,,0,10,10,10,0,8,8,8,,,,,,,,,,,,,,,,,,,,,,,,,,,,,,,,,,,,,,,,,,,,,,,,,,,,,,,,,,,,,,,,,,,,,1.1898,787.4530761,None,None,1,787.4530761,None,,P054,FENCOG,1,Pre,2022_Jun_15_1114,N-Back (New Version 2021),2021.1.4,120.0262618
,,,,Conditions/Version_1/twoback(3)_v1.xlsx,New rule: Press 'space' when you see 2-back (i.e. the same letter as the one that appeared 2 letters ago.),C,space,,,,,,,,,0,10,10,10,0,9,9,9,,,,,,,,,,,,,,,,,,,,,,,,,,,,,,,,,,,,,,,,,,,,,,,,,,,,,,,,,,,,,,,,,,,,,1.1836,790.6395509,None,space,1,790.6395509,None,0.3429538,P054,FENCOG,1,Pre,2022_Jun_15_1114,N-Back (New Version 2021),2021.1.4,120.0262618
,,,,Conditions/Version_1/twoback(3)_v1.xlsx,New rule: Press 'space' when you see 2-back (i.e. the same letter as the one that appeared 2 letters ago.),,,,,,,,,,,0,10,10,10,,,,,,,,,,,,,,,,,,,,,,,,,,,,,,,,,,,,,,,,,,,,,,,,,,,,,,,,,,,,,,,,,,,,,,,,,,,,,,,,,P054,FENCOG,1,Pre,2022_Jun_15_1114,N-Back (New Version 2021),2021.1.4,120.0262618
,,,,Conditions/Version_1/oneback(3)_v1.xlsx,New rule: Press 'space' when you see 1-back (i.e. the same letter as the one that appeared 1 letter ago.),o,None,,,,,,,,,0,11,11,11,0,0,0,0,,,,,,,,,,,,,,,,,,,,,,,,,,,,,,,,,,,,,,,,,,,,,,,,,,,,,,,,,,,792.6837476,None,795.667114,None,space,0.5554962,795.667114,None,792.6837476,None,1.1712,797.4327934,None,None,1,797.4327934,None,,P054,FENCOG,1,Pre,2022_Jun_15_1114,N-Back (New Version 2021),2021.1.4,120.0262618
,,,,Conditions/Version_1/oneback(3)_v1.xlsx,New rule: Press 'space' when you see 1-back (i.e. the same letter as the one that appeared 1 letter ago.),O,space,,,,,,,,,0,11,11,11,0,1,1,1,,,,,,,,,,,,,,,,,,,,,,,,,,,,,,,,,,,,,,,,,,,,,,,,,,,,,,,,,,,,,,,,,,,,,1.6796,801.1300445,None,space,1,801.1300445,None,0.3329244,P054,FENCOG,1,Pre,2022_Jun_15_1114,N-Back (New Version 2021),2021.1.4,120.0262618
,,,,Conditions/Version_1/oneback(3)_v1.xlsx,New rule: Press 'space' when you see 1-back (i.e. the same letter as the one that appeared 1 letter ago.),h,None,,,,,,,,,0,11,11,11,0,2,2,2,,,,,,,,,,,,,,,,,,,,,,,,,,,,,,,,,,,,,,,,,,,,,,,,,,,,,,,,,,,,,,,,,,,,,1.878,805.0107133,None,None,1,805.0107133,None,,P054,FENCOG,1,Pre,2022_Jun_15_1114,N-Back (New Version 2021),2021.1.4,120.0262618
,,,,Conditions/Version_1/oneback(3)_v1.xlsx,New rule: Press 'space' when you see 1-back (i.e. the same letter as the one that appeared 1 letter ago.),g,None,,,,,,,,,0,11,11,11,0,3,3,3,,,,,,,,,,,,,,,,,,,,,,,,,,,,,,,,,,,,,,,,,,,,,,,,,,,,,,,,,,,,,,,,,,,,,1.1154,808.1402939,None,space,0,808.1402939,None,0.3877184,P054,FENCOG,1,Pre,2022_Jun_15_1114,N-Back (New Version 2021),2021.1.4,120.0262618
,,,,Conditions/Version_1/oneback(3)_v1.xlsx,New rule: Press 'space' when you see 1-back (i.e. the same letter as the one that appeared 1 letter ago.),n,None,,,,,,,,,0,11,11,11,0,4,4,4,,,,,,,,,,,,,,,,,,,,,,,,,,,,,,,,,,,,,,,,,,,,,,,,,,,,,,,,,,,,,,,,,,,,,1.2704,811.4207071,None,None,1,811.4207071,None,,P054,FENCOG,1,Pre,2022_Jun_15_1114,N-Back (New Version 2021),2021.1.4,120.0262618
,,,,Conditions/Version_1/oneback(3)_v1.xlsx,New rule: Press 'space' when you see 1-back (i.e. the same letter as the one that appeared 1 letter ago.),z,None,,,,,,,,,0,11,11,11,0,5,5,5,,,,,,,,,,,,,,,,,,,,,,,,,,,,,,,,,,,,,,,,,,,,,,,,,,,,,,,,,,,,,,,,,,,,,1.2642,814.6941568,None,None,1,814.6941568,None,,P054,FENCOG,1,Pre,2022_Jun_15_1114,N-Back (New Version 2021),2021.1.4,120.0262618
,,,,Conditions/Version_1/oneback(3)_v1.xlsx,New rule: Press 'space' when you see 1-back (i.e. the same letter as the one that appeared 1 letter ago.),X,None,,,,,,,,,0,11,11,11,0,6,6,6,,,,,,,,,,,,,,,,,,,,,,,,,,,,,,,,,,,,,,,,,,,,,,,,,,,,,,,,,,,,,,,,,,,,,1.227,817.9378028,None,None,1,817.9378028,None,,P054,FENCOG,1,Pre,2022_Jun_15_1114,N-Back (New Version 2021),2021.1.4,120.0262618
,,,,Conditions/Version_1/oneback(3)_v1.xlsx,New rule: Press 'space' when you see 1-back (i.e. the same letter as the one that appeared 1 letter ago.),r,None,,,,,,,,,0,11,11,11,0,7,7,7,,,,,,,,,,,,,,,,,,,,,,,,,,,,,,,,,,,,,,,,,,,,,,,,,,,,,,,,,,,,,,,,,,,,,1.9462,821.8928798,None,None,1,821.8928798,None,,P054,FENCOG,1,Pre,2022_Jun_15_1114,N-Back (New Version 2021),2021.1.4,120.0262618
,,,,Conditions/Version_1/oneback(3)_v1.xlsx,New rule: Press 'space' when you see 1-back (i.e. the same letter as the one that appeared 1 letter ago.),r,space,,,,,,,,,0,11,11,11,0,8,8,8,,,,,,,,,,,,,,,,,,,,,,,,,,,,,,,,,,,,,,,,,,,,,,,,,,,,,,,,,,,,,,,,,,,,,1.0596,824.9620214,None,space,1,824.9620214,None,0.5725396,P054,FENCOG,1,Pre,2022_Jun_15_1114,N-Back (New Version 2021),2021.1.4,120.0262618
,,,,Conditions/Version_1/oneback(3)_v1.xlsx,New rule: Press 'space' when you see 1-back (i.e. the same letter as the one that appeared 1 letter ago.),P,None,,,,,,,,,0,11,11,11,0,9,9,9,,,,,,,,,,,,,,,,,,,,,,,,,,,,,,,,,,,,,,,,,,,,,,,,,,,,,,,,,,,,,,,,,,,,,1.6672,828.691028,None,None,1,828.691028,None,,P054,FENCOG,1,Pre,2022_Jun_15_1114,N-Back (New Version 2021),2021.1.4,120.0262618
,,,,Conditions/Version_1/oneback(3)_v1.xlsx,New rule: Press 'space' when you see 1-back (i.e. the same letter as the one that appeared 1 letter ago.),,,,,,,,,,,0,11,11,11,,,,,,,,,,,,,,,,,,,,,,,,,,,,,,,,,,,,,,,,,,,,,,,,,,,,,,,,,,,,,,,,,,,,,,,,,,,,,,,,,P054,FENCOG,1,Pre,2022_Jun_15_1114,N-Back (New Version 2021),2021.1.4,120.0262618
,,,,Conditions/Version_1/twoback(4)_v1.xlsx,New rule: Press 'space' when you see 2-back (i.e. the same letter as the one that appeared 2 letters ago.),r,None,,,,,,,,,0,12,12,12,0,0,0,0,,,,,,,,,,,,,,,,,,,,,,,,,,,,,,,,,,,,,,,,,,,,,,,,,,,,,,,,,,,830.668549,None,833.657987,None,space,0.2606388,833.657987,None,830.668549,None,1.7354,835.6898364,None,None,1,835.6898364,None,,P054,FENCOG,1,Pre,2022_Jun_15_1114,N-Back (New Version 2021),2021.1.4,120.0262618
,,,,Conditions/Version_1/twoback(4)_v1.xlsx,New rule: Press 'space' when you see 2-back (i.e. the same letter as the one that appeared 2 letters ago.),T,None,,,,,,,,,0,12,12,12,0,1,1,1,,,,,,,,,,,,,,,,,,,,,,,,,,,,,,,,,,,,,,,,,,,,,,,,,,,,,,,,,,,,,,,,,,,,,1.134,838.8254386,None,None,1,838.8254386,None,,P054,FENCOG,1,Pre,2022_Jun_15_1114,N-Back (New Version 2021),2021.1.4,120.0262618
,,,,Conditions/Version_1/twoback(4)_v1.xlsx,New rule: Press 'space' when you see 2-back (i.e. the same letter as the one that appeared 2 letters ago.),o,None,,,,,,,,,0,12,12,12,0,2,2,2,,,,,,,,,,,,,,,,,,,,,,,,,,,,,,,,,,,,,,,,,,,,,,,,,,,,,,,,,,,,,,,,,,,,,1.692,842.5294207,None,None,1,842.5294207,None,,P054,FENCOG,1,Pre,2022_Jun_15_1114,N-Back (New Version 2021),2021.1.4,120.0262618
,,,,Conditions/Version_1/twoback(4)_v1.xlsx,New rule: Press 'space' when you see 2-back (i.e. the same letter as the one that appeared 2 letters ago.),p,None,,,,,,,,,0,12,12,12,0,3,3,3,,,,,,,,,,,,,,,,,,,,,,,,,,,,,,,,,,,,,,,,,,,,,,,,,,,,,,,,,,,,,,,,,,,,,1.0224,845.5630249,None,None,1,845.5630249,None,,P054,FENCOG,1,Pre,2022_Jun_15_1114,N-Back (New Version 2021),2021.1.4,120.0262618
,,,,Conditions/Version_1/twoback(4)_v1.xlsx,New rule: Press 'space' when you see 2-back (i.e. the same letter as the one that appeared 2 letters ago.),p,None,,,,,,,,,0,12,12,12,0,4,4,4,,,,,,,,,,,,,,,,,,,,,,,,,,,,,,,,,,,,,,,,,,,,,,,,,,,,,,,,,,,,,,,,,,,,,1.6114,849.1813643,None,space,0,849.1813643,None,0.5700919,P054,FENCOG,1,Pre,2022_Jun_15_1114,N-Back (New Version 2021),2021.1.4,120.0262618
,,,,Conditions/Version_1/twoback(4)_v1.xlsx,New rule: Press 'space' when you see 2-back (i.e. the same letter as the one that appeared 2 letters ago.),y,None,,,,,,,,,0,12,12,12,0,5,5,5,,,,,,,,,,,,,,,,,,,,,,,,,,,,,,,,,,,,,,,,,,,,,,,,,,,,,,,,,,,,,,,,,,,,,1.9214,853.1196795,None,None,1,853.1196795,None,,P054,FENCOG,1,Pre,2022_Jun_15_1114,N-Back (New Version 2021),2021.1.4,120.0262618
,,,,Conditions/Version_1/twoback(4)_v1.xlsx,New rule: Press 'space' when you see 2-back (i.e. the same letter as the one that appeared 2 letters ago.),P,space,,,,,,,,,0,12,12,12,0,6,6,6,,,,,,,,,,,,,,,,,,,,,,,,,,,,,,,,,,,,,,,,,,,,,,,,,,,,,,,,,,,,,,,,,,,,,1.9462,857.074006,None,None,0,857.074006,None,,P054,FENCOG,1,Pre,2022_Jun_15_1114,N-Back (New Version 2021),2021.1.4,120.0262618
,,,,Conditions/Version_1/twoback(4)_v1.xlsx,New rule: Press 'space' when you see 2-back (i.e. the same letter as the one that appeared 2 letters ago.),y,None,,,,,,,,,0,12,12,12,0,7,7,7,,,,,,,,,,,,,,,,,,,,,,,,,,,,,,,,,,,,,,,,,,,,,,,,,,,,,,,,,,,,,,,,,,,,,1.475,860.555375,None,space,0,860.555375,None,0.3714343,P054,FENCOG,1,Pre,2022_Jun_15_1114,N-Back (New Version 2021),2021.1.4,120.0262618
,,,,Conditions/Version_1/twoback(4)_v1.xlsx,New rule: Press 'space' when you see 2-back (i.e. the same letter as the one that appeared 2 letters ago.),y,space,,,,,,,,,0,12,12,12,0,8,8,8,,,,,,,,,,,,,,,,,,,,,,,,,,,,,,,,,,,,,,,,,,,,,,,,,,,,,,,,,,,,,,,,,,,,,1.8656,864.4345893,None,None,0,864.4345893,None,,P054,FENCOG,1,Pre,2022_Jun_15_1114,N-Back (New Version 2021),2021.1.4,120.0262618
,,,,Conditions/Version_1/twoback(4)_v1.xlsx,New rule: Press 'space' when you see 2-back (i.e. the same letter as the one that appeared 2 letters ago.),,,,,,,,,,,0,12,12,12,,,,,,,,,,,,,,,,,,,,,,,,,,,,,,,,,,,,,,,,,,,,,,,,,,,,,,,,,,,,,,,,,,,,,,,,,,,,,,,,,P054,FENCOG,1,Pre,2022_Jun_15_1114,N-Back (New Version 2021),2021.1.4,120.0262618
,,,,Conditions/Version_1/zeroback(4)_v1.xlsx,New rule: Press 'space' when you see the letter 'x' or 'X'.,o,None,,,,,,,,,0,13,13,13,0,0,0,0,,,,,,,,,,,,,,,,,,,,,,,,,,,,,,,,,,,,,,,,,,,,,,,,,,,,,,,,,,,866.4749521,None,869.4543769,None,space,0.2560477,869.4543769,None,866.4749521,None,1.134,870.8860878,None,None,1,870.8860878,None,,P054,FENCOG,1,Pre,2022_Jun_15_1114,N-Back (New Version 2021),2021.1.4,120.0262618
,,,,Conditions/Version_1/zeroback(4)_v1.xlsx,New rule: Press 'space' when you see the letter 'x' or 'X'.,X,space,,,,,,,,,0,13,13,13,0,1,1,1,,,,,,,,,,,,,,,,,,,,,,,,,,,,,,,,,,,,,,,,,,,,,,,,,,,,,,,,,,,,,,,,,,,,,1.7726,874.6699465,None,space,1,874.6699465,None,0.3848039,P054,FENCOG,1,Pre,2022_Jun_15_1114,N-Back (New Version 2021),2021.1.4,120.0262618
,,,,Conditions/Version_1/zeroback(4)_v1.xlsx,New rule: Press 'space' when you see the letter 'x' or 'X'.,p,None,,,,,,,,,0,13,13,13,0,2,2,2,,,,,,,,,,,,,,,,,,,,,,,,,,,,,,,,,,,,,,,,,,,,,,,,,,,,,,,,,,,,,,,,,,,,,1.2518,877.9343432,None,None,1,877.9343432,None,,P054,FENCOG,1,Pre,2022_Jun_15_1114,N-Back (New Version 2021),2021.1.4,120.0262618
,,,,Conditions/Version_1/zeroback(4)_v1.xlsx,New rule: Press 'space' when you see the letter 'x' or 'X'.,m,None,,,,,,,,,0,13,13,13,0,3,3,3,,,,,,,,,,,,,,,,,,,,,,,,,,,,,,,,,,,,,,,,,,,,,,,,,,,,,,,,,,,,,,,,,,,,,1.1898,881.1324965,None,None,1,881.1324965,None,,P054,FENCOG,1,Pre,2022_Jun_15_1114,N-Back (New Version 2021),2021.1.4,120.0262618
,,,,Conditions/Version_1/zeroback(4)_v1.xlsx,New rule: Press 'space' when you see the letter 'x' or 'X'.,n,None,,,,,,,,,0,13,13,13,0,4,4,4,,,,,,,,,,,,,,,,,,,,,,,,,,,,,,,,,,,,,,,,,,,,,,,,,,,,,,,,,,,,,,,,,,,,,1.5432,884.6936019,None,None,1,884.6936019,None,,P054,FENCOG,1,Pre,2022_Jun_15_1114,N-Back (New Version 2021),2021.1.4,120.0262618
,,,,Conditions/Version_1/zeroback(4)_v1.xlsx,New rule: Press 'space' when you see the letter 'x' or 'X'.,m,None,,,,,,,,,0,13,13,13,0,5,5,5,,,,,,,,,,,,,,,,,,,,,,,,,,,,,,,,,,,,,,,,,,,,,,,,,,,,,,,,,,,,,,,,,,,,,1.9834,888.6892321,None,None,1,888.6892321,None,,P054,FENCOG,1,Pre,2022_Jun_15_1114,N-Back (New Version 2021),2021.1.4,120.0262618
,,,,Conditions/Version_1/zeroback(4)_v1.xlsx,New rule: Press 'space' when you see the letter 'x' or 'X'.,C,None,,,,,,,,,0,13,13,13,0,6,6,6,,,,,,,,,,,,,,,,,,,,,,,,,,,,,,,,,,,,,,,,,,,,,,,,,,,,,,,,,,,,,,,,,,,,,1.1588,891.8571792,None,None,1,891.8571792,None,,P054,FENCOG,1,Pre,2022_Jun_15_1114,N-Back (New Version 2021),2021.1.4,120.0262618
,,,,Conditions/Version_1/zeroback(4)_v1.xlsx,New rule: Press 'space' when you see the letter 'x' or 'X'.,m,None,,,,,,,,,0,13,13,13,0,7,7,7,,,,,,,,,,,,,,,,,,,,,,,,,,,,,,,,,,,,,,,,,,,,,,,,,,,,,,,,,,,,,,,,,,,,,1.0596,894.9288212,None,None,1,894.9288212,None,,P054,FENCOG,1,Pre,2022_Jun_15_1114,N-Back (New Version 2021),2021.1.4,120.0262618
,,,,Conditions/Version_1/zeroback(4)_v1.xlsx,New rule: Press 'space' when you see the letter 'x' or 'X'.,p,None,,,,,,,,,0,13,13,13,0,8,8,8,,,,,,,,,,,,,,,,,,,,,,,,,,,,,,,,,,,,,,,,,,,,,,,,,,,,,,,,,,,,,,,,,,,,,1.9276,898.8680924,None,None,1,898.8680924,None,,P054,FENCOG,1,Pre,2022_Jun_15_1114,N-Back (New Version 2021),2021.1.4,120.0262618
,,,,Conditions/Version_1/zeroback(4)_v1.xlsx,New rule: Press 'space' when you see the letter 'x' or 'X'.,X,space,,,,,,,,,0,13,13,13,0,9,9,9,,,,,,,,,,,,,,,,,,,,,,,,,,,,,,,,,,,,,,,,,,,,,,,,,,,,,,,,,,,,,,,,,,,,,1.0968,901.9796726,None,space,1,901.9796726,None,0.4109842,P054,FENCOG,1,Pre,2022_Jun_15_1114,N-Back (New Version 2021),2021.1.4,120.0262618
,,,,Conditions/Version_1/zeroback(4)_v1.xlsx,New rule: Press 'space' when you see the letter 'x' or 'X'.,,,,,,,,,,,0,13,13,13,,,,,,,,,,,,,,,,,,,,,,,,,,,,,,,,,,,,,,,,,,,,,,,,,,,,,,,,,,,,,,,,,,,,,,,,,,,,,,,,,P054,FENCOG,1,Pre,2022_Jun_15_1114,N-Back (New Version 2021),2021.1.4,120.0262618
,,,,Conditions/Version_1/oneback(4)_v1.xlsx,New rule: Press 'space' when you see 1-back (i.e. the same letter as the one that appeared 1 letter ago.),w,None,,,,,,,,,0,14,14,14,0,0,0,0,,,,,,,,,,,,,,,,,,,,,,,,,,,,,,,,,,,,,,,,,,,,,,,,,,,,,,,,,,,904.0050416,None,906.9846953,None,space,0.3016657,906.9846953,None,904.0050416,None,1.3758,908.7020877,None,None,1,908.7020877,None,,P054,FENCOG,1,Pre,2022_Jun_15_1114,N-Back (New Version 2021),2021.1.4,120.0262618
,,,,Conditions/Version_1/oneback(4)_v1.xlsx,New rule: Press 'space' when you see 1-back (i.e. the same letter as the one that appeared 1 letter ago.),q,None,,,,,,,,,0,14,14,14,0,1,1,1,,,,,,,,,,,,,,,,,,,,,,,,,,,,,,,,,,,,,,,,,,,,,,,,,,,,,,,,,,,,,,,,,,,,,1.7664,912.485447,None,None,1,912.485447,None,,P054,FENCOG,1,Pre,2022_Jun_15_1114,N-Back (New Version 2021),2021.1.4,120.0262618
,,,,Conditions/Version_1/oneback(4)_v1.xlsx,New rule: Press 'space' when you see 1-back (i.e. the same letter as the one that appeared 1 letter ago.),i,None,,,,,,,,,0,14,14,14,0,2,2,2,,,,,,,,,,,,,,,,,,,,,,,,,,,,,,,,,,,,,,,,,,,,,,,,,,,,,,,,,,,,,,,,,,,,,1.103,915.5882845,None,None,1,915.5882845,None,,P054,FENCOG,1,Pre,2022_Jun_15_1114,N-Back (New Version 2021),2021.1.4,120.0262618
,,,,Conditions/Version_1/oneback(4)_v1.xlsx,New rule: Press 'space' when you see 1-back (i.e. the same letter as the one that appeared 1 letter ago.),t,None,,,,,,,,,0,14,14,14,0,3,3,3,,,,,,,,,,,,,,,,,,,,,,,,,,,,,,,,,,,,,,,,,,,,,,,,,,,,,,,,,,,,,,,,,,,,,1.1774,918.7801649,None,None,1,918.7801649,None,,P054,FENCOG,1,Pre,2022_Jun_15_1114,N-Back (New Version 2021),2021.1.4,120.0262618
,,,,Conditions/Version_1/oneback(4)_v1.xlsx,New rule: Press 'space' when you see 1-back (i.e. the same letter as the one that appeared 1 letter ago.),v,None,,,,,,,,,0,14,14,14,0,4,4,4,,,,,,,,,,,,,,,,,,,,,,,,,,,,,,,,,,,,,,,,,,,,,,,,,,,,,,,,,,,,,,,,,,,,,1.8284,922.6224159,None,None,1,922.6224159,None,,P054,FENCOG,1,Pre,2022_Jun_15_1114,N-Back (New Version 2021),2021.1.4,120.0262618
,,,,Conditions/Version_1/oneback(4)_v1.xlsx,New rule: Press 'space' when you see 1-back (i.e. the same letter as the one that appeared 1 letter ago.),V,space,,,,,,,,,0,14,14,14,0,5,5,5,,,,,,,,,,,,,,,,,,,,,,,,,,,,,,,,,,,,,,,,,,,,,,,,,,,,,,,,,,,,,,,,,,,,,1.8408,926.4764836,None,space,1,926.4764836,None,0.3783104,P054,FENCOG,1,Pre,2022_Jun_15_1114,N-Back (New Version 2021),2021.1.4,120.0262618
,,,,Conditions/Version_1/oneback(4)_v1.xlsx,New rule: Press 'space' when you see 1-back (i.e. the same letter as the one that appeared 1 letter ago.),v,space,,,,,,,,,0,14,14,14,0,6,6,6,,,,,,,,,,,,,,,,,,,,,,,,,,,,,,,,,,,,,,,,,,,,,,,,,,,,,,,,,,,,,,,,,,,,,1.3076,929.788659,None,None,0,929.788659,None,,P054,FENCOG,1,Pre,2022_Jun_15_1114,N-Back (New Version 2021),2021.1.4,120.0262618
,,,,Conditions/Version_1/oneback(4)_v1.xlsx,New rule: Press 'space' when you see 1-back (i.e. the same letter as the one that appeared 1 letter ago.),p,None,,,,,,,,,0,14,14,14,0,7,7,7,,,,,,,,,,,,,,,,,,,,,,,,,,,,,,,,,,,,,,,,,,,,,,,,,,,,,,,,,,,,,,,,,,,,,1.6052,933.4047756,None,None,1,933.4047756,None,,P054,FENCOG,1,Pre,2022_Jun_15_1114,N-Back (New Version 2021),2021.1.4,120.0262618
,,,,Conditions/Version_1/oneback(4)_v1.xlsx,New rule: Press 'space' when you see 1-back (i.e. the same letter as the one that appeared 1 letter ago.),w,None,,,,,,,,,0,14,14,14,0,8,8,8,,,,,,,,,,,,,,,,,,,,,,,,,,,,,,,,,,,,,,,,,,,,,,,,,,,,,,,,,,,,,,,,,,,,,1.6672,937.0763409,None,None,1,937.0763409,None,,P054,FENCOG,1,Pre,2022_Jun_15_1114,N-Back (New Version 2021),2021.1.4,120.0262618
,,,,Conditions/Version_1/oneback(4)_v1.xlsx,New rule: Press 'space' when you see 1-back (i.e. the same letter as the one that appeared 1 letter ago.),W,space,,,,,,,,,0,14,14,14,0,9,9,9,,,,,,,,,,,,,,,,,,,,,,,,,,,,,,,,,,,,,,,,,,,,,,,,,,,,,,,,,,,,,,,,,,,,,1.7602,940.8493517,None,space,1,940.8493517,None,0.4453771,P054,FENCOG,1,Pre,2022_Jun_15_1114,N-Back (New Version 2021),2021.1.4,120.0262618
,,,,Conditions/Version_1/oneback(4)_v1.xlsx,New rule: Press 'space' when you see 1-back (i.e. the same letter as the one that appeared 1 letter ago.),,,,,,,,,,,0,14,14,14,,,,,,,,,,,,,,,,,,,,,,,,,,,,,,,,,,,,,,,,,,,,,,,,,,,,,,,,,,,,,,,,,,,,,,,,,,,,,,,,,P054,FENCOG,1,Pre,2022_Jun_15_1114,N-Back (New Version 2021),2021.1.4,120.0262618
,,,,Conditions/Version_1/threeback(4)_v1.xlsx,New rule: Press 'space' when you see 3-back (i.e. the same letter as the one that appeared 3 letters ago.),A,None,,,,,,,,,0,15,15,15,0,0,0,0,,,,,,,,,,,,,,,,,,,,,,,,,,,,,,,,,,,,,,,,,,,,,,,,,,,,,,,,,,,942.8914059,None,945.8710293,None,space,0.3511651,945.8710293,None,942.8914059,None,1.6796,947.9390003,None,None,1,947.9390003,None,,P054,FENCOG,1,Pre,2022_Jun_15_1114,N-Back (New Version 2021),2021.1.4,120.0262618
,,,,Conditions/Version_1/threeback(4)_v1.xlsx,New rule: Press 'space' when you see 3-back (i.e. the same letter as the one that appeared 3 letters ago.),n,None,,,,,,,,,0,15,15,15,0,1,1,1,,,,,,,,,,,,,,,,,,,,,,,,,,,,,,,,,,,,,,,,,,,,,,,,,,,,,,,,,,,,,,,,,,,,,1.4998,951.4542433,None,None,1,951.4542433,None,,P054,FENCOG,1,Pre,2022_Jun_15_1114,N-Back (New Version 2021),2021.1.4,120.0262618
,,,,Conditions/Version_1/threeback(4)_v1.xlsx,New rule: Press 'space' when you see 3-back (i.e. the same letter as the one that appeared 3 letters ago.),g,None,,,,,,,,,0,15,15,15,0,2,2,2,,,,,,,,,,,,,,,,,,,,,,,,,,,,,,,,,,,,,,,,,,,,,,,,,,,,,,,,,,,,,,,,,,,,,1.9028,955.3720999,None,None,1,955.3720999,None,,P054,FENCOG,1,Pre,2022_Jun_15_1114,N-Back (New Version 2021),2021.1.4,120.0262618
,,,,Conditions/Version_1/threeback(4)_v1.xlsx,New rule: Press 'space' when you see 3-back (i.e. the same letter as the one that appeared 3 letters ago.),A,space,,,,,,,,,0,15,15,15,0,3,3,3,,,,,,,,,,,,,,,,,,,,,,,,,,,,,,,,,,,,,,,,,,,,,,,,,,,,,,,,,,,,,,,,,,,,,1.258,958.6361575,None,space,1,958.6361575,None,0.362656,P054,FENCOG,1,Pre,2022_Jun_15_1114,N-Back (New Version 2021),2021.1.4,120.0262618
,,,,Conditions/Version_1/threeback(4)_v1.xlsx,New rule: Press 'space' when you see 3-back (i.e. the same letter as the one that appeared 3 letters ago.),p,None,,,,,,,,,0,15,15,15,0,4,4,4,,,,,,,,,,,,,,,,,,,,,,,,,,,,,,,,,,,,,,,,,,,,,,,,,,,,,,,,,,,,,,,,,,,,,1.971,962.6191778,None,None,1,962.6191778,None,,P054,FENCOG,1,Pre,2022_Jun_15_1114,N-Back (New Version 2021),2021.1.4,120.0262618
,,,,Conditions/Version_1/threeback(4)_v1.xlsx,New rule: Press 'space' when you see 3-back (i.e. the same letter as the one that appeared 3 letters ago.),O,None,,,,,,,,,0,15,15,15,0,5,5,5,,,,,,,,,,,,,,,,,,,,,,,,,,,,,,,,,,,,,,,,,,,,,,,,,,,,,,,,,,,,,,,,,,,,,1.599,966.224537,None,None,1,966.224537,None,,P054,FENCOG,1,Pre,2022_Jun_15_1114,N-Back (New Version 2021),2021.1.4,120.0262618
,,,,Conditions/Version_1/threeback(4)_v1.xlsx,New rule: Press 'space' when you see 3-back (i.e. the same letter as the one that appeared 3 letters ago.),a,space,,,,,,,,,0,15,15,15,0,6,6,6,,,,,,,,,,,,,,,,,,,,,,,,,,,,,,,,,,,,,,,,,,,,,,,,,,,,,,,,,,,,,,,,,,,,,1.7354,969.9673697,None,None,0,969.9673697,None,,P054,FENCOG,1,Pre,2022_Jun_15_1114,N-Back (New Version 2021),2021.1.4,120.0262618
,,,,Conditions/Version_1/threeback(4)_v1.xlsx,New rule: Press 'space' when you see 3-back (i.e. the same letter as the one that appeared 3 letters ago.),p,space,,,,,,,,,0,15,15,15,0,7,7,7,,,,,,,,,,,,,,,,,,,,,,,,,,,,,,,,,,,,,,,,,,,,,,,,,,,,,,,,,,,,,,,,,,,,,1.9276,973.9087816,None,space,1,973.9087816,None,0.3616258,P054,FENCOG,1,Pre,2022_Jun_15_1114,N-Back (New Version 2021),2021.1.4,120.0262618
,,,,Conditions/Version_1/threeback(4)_v1.xlsx,New rule: Press 'space' when you see 3-back (i.e. the same letter as the one that appeared 3 letters ago.),x,None,,,,,,,,,0,15,15,15,0,8,8,8,,,,,,,,,,,,,,,,,,,,,,,,,,,,,,,,,,,,,,,,,,,,,,,,,,,,,,,,,,,,,,,,,,,,,1.9338,977.845791,None,None,1,977.845791,None,,P054,FENCOG,1,Pre,2022_Jun_15_1114,N-Back (New Version 2021),2021.1.4,120.0262618
,,,,Conditions/Version_1/threeback(4)_v1.xlsx,New rule: Press 'space' when you see 3-back (i.e. the same letter as the one that appeared 3 letters ago.),X,None,,,,,,,,,0,15,15,15,0,9,9,9,,,,,,,,,,,,,,,,,,,,,,,,,,,,,,,,,,,,,,,,,,,,,,,,,,,,,,,,,,,,,,,,,,,,,1.0286,980.8878792,None,space,0,980.8878792,None,0.5187798,P054,FENCOG,1,Pre,2022_Jun_15_1114,N-Back (New Version 2021),2021.1.4,120.0262618
,,,,Conditions/Version_1/threeback(4)_v1.xlsx,New rule: Press 'space' when you see 3-back (i.e. the same letter as the one that appeared 3 letters ago.),,,,,,,,,,,0,15,15,15,,,,,,,,,,,,,,,,,,,,,,,,,,,,,,,,,,,,,,,,,,,,,,,,,,,,,,,,,,,,,,,,,,,,,,,,,,,,,,,,,P054,FENCOG,1,Pre,2022_Jun_15_1114,N-Back (New Version 2021),2021.1.4,120.0262618
