CondFileP,InstructionsP,LettersDisplayedP,CorrectnessP,CondFile,Instructions,LettersDisplayed,Correctness,practicetrials.thisRepN,practicetrials.thisTrialN,practicetrials.thisN,practicetrials.thisIndex,InnerLoopPractice.thisRepN,InnerLoopPractice.thisTrialN,InnerLoopPractice.thisN,InnerLoopPractice.thisIndex,trials.thisRepN,trials.thisTrialN,trials.thisN,trials.thisIndex,InnerLoop.thisRepN,InnerLoop.thisTrialN,InnerLoop.thisN,InnerLoop.thisIndex,TaskVersionText.started,TaskVersionText.stopped,InstrKey1.keys,InstrKey1.rt,InstrKey1.started,InstrKey1.stopped,text.started,text.stopped,key_resp_4.keys,key_resp_4.rt,key_resp_4.started,key_resp_4.stopped,text_2.started,text_2.stopped,key_resp_3.keys,key_resp_3.rt,key_resp_3.started,key_resp_3.stopped,text_3.started,text_3.stopped,key_resp_2.keys,key_resp_2.rt,key_resp_2.started,key_resp_2.stopped,PractIn1.started,PractIn1.stopped,PractIn2.started,PractIn2.stopped,PractInstructionPass.keys,PractInstructionPass.rt,PractInstructionPass.started,PractInstructionPass.stopped,PractBlock1.started,PractBlock1.stopped,ISIjitterPractice,ISI_Pract_Fixation.started,ISI_Pract_Fixation.stopped,N_backP.started,N_backP.stopped,KeyPractice.keys,KeyPractice.corr,KeyPractice.rt,KeyPractice.started,KeyPractice.stopped,text_4.started,text_4.stopped,TransitionText.started,TransitionText.stopped,key_resp_6.keys,key_resp_6.rt,key_resp_6.started,key_resp_6.stopped,text_5.started,text_5.stopped,key_resp_5.keys,key_resp_5.rt,key_resp_5.started,key_resp_5.stopped,MainInt1.started,MainInt1.stopped,MainInt2.started,MainInt2.stopped,InstructionPass.keys,InstructionPass.rt,InstructionPass.started,InstructionPass.stopped,Blocks1.started,Blocks1.stopped,ISIjitter,N_backD.started,N_backD.stopped,key_resp.keys,key_resp.corr,key_resp.started,key_resp.stopped,key_resp.rt,participant,Study Name,Task Version (required to run),PRE/POST,date,expName,psychopyVersion,frameRate
,,,,,,,,,,,,,,,,,,,,,,,,78.4051311,None,space,2.0281194,78.8991372,None,,,,,,,,,,,,,,,,,,,,,,,,,,,,,,,,,,,,,,,,,,,,,,,,,,,,,,,,,,,,,,,,,,,,,,,P054,FENCOG,2,Post,2022_Jun_22_1158,N-Back (New Version 2021),2021.1.4,119.9423317
,,,,,,,,,,,,,,,,,,,,,,,,,,,,,,80.9631477,None,space,2.4444562,81.4585901,None,,,,,,,,,,,,,,,,,,,,,,,,,,,,,,,,,,,,,,,,,,,,,,,,,,,,,,,,,,,,,,,,,P054,FENCOG,2,Post,2022_Jun_22_1158,N-Back (New Version 2021),2021.1.4,119.9423317
,,,,,,,,,,,,,,,,,,,,,,,,,,,,,,,,,,,,83.9394762,None,space,2.3832766,84.4318246,None,,,,,,,,,,,,,,,,,,,,,,,,,,,,,,,,,,,,,,,,,,,,,,,,,,,,,,,,,,,P054,FENCOG,2,Post,2022_Jun_22_1158,N-Back (New Version 2021),2021.1.4,119.9423317
,,,,,,,,,,,,,,,,,,,,,,,,,,,,,,,,,,,,,,,,,,86.8436322,None,space,4.3718738,87.3392464,None,,,,,,,,,,,,,,,,,,,,,,,,,,,,,,,,,,,,,,,,,,,,,,,,,,,,,P054,FENCOG,2,Post,2022_Jun_22_1158,N-Back (New Version 2021),2021.1.4,119.9423317
Conditions/Version_2Pr/zeroback(1)_v2.xlsx,Rule: Press 'space' when you see the letter 'x' or 'X'.,x,space,,,,,0,0,0,0,0,0,0,0,,,,,,,,,,,,,,,,,,,,,,,,,,,,,,,,,93.1024532,None,96.0875646,None,space,0.8715111,96.0875646,None,93.1024532,None,1.865,96.9916788,None,98.8627948,None,space,1,0.304358,98.8627948,None,99.185137,None,,,,,,,,,,,,,,,,,,,,,,,,,,,,,,,P054,FENCOG,2,Post,2022_Jun_22_1158,N-Back (New Version 2021),2021.1.4,119.9423317
Conditions/Version_2Pr/zeroback(1)_v2.xlsx,Rule: Press 'space' when you see the letter 'x' or 'X'.,R,None,,,,,0,0,0,0,0,1,1,1,,,,,,,,,,,,,,,,,,,,,,,,,,,,,,,,,,,,,,,,,,,1.79,100.6841397,None,102.4779861,None,None,1,,102.4779861,None,104.4832971,None,,,,,,,,,,,,,,,,,,,,,,,,,,,,,,,P054,FENCOG,2,Post,2022_Jun_22_1158,N-Back (New Version 2021),2021.1.4,119.9423317
Conditions/Version_2Pr/zeroback(1)_v2.xlsx,Rule: Press 'space' when you see the letter 'x' or 'X'.,p,None,,,,,0,0,0,0,0,2,2,2,,,,,,,,,,,,,,,,,,,,,,,,,,,,,,,,,,,,,,,,,,,1.715,105.9827525,None,107.7004878,None,None,1,,107.7004878,None,109.7067348,None,,,,,,,,,,,,,,,,,,,,,,,,,,,,,,,P054,FENCOG,2,Post,2022_Jun_22_1158,N-Back (New Version 2021),2021.1.4,119.9423317
Conditions/Version_2Pr/zeroback(1)_v2.xlsx,Rule: Press 'space' when you see the letter 'x' or 'X'.,O,None,,,,,0,0,0,0,0,3,3,3,,,,,,,,,,,,,,,,,,,,,,,,,,,,,,,,,,,,,,,,,,,1.365,111.2063404,None,112.5742475,None,None,1,,112.5742475,None,114.580301,None,,,,,,,,,,,,,,,,,,,,,,,,,,,,,,,P054,FENCOG,2,Post,2022_Jun_22_1158,N-Back (New Version 2021),2021.1.4,119.9423317
Conditions/Version_2Pr/zeroback(1)_v2.xlsx,Rule: Press 'space' when you see the letter 'x' or 'X'.,i,None,,,,,0,0,0,0,0,4,4,4,,,,,,,,,,,,,,,,,,,,,,,,,,,,,,,,,,,,,,,,,,,1.34,116.0797901,None,117.4274129,None,None,1,,117.4274129,None,119.4289265,None,,,,,,,,,,,,,,,,,,,,,,,,,,,,,,,P054,FENCOG,2,Post,2022_Jun_22_1158,N-Back (New Version 2021),2021.1.4,119.9423317
Conditions/Version_2Pr/zeroback(1)_v2.xlsx,Rule: Press 'space' when you see the letter 'x' or 'X'.,U,None,,,,,0,0,0,0,0,5,5,5,,,,,,,,,,,,,,,,,,,,,,,,,,,,,,,,,,,,,,,,,,,1.74,120.9284271,None,122.6733924,None,None,1,,122.6733924,None,124.677316,None,,,,,,,,,,,,,,,,,,,,,,,,,,,,,,,P054,FENCOG,2,Post,2022_Jun_22_1158,N-Back (New Version 2021),2021.1.4,119.9423317
Conditions/Version_2Pr/zeroback(1)_v2.xlsx,Rule: Press 'space' when you see the letter 'x' or 'X'.,N,None,,,,,0,0,0,0,0,6,6,6,,,,,,,,,,,,,,,,,,,,,,,,,,,,,,,,,,,,,,,,,,,1.39,126.1768077,None,127.5699897,None,None,1,,127.5699897,None,129.5758698,None,,,,,,,,,,,,,,,,,,,,,,,,,,,,,,,P054,FENCOG,2,Post,2022_Jun_22_1158,N-Back (New Version 2021),2021.1.4,119.9423317
Conditions/Version_2Pr/zeroback(1)_v2.xlsx,Rule: Press 'space' when you see the letter 'x' or 'X'.,m,None,,,,,0,0,0,0,0,7,7,7,,,,,,,,,,,,,,,,,,,,,,,,,,,,,,,,,,,,,,,,,,,1.315,131.075258,None,132.3929815,None,None,1,,132.3929815,None,134.3994012,None,,,,,,,,,,,,,,,,,,,,,,,,,,,,,,,P054,FENCOG,2,Post,2022_Jun_22_1158,N-Back (New Version 2021),2021.1.4,119.9423317
Conditions/Version_2Pr/zeroback(1)_v2.xlsx,Rule: Press 'space' when you see the letter 'x' or 'X'.,x,space,,,,,0,0,0,0,0,8,8,8,,,,,,,,,,,,,,,,,,,,,,,,,,,,,,,,,,,,,,,,,,,1.115,135.8989428,None,137.0163275,None,space,1,0.3188371,137.0163275,None,137.3497408,None,,,,,,,,,,,,,,,,,,,,,,,,,,,,,,,P054,FENCOG,2,Post,2022_Jun_22_1158,N-Back (New Version 2021),2021.1.4,119.9423317
Conditions/Version_2Pr/zeroback(1)_v2.xlsx,Rule: Press 'space' when you see the letter 'x' or 'X'.,X,space,,,,,0,0,0,0,0,9,9,9,,,,,,,,,,,,,,,,,,,,,,,,,,,,,,,,,,,,,,,,,,,1.265,138.8563968,None,140.1248618,None,space,1,0.3941281,140.1248618,None,140.5316495,None,,,,,,,,,,,,,,,,,,,,,,,,,,,,,,,P054,FENCOG,2,Post,2022_Jun_22_1158,N-Back (New Version 2021),2021.1.4,119.9423317
Conditions/Version_2Pr/zeroback(1)_v2.xlsx,Rule: Press 'space' when you see the letter 'x' or 'X'.,,,,,,,0,0,0,0,,,,,,,,,,,,,,,,,,,,,,,,,,,,,,,,,,,,,,,,,,,,,,,,,,,,,,,,,,,,,,,,,,,,,,,,,,,,,,,,,,,,,,,,,P054,FENCOG,2,Post,2022_Jun_22_1158,N-Back (New Version 2021),2021.1.4,119.9423317
Conditions/Version_2Pr/oneback(1)_v2.xlsx,New rule: Press 'space' when you see 1-back (i.e. the same letter as the one that appeared 1 letter ago.),r,None,,,,,0,1,1,1,0,0,0,0,,,,,,,,,,,,,,,,,,,,,,,,,,,,,,,,,142.0623396,None,145.0482026,None,space,0.4868638,145.0482026,None,142.0623396,None,1.39,145.5641115,None,146.9558811,None,None,1,,146.9558811,None,148.9617548,None,,,,,,,,,,,,,,,,,,,,,,,,,,,,,,,P054,FENCOG,2,Post,2022_Jun_22_1158,N-Back (New Version 2021),2021.1.4,119.9423317
Conditions/Version_2Pr/oneback(1)_v2.xlsx,New rule: Press 'space' when you see 1-back (i.e. the same letter as the one that appeared 1 letter ago.),t,None,,,,,0,1,1,1,0,1,1,1,,,,,,,,,,,,,,,,,,,,,,,,,,,,,,,,,,,,,,,,,,,2.015,150.4612774,None,152.4801474,None,None,1,,152.4801474,None,154.4851348,None,,,,,,,,,,,,,,,,,,,,,,,,,,,,,,,P054,FENCOG,2,Post,2022_Jun_22_1158,N-Back (New Version 2021),2021.1.4,119.9423317
Conditions/Version_2Pr/oneback(1)_v2.xlsx,New rule: Press 'space' when you see 1-back (i.e. the same letter as the one that appeared 1 letter ago.),Y,None,,,,,0,1,1,1,0,2,2,2,,,,,,,,,,,,,,,,,,,,,,,,,,,,,,,,,,,,,,,,,,,1.565,155.9847479,None,157.552403,None,None,1,,157.552403,None,159.5586831,None,,,,,,,,,,,,,,,,,,,,,,,,,,,,,,,P054,FENCOG,2,Post,2022_Jun_22_1158,N-Back (New Version 2021),2021.1.4,119.9423317
Conditions/Version_2Pr/oneback(1)_v2.xlsx,New rule: Press 'space' when you see 1-back (i.e. the same letter as the one that appeared 1 letter ago.),y,space,,,,,0,1,1,1,0,3,3,3,,,,,,,,,,,,,,,,,,,,,,,,,,,,,,,,,,,,,,,,,,,1.44,161.0581901,None,162.5010672,None,space,1,0.3460595,162.5010672,None,162.8592139,None,,,,,,,,,,,,,,,,,,,,,,,,,,,,,,,P054,FENCOG,2,Post,2022_Jun_22_1158,N-Back (New Version 2021),2021.1.4,119.9423317
Conditions/Version_2Pr/oneback(1)_v2.xlsx,New rule: Press 'space' when you see 1-back (i.e. the same letter as the one that appeared 1 letter ago.),p,None,,,,,0,1,1,1,0,4,4,4,,,,,,,,,,,,,,,,,,,,,,,,,,,,,,,,,,,,,,,,,,,1.74,164.3656126,None,166.1075594,None,None,1,,166.1075594,None,168.1144414,None,,,,,,,,,,,,,,,,,,,,,,,,,,,,,,,P054,FENCOG,2,Post,2022_Jun_22_1158,N-Back (New Version 2021),2021.1.4,119.9423317
Conditions/Version_2Pr/oneback(1)_v2.xlsx,New rule: Press 'space' when you see 1-back (i.e. the same letter as the one that appeared 1 letter ago.),P,space,,,,,0,1,1,1,0,5,5,5,,,,,,,,,,,,,,,,,,,,,,,,,,,,,,,,,,,,,,,,,,,1.665,169.6139499,None,171.2841088,None,space,1,0.3708656,171.2841088,None,171.6648284,None,,,,,,,,,,,,,,,,,,,,,,,,,,,,,,,P054,FENCOG,2,Post,2022_Jun_22_1158,N-Back (New Version 2021),2021.1.4,119.9423317
Conditions/Version_2Pr/oneback(1)_v2.xlsx,New rule: Press 'space' when you see 1-back (i.e. the same letter as the one that appeared 1 letter ago.),e,None,,,,,0,1,1,1,0,6,6,6,,,,,,,,,,,,,,,,,,,,,,,,,,,,,,,,,,,,,,,,,,,1.915,173.1713181,None,175.0907937,None,None,1,,175.0907937,None,177.095173,None,,,,,,,,,,,,,,,,,,,,,,,,,,,,,,,P054,FENCOG,2,Post,2022_Jun_22_1158,N-Back (New Version 2021),2021.1.4,119.9423317
Conditions/Version_2Pr/oneback(1)_v2.xlsx,New rule: Press 'space' when you see 1-back (i.e. the same letter as the one that appeared 1 letter ago.),r,None,,,,,0,1,1,1,0,7,7,7,,,,,,,,,,,,,,,,,,,,,,,,,,,,,,,,,,,,,,,,,,,1.765,178.5945873,None,180.3615087,None,None,1,,180.3615087,None,182.3684364,None,,,,,,,,,,,,,,,,,,,,,,,,,,,,,,,P054,FENCOG,2,Post,2022_Jun_22_1158,N-Back (New Version 2021),2021.1.4,119.9423317
Conditions/Version_2Pr/oneback(1)_v2.xlsx,New rule: Press 'space' when you see 1-back (i.e. the same letter as the one that appeared 1 letter ago.),R,space,,,,,0,1,1,1,0,8,8,8,,,,,,,,,,,,,,,,,,,,,,,,,,,,,,,,,,,,,,,,,,,1.265,183.8677384,None,185.1340527,None,space,1,0.3528689,185.1340527,None,185.5022895,None,,,,,,,,,,,,,,,,,,,,,,,,,,,,,,,P054,FENCOG,2,Post,2022_Jun_22_1158,N-Back (New Version 2021),2021.1.4,119.9423317
Conditions/Version_2Pr/oneback(1)_v2.xlsx,New rule: Press 'space' when you see 1-back (i.e. the same letter as the one that appeared 1 letter ago.),p,None,,,,,0,1,1,1,0,9,9,9,,,,,,,,,,,,,,,,,,,,,,,,,,,,,,,,,,,,,,,,,,,1.34,187.0084465,None,188.349709,None,None,1,,188.349709,None,190.3495621,None,,,,,,,,,,,,,,,,,,,,,,,,,,,,,,,P054,FENCOG,2,Post,2022_Jun_22_1158,N-Back (New Version 2021),2021.1.4,119.9423317
Conditions/Version_2Pr/oneback(1)_v2.xlsx,New rule: Press 'space' when you see 1-back (i.e. the same letter as the one that appeared 1 letter ago.),,,,,,,0,1,1,1,,,,,,,,,,,,,,,,,,,,,,,,,,,,,,,,,,,,,,,,,,,,,,,,,,,,,,,,,,,,,,,,,,,,,,,,,,,,,,,,,,,,,,,,,P054,FENCOG,2,Post,2022_Jun_22_1158,N-Back (New Version 2021),2021.1.4,119.9423317
Conditions/Version_2Pr/twoback(1)_v2.xlsx,New rule: Press 'space' when you see 2-back (i.e. the same letter as the one that appeared 2 letters ago.),r,None,,,,,0,2,2,2,0,0,0,0,,,,,,,,,,,,,,,,,,,,,,,,,,,,,,,,,191.8753159,None,194.8584092,None,space,0.412547,194.8584092,None,191.8753159,None,1.115,195.3033393,None,196.4245024,None,None,1,,196.4245024,None,198.4305164,None,,,,,,,,,,,,,,,,,,,,,,,,,,,,,,,P054,FENCOG,2,Post,2022_Jun_22_1158,N-Back (New Version 2021),2021.1.4,119.9423317
Conditions/Version_2Pr/twoback(1)_v2.xlsx,New rule: Press 'space' when you see 2-back (i.e. the same letter as the one that appeared 2 letters ago.),P,None,,,,,0,2,2,2,0,1,1,1,,,,,,,,,,,,,,,,,,,,,,,,,,,,,,,,,,,,,,,,,,,1.265,199.9300363,None,201.1971078,None,None,1,,201.1971078,None,203.204142,None,,,,,,,,,,,,,,,,,,,,,,,,,,,,,,,P054,FENCOG,2,Post,2022_Jun_22_1158,N-Back (New Version 2021),2021.1.4,119.9423317
Conditions/Version_2Pr/twoback(1)_v2.xlsx,New rule: Press 'space' when you see 2-back (i.e. the same letter as the one that appeared 2 letters ago.),o,None,,,,,0,2,2,2,0,2,2,2,,,,,,,,,,,,,,,,,,,,,,,,,,,,,,,,,,,,,,,,,,,1.065,204.7036766,None,205.772659,None,None,1,,205.772659,None,207.7777925,None,,,,,,,,,,,,,,,,,,,,,,,,,,,,,,,P054,FENCOG,2,Post,2022_Jun_22_1158,N-Back (New Version 2021),2021.1.4,119.9423317
Conditions/Version_2Pr/twoback(1)_v2.xlsx,New rule: Press 'space' when you see 2-back (i.e. the same letter as the one that appeared 2 letters ago.),p,space,,,,,0,2,2,2,0,3,3,3,,,,,,,,,,,,,,,,,,,,,,,,,,,,,,,,,,,,,,,,,,,1.865,209.2770425,None,211.1500129,None,space,1,0.344857,211.1500129,None,211.5041307,None,,,,,,,,,,,,,,,,,,,,,,,,,,,,,,,P054,FENCOG,2,Post,2022_Jun_22_1158,N-Back (New Version 2021),2021.1.4,119.9423317
Conditions/Version_2Pr/twoback(1)_v2.xlsx,New rule: Press 'space' when you see 2-back (i.e. the same letter as the one that appeared 2 letters ago.),Y,None,,,,,0,2,2,2,0,4,4,4,,,,,,,,,,,,,,,,,,,,,,,,,,,,,,,,,,,,,,,,,,,1.215,213.0095249,None,214.2267669,None,None,1,,214.2267669,None,216.2335937,None,,,,,,,,,,,,,,,,,,,,,,,,,,,,,,,P054,FENCOG,2,Post,2022_Jun_22_1158,N-Back (New Version 2021),2021.1.4,119.9423317
Conditions/Version_2Pr/twoback(1)_v2.xlsx,New rule: Press 'space' when you see 2-back (i.e. the same letter as the one that appeared 2 letters ago.),q,None,,,,,0,2,2,2,0,5,5,5,,,,,,,,,,,,,,,,,,,,,,,,,,,,,,,,,,,,,,,,,,,1.89,217.7331856,None,219.6260079,None,None,1,,219.6260079,None,221.6318716,None,,,,,,,,,,,,,,,,,,,,,,,,,,,,,,,P054,FENCOG,2,Post,2022_Jun_22_1158,N-Back (New Version 2021),2021.1.4,119.9423317
Conditions/Version_2Pr/twoback(1)_v2.xlsx,New rule: Press 'space' when you see 2-back (i.e. the same letter as the one that appeared 2 letters ago.),m,None,,,,,0,2,2,2,0,6,6,6,,,,,,,,,,,,,,,,,,,,,,,,,,,,,,,,,,,,,,,,,,,1.34,223.1315466,None,224.4726598,None,None,1,,224.4726598,None,226.4722551,None,,,,,,,,,,,,,,,,,,,,,,,,,,,,,,,P054,FENCOG,2,Post,2022_Jun_22_1158,N-Back (New Version 2021),2021.1.4,119.9423317
Conditions/Version_2Pr/twoback(1)_v2.xlsx,New rule: Press 'space' when you see 2-back (i.e. the same letter as the one that appeared 2 letters ago.),Q,space,,,,,0,2,2,2,0,7,7,7,,,,,,,,,,,,,,,,,,,,,,,,,,,,,,,,,,,,,,,,,,,1.49,227.9717209,None,229.4657862,None,space,1,0.3733156,229.4657862,None,229.8487524,None,,,,,,,,,,,,,,,,,,,,,,,,,,,,,,,P054,FENCOG,2,Post,2022_Jun_22_1158,N-Back (New Version 2021),2021.1.4,119.9423317
Conditions/Version_2Pr/twoback(1)_v2.xlsx,New rule: Press 'space' when you see 2-back (i.e. the same letter as the one that appeared 2 letters ago.),L,None,,,,,0,2,2,2,0,8,8,8,,,,,,,,,,,,,,,,,,,,,,,,,,,,,,,,,,,,,,,,,,,1.44,231.3553145,None,232.7974952,None,None,1,,232.7974952,None,234.8030854,None,,,,,,,,,,,,,,,,,,,,,,,,,,,,,,,P054,FENCOG,2,Post,2022_Jun_22_1158,N-Back (New Version 2021),2021.1.4,119.9423317
Conditions/Version_2Pr/twoback(1)_v2.xlsx,New rule: Press 'space' when you see 2-back (i.e. the same letter as the one that appeared 2 letters ago.),q,space,,,,,0,2,2,2,0,9,9,9,,,,,,,,,,,,,,,,,,,,,,,,,,,,,,,,,,,,,,,,,,,2.015,236.3026447,None,238.3194009,None,None,0,,238.3194009,None,240.3308557,None,,,,,,,,,,,,,,,,,,,,,,,,,,,,,,,P054,FENCOG,2,Post,2022_Jun_22_1158,N-Back (New Version 2021),2021.1.4,119.9423317
Conditions/Version_2Pr/twoback(1)_v2.xlsx,New rule: Press 'space' when you see 2-back (i.e. the same letter as the one that appeared 2 letters ago.),,,,,,,0,2,2,2,,,,,,,,,,,,,,,,,,,,,,,,,,,,,,,,,,,,,,,,,,,,,,,,,,,,,,,,,,,,,,,,,,,,,,,,,,,,,,,,,,,,,,,,,P054,FENCOG,2,Post,2022_Jun_22_1158,N-Back (New Version 2021),2021.1.4,119.9423317
Conditions/Version_2Pr/threeback(1)_v2.xlsx,New rule: Press 'space' when you see 3-back (i.e. the same letter as the one that appeared 3 letters ago.),u,None,,,,,0,3,3,3,0,0,0,0,,,,,,,,,,,,,,,,,,,,,,,,,,,,,,,,,241.850512,None,244.8355897,None,space,1.5473703,244.8355897,None,241.850512,None,1.715,246.4116111,None,248.1341331,None,None,1,,248.1341331,None,250.141644,None,,,,,,,,,,,,,,,,,,,,,,,,,,,,,,,P054,FENCOG,2,Post,2022_Jun_22_1158,N-Back (New Version 2021),2021.1.4,119.9423317
Conditions/Version_2Pr/threeback(1)_v2.xlsx,New rule: Press 'space' when you see 3-back (i.e. the same letter as the one that appeared 3 letters ago.),U,None,,,,,0,3,3,3,0,1,1,1,,,,,,,,,,,,,,,,,,,,,,,,,,,,,,,,,,,,,,,,,,,1.115,251.639528,None,252.7576961,None,None,1,,252.7576961,None,254.7639424,None,,,,,,,,,,,,,,,,,,,,,,,,,,,,,,,P054,FENCOG,2,Post,2022_Jun_22_1158,N-Back (New Version 2021),2021.1.4,119.9423317
Conditions/Version_2Pr/threeback(1)_v2.xlsx,New rule: Press 'space' when you see 3-back (i.e. the same letter as the one that appeared 3 letters ago.),p,None,,,,,0,3,3,3,0,2,2,2,,,,,,,,,,,,,,,,,,,,,,,,,,,,,,,,,,,,,,,,,,,1.69,256.2634192,None,257.9551404,None,None,1,,257.9551404,None,259.9623438,None,,,,,,,,,,,,,,,,,,,,,,,,,,,,,,,P054,FENCOG,2,Post,2022_Jun_22_1158,N-Back (New Version 2021),2021.1.4,119.9423317
Conditions/Version_2Pr/threeback(1)_v2.xlsx,New rule: Press 'space' when you see 3-back (i.e. the same letter as the one that appeared 3 letters ago.),U,space,,,,,0,3,3,3,0,3,3,3,,,,,,,,,,,,,,,,,,,,,,,,,,,,,,,,,,,,,,,,,,,1.34,261.461938,None,262.8051009,None,space,1,0.2978076,262.8051009,None,263.114056,None,,,,,,,,,,,,,,,,,,,,,,,,,,,,,,,P054,FENCOG,2,Post,2022_Jun_22_1158,N-Back (New Version 2021),2021.1.4,119.9423317
Conditions/Version_2Pr/threeback(1)_v2.xlsx,New rule: Press 'space' when you see 3-back (i.e. the same letter as the one that appeared 3 letters ago.),e,None,,,,,0,3,3,3,0,4,4,4,,,,,,,,,,,,,,,,,,,,,,,,,,,,,,,,,,,,,,,,,,,1.29,264.6192303,None,265.9111449,None,None,1,,265.9111449,None,267.9183009,None,,,,,,,,,,,,,,,,,,,,,,,,,,,,,,,P054,FENCOG,2,Post,2022_Jun_22_1158,N-Back (New Version 2021),2021.1.4,119.9423317
Conditions/Version_2Pr/threeback(1)_v2.xlsx,New rule: Press 'space' when you see 3-back (i.e. the same letter as the one that appeared 3 letters ago.),R,None,,,,,0,3,3,3,0,5,5,5,,,,,,,,,,,,,,,,,,,,,,,,,,,,,,,,,,,,,,,,,,,1.465,269.4178658,None,270.8845768,None,None,1,,270.8845768,None,272.8918002,None,,,,,,,,,,,,,,,,,,,,,,,,,,,,,,,P054,FENCOG,2,Post,2022_Jun_22_1158,N-Back (New Version 2021),2021.1.4,119.9423317
Conditions/Version_2Pr/threeback(1)_v2.xlsx,New rule: Press 'space' when you see 3-back (i.e. the same letter as the one that appeared 3 letters ago.),p,None,,,,,0,3,3,3,0,6,6,6,,,,,,,,,,,,,,,,,,,,,,,,,,,,,,,,,,,,,,,,,,,1.44,274.3913707,None,275.8333819,None,None,1,,275.8333819,None,277.8403672,None,,,,,,,,,,,,,,,,,,,,,,,,,,,,,,,P054,FENCOG,2,Post,2022_Jun_22_1158,N-Back (New Version 2021),2021.1.4,119.9423317
Conditions/Version_2Pr/threeback(1)_v2.xlsx,New rule: Press 'space' when you see 3-back (i.e. the same letter as the one that appeared 3 letters ago.),E,space,,,,,0,3,3,3,0,7,7,7,,,,,,,,,,,,,,,,,,,,,,,,,,,,,,,,,,,,,,,,,,,1.09,279.339885,None,280.4318434,None,space,1,0.3672204,280.4318434,None,280.8087408,None,,,,,,,,,,,,,,,,,,,,,,,,,,,,,,,P054,FENCOG,2,Post,2022_Jun_22_1158,N-Back (New Version 2021),2021.1.4,119.9423317
Conditions/Version_2Pr/threeback(1)_v2.xlsx,New rule: Press 'space' when you see 3-back (i.e. the same letter as the one that appeared 3 letters ago.),k,None,,,,,0,3,3,3,0,8,8,8,,,,,,,,,,,,,,,,,,,,,,,,,,,,,,,,,,,,,,,,,,,1.39,282.3140433,None,283.7085802,None,None,1,,283.7085802,None,285.7130202,None,,,,,,,,,,,,,,,,,,,,,,,,,,,,,,,P054,FENCOG,2,Post,2022_Jun_22_1158,N-Back (New Version 2021),2021.1.4,119.9423317
Conditions/Version_2Pr/threeback(1)_v2.xlsx,New rule: Press 'space' when you see 3-back (i.e. the same letter as the one that appeared 3 letters ago.),m,None,,,,,0,3,3,3,0,9,9,9,,,,,,,,,,,,,,,,,,,,,,,,,,,,,,,,,,,,,,,,,,,1.415,287.2125622,None,288.6305803,None,None,1,,288.6305803,None,290.6364669,None,,,,,,,,,,,,,,,,,,,,,,,,,,,,,,,P054,FENCOG,2,Post,2022_Jun_22_1158,N-Back (New Version 2021),2021.1.4,119.9423317
Conditions/Version_2Pr/threeback(1)_v2.xlsx,New rule: Press 'space' when you see 3-back (i.e. the same letter as the one that appeared 3 letters ago.),,,,,,,0,3,3,3,,,,,,,,,,,,,,,,,,,,,,,,,,,,,,,,,,,,,,,,,,,,,,,,,,,,,,,,,,,,,,,,,,,,,,,,,,,,,,,,,,,,,,,,,P054,FENCOG,2,Post,2022_Jun_22_1158,N-Back (New Version 2021),2021.1.4,119.9423317
,,,,,,,,,,,,,,,,,,,,,,,,,,,,,,,,,,,,,,,,,,,,,,,,,,,,,,,,,,,,,,,,,,,,,,292.1435531,None,space,0.5066737,292.636235,None,,,,,,,,,,,,,,,,,,,,,,,,,P054,FENCOG,2,Post,2022_Jun_22_1158,N-Back (New Version 2021),2021.1.4,119.9423317
,,,,,,,,,,,,,,,,,,,,,,,,,,,,,,,,,,,,,,,,,,,,,,,,,,,,,,,,,,,,,,,,,,,,,,,,,,,,293.1661895,None,space,4.8656203,293.6612253,None,,,,,,,,,,,,,,,,,,,P054,FENCOG,2,Post,2022_Jun_22_1158,N-Back (New Version 2021),2021.1.4,119.9423317
,,,,Conditions/Version_1/zeroback(1)_v1.xlsx,Rule: Press 'space' when you see the letter 'x' or 'X'.,b,None,,,,,,,,,0,0,0,0,0,0,0,0,,,,,,,,,,,,,,,,,,,,,,,,,,,,,,,,,,,,,,,,,,,,,,,,,,,,,,,,,,,298.637475,None,301.6262178,None,space,0.3004983,301.6262178,None,298.637475,None,1.8036,303.7675756,None,None,1,303.7675756,None,,P054,FENCOG,2,Post,2022_Jun_22_1158,N-Back (New Version 2021),2021.1.4,119.9423317
,,,,Conditions/Version_1/zeroback(1)_v1.xlsx,Rule: Press 'space' when you see the letter 'x' or 'X'.,T,None,,,,,,,,,0,0,0,0,0,1,1,1,,,,,,,,,,,,,,,,,,,,,,,,,,,,,,,,,,,,,,,,,,,,,,,,,,,,,,,,,,,,,,,,,,,,,1.8098,307.5904635,None,None,1,307.5904635,None,,P054,FENCOG,2,Post,2022_Jun_22_1158,N-Back (New Version 2021),2021.1.4,119.9423317
,,,,Conditions/Version_1/zeroback(1)_v1.xlsx,Rule: Press 'space' when you see the letter 'x' or 'X'.,L,None,,,,,,,,,0,0,0,0,0,2,2,2,,,,,,,,,,,,,,,,,,,,,,,,,,,,,,,,,,,,,,,,,,,,,,,,,,,,,,,,,,,,,,,,,,,,,1.7416,311.3386822,None,None,1,311.3386822,None,,P054,FENCOG,2,Post,2022_Jun_22_1158,N-Back (New Version 2021),2021.1.4,119.9423317
,,,,Conditions/Version_1/zeroback(1)_v1.xlsx,Rule: Press 'space' when you see the letter 'x' or 'X'.,x,space,,,,,,,,,0,0,0,0,0,3,3,3,,,,,,,,,,,,,,,,,,,,,,,,,,,,,,,,,,,,,,,,,,,,,,,,,,,,,,,,,,,,,,,,,,,,,1.537,314.8792,None,space,1,314.8792,None,1.415749,P054,FENCOG,2,Post,2022_Jun_22_1158,N-Back (New Version 2021),2021.1.4,119.9423317
,,,,Conditions/Version_1/zeroback(1)_v1.xlsx,Rule: Press 'space' when you see the letter 'x' or 'X'.,o,None,,,,,,,,,0,0,0,0,0,4,4,4,,,,,,,,,,,,,,,,,,,,,,,,,,,,,,,,,,,,,,,,,,,,,,,,,,,,,,,,,,,,,,,,,,,,,1.0782,317.961587,None,None,1,317.961587,None,,P054,FENCOG,2,Post,2022_Jun_22_1158,N-Back (New Version 2021),2021.1.4,119.9423317
,,,,Conditions/Version_1/zeroback(1)_v1.xlsx,Rule: Press 'space' when you see the letter 'x' or 'X'.,P,None,,,,,,,,,0,0,0,0,0,5,5,5,,,,,,,,,,,,,,,,,,,,,,,,,,,,,,,,,,,,,,,,,,,,,,,,,,,,,,,,,,,,,,,,,,,,,1.7664,321.7296733,None,None,1,321.7296733,None,,P054,FENCOG,2,Post,2022_Jun_22_1158,N-Back (New Version 2021),2021.1.4,119.9423317
,,,,Conditions/Version_1/zeroback(1)_v1.xlsx,Rule: Press 'space' when you see the letter 'x' or 'X'.,X,space,,,,,,,,,0,0,0,0,0,6,6,6,,,,,,,,,,,,,,,,,,,,,,,,,,,,,,,,,,,,,,,,,,,,,,,,,,,,,,,,,,,,,,,,,,,,,1.9276,325.6689303,None,space,1,325.6689303,None,0.2979142,P054,FENCOG,2,Post,2022_Jun_22_1158,N-Back (New Version 2021),2021.1.4,119.9423317
,,,,Conditions/Version_1/zeroback(1)_v1.xlsx,Rule: Press 'space' when you see the letter 'x' or 'X'.,n,None,,,,,,,,,0,0,0,0,0,7,7,7,,,,,,,,,,,,,,,,,,,,,,,,,,,,,,,,,,,,,,,,,,,,,,,,,,,,,,,,,,,,,,,,,,,,,1.4874,329.1684033,None,None,1,329.1684033,None,,P054,FENCOG,2,Post,2022_Jun_22_1158,N-Back (New Version 2021),2021.1.4,119.9423317
,,,,Conditions/Version_1/zeroback(1)_v1.xlsx,Rule: Press 'space' when you see the letter 'x' or 'X'.,M,None,,,,,,,,,0,0,0,0,0,8,8,8,,,,,,,,,,,,,,,,,,,,,,,,,,,,,,,,,,,,,,,,,,,,,,,,,,,,,,,,,,,,,,,,,,,,,1.9214,333.1007964,None,None,1,333.1007964,None,,P054,FENCOG,2,Post,2022_Jun_22_1158,N-Back (New Version 2021),2021.1.4,119.9423317
,,,,Conditions/Version_1/zeroback(1)_v1.xlsx,Rule: Press 'space' when you see the letter 'x' or 'X'.,a,None,,,,,,,,,0,0,0,0,0,9,9,9,,,,,,,,,,,,,,,,,,,,,,,,,,,,,,,,,,,,,,,,,,,,,,,,,,,,,,,,,,,,,,,,,,,,,1.6672,336.7760317,None,None,1,336.7760317,None,,P054,FENCOG,2,Post,2022_Jun_22_1158,N-Back (New Version 2021),2021.1.4,119.9423317
,,,,Conditions/Version_1/zeroback(1)_v1.xlsx,Rule: Press 'space' when you see the letter 'x' or 'X'.,,,,,,,,,,,0,0,0,0,,,,,,,,,,,,,,,,,,,,,,,,,,,,,,,,,,,,,,,,,,,,,,,,,,,,,,,,,,,,,,,,,,,,,,,,,,,,,,,,,P054,FENCOG,2,Post,2022_Jun_22_1158,N-Back (New Version 2021),2021.1.4,119.9423317
,,,,Conditions/Version_1/oneback(1)_v1.xlsx,New rule: Press 'space' when you see 1-back (i.e. the same letter as the one that appeared 1 letter ago.),b,None,,,,,,,,,0,1,1,1,0,0,0,0,,,,,,,,,,,,,,,,,,,,,,,,,,,,,,,,,,,,,,,,,,,,,,,,,,,,,,,,,,,338.8064173,None,341.789807,None,space,0.1529908,341.789807,None,338.8064173,None,1.165,343.1496009,None,None,1,343.1496009,None,,P054,FENCOG,2,Post,2022_Jun_22_1158,N-Back (New Version 2021),2021.1.4,119.9423317
,,,,Conditions/Version_1/oneback(1)_v1.xlsx,New rule: Press 'space' when you see 1-back (i.e. the same letter as the one that appeared 1 letter ago.),p,None,,,,,,,,,0,1,1,1,0,1,1,1,,,,,,,,,,,,,,,,,,,,,,,,,,,,,,,,,,,,,,,,,,,,,,,,,,,,,,,,,,,,,,,,,,,,,1.9648,347.1195974,None,None,1,347.1195974,None,,P054,FENCOG,2,Post,2022_Jun_22_1158,N-Back (New Version 2021),2021.1.4,119.9423317
,,,,Conditions/Version_1/oneback(1)_v1.xlsx,New rule: Press 'space' when you see 1-back (i.e. the same letter as the one that appeared 1 letter ago.),M,None,,,,,,,,,0,1,1,1,0,2,2,2,,,,,,,,,,,,,,,,,,,,,,,,,,,,,,,,,,,,,,,,,,,,,,,,,,,,,,,,,,,,,,,,,,,,,1.723,350.8434336,None,None,1,350.8434336,None,,P054,FENCOG,2,Post,2022_Jun_22_1158,N-Back (New Version 2021),2021.1.4,119.9423317
,,,,Conditions/Version_1/oneback(1)_v1.xlsx,New rule: Press 'space' when you see 1-back (i.e. the same letter as the one that appeared 1 letter ago.),M,space,,,,,,,,,0,1,1,1,0,3,3,3,,,,,,,,,,,,,,,,,,,,,,,,,,,,,,,,,,,,,,,,,,,,,,,,,,,,,,,,,,,,,,,,,,,,,1.2084,354.0511001,None,space,1,354.0511001,None,0.2758494,P054,FENCOG,2,Post,2022_Jun_22_1158,N-Back (New Version 2021),2021.1.4,119.9423317
,,,,Conditions/Version_1/oneback(1)_v1.xlsx,New rule: Press 'space' when you see 1-back (i.e. the same letter as the one that appeared 1 letter ago.),n,None,,,,,,,,,0,1,1,1,0,4,4,4,,,,,,,,,,,,,,,,,,,,,,,,,,,,,,,,,,,,,,,,,,,,,,,,,,,,,,,,,,,,,,,,,,,,,1.599,357.649838,None,None,1,357.649838,None,,P054,FENCOG,2,Post,2022_Jun_22_1158,N-Back (New Version 2021),2021.1.4,119.9423317
,,,,Conditions/Version_1/oneback(1)_v1.xlsx,New rule: Press 'space' when you see 1-back (i.e. the same letter as the one that appeared 1 letter ago.),g,None,,,,,,,,,0,1,1,1,0,5,5,5,,,,,,,,,,,,,,,,,,,,,,,,,,,,,,,,,,,,,,,,,,,,,,,,,,,,,,,,,,,,,,,,,,,,,1.0224,360.6780119,None,None,1,360.6780119,None,,P054,FENCOG,2,Post,2022_Jun_22_1158,N-Back (New Version 2021),2021.1.4,119.9423317
,,,,Conditions/Version_1/oneback(1)_v1.xlsx,New rule: Press 'space' when you see 1-back (i.e. the same letter as the one that appeared 1 letter ago.),P,None,,,,,,,,,0,1,1,1,0,6,6,6,,,,,,,,,,,,,,,,,,,,,,,,,,,,,,,,,,,,,,,,,,,,,,,,,,,,,,,,,,,,,,,,,,,,,1.1092,363.7897409,None,None,1,363.7897409,None,,P054,FENCOG,2,Post,2022_Jun_22_1158,N-Back (New Version 2021),2021.1.4,119.9423317
,,,,Conditions/Version_1/oneback(1)_v1.xlsx,New rule: Press 'space' when you see 1-back (i.e. the same letter as the one that appeared 1 letter ago.),o,None,,,,,,,,,0,1,1,1,0,7,7,7,,,,,,,,,,,,,,,,,,,,,,,,,,,,,,,,,,,,,,,,,,,,,,,,,,,,,,,,,,,,,,,,,,,,,1.537,367.3304359,None,None,1,367.3304359,None,,P054,FENCOG,2,Post,2022_Jun_22_1158,N-Back (New Version 2021),2021.1.4,119.9423317
,,,,Conditions/Version_1/oneback(1)_v1.xlsx,New rule: Press 'space' when you see 1-back (i.e. the same letter as the one that appeared 1 letter ago.),f,None,,,,,,,,,0,1,1,1,0,8,8,8,,,,,,,,,,,,,,,,,,,,,,,,,,,,,,,,,,,,,,,,,,,,,,,,,,,,,,,,,,,,,,,,,,,,,1.7168,371.0477229,None,None,1,371.0477229,None,,P054,FENCOG,2,Post,2022_Jun_22_1158,N-Back (New Version 2021),2021.1.4,119.9423317
,,,,Conditions/Version_1/oneback(1)_v1.xlsx,New rule: Press 'space' when you see 1-back (i.e. the same letter as the one that appeared 1 letter ago.),F,space,,,,,,,,,0,1,1,1,0,9,9,9,,,,,,,,,,,,,,,,,,,,,,,,,,,,,,,,,,,,,,,,,,,,,,,,,,,,,,,,,,,,,,,,,,,,,1.1526,374.2144183,None,space,1,374.2144183,None,0.3365218,P054,FENCOG,2,Post,2022_Jun_22_1158,N-Back (New Version 2021),2021.1.4,119.9423317
,,,,Conditions/Version_1/oneback(1)_v1.xlsx,New rule: Press 'space' when you see 1-back (i.e. the same letter as the one that appeared 1 letter ago.),,,,,,,,,,,0,1,1,1,,,,,,,,,,,,,,,,,,,,,,,,,,,,,,,,,,,,,,,,,,,,,,,,,,,,,,,,,,,,,,,,,,,,,,,,,,,,,,,,,P054,FENCOG,2,Post,2022_Jun_22_1158,N-Back (New Version 2021),2021.1.4,119.9423317
,,,,Conditions/Version_1/twoback(1)_v1.xlsx,New rule: Press 'space' when you see 2-back (i.e. the same letter as the one that appeared 2 letters ago.),b,None,,,,,,,,,0,2,2,2,0,0,0,0,,,,,,,,,,,,,,,,,,,,,,,,,,,,,,,,,,,,,,,,,,,,,,,,,,,,,,,,,,,376.2462159,None,379.2292177,None,space,1.8819079,379.2292177,None,376.2462159,None,1.5804,382.7259261,None,None,1,382.7259261,None,,P054,FENCOG,2,Post,2022_Jun_22_1158,N-Back (New Version 2021),2021.1.4,119.9423317
,,,,Conditions/Version_1/twoback(1)_v1.xlsx,New rule: Press 'space' when you see 2-back (i.e. the same letter as the one that appeared 2 letters ago.),h,None,,,,,,,,,0,2,2,2,0,1,1,1,,,,,,,,,,,,,,,,,,,,,,,,,,,,,,,,,,,,,,,,,,,,,,,,,,,,,,,,,,,,,,,,,,,,,1.5494,386.2765243,None,None,1,386.2765243,None,,P054,FENCOG,2,Post,2022_Jun_22_1158,N-Back (New Version 2021),2021.1.4,119.9423317
,,,,Conditions/Version_1/twoback(1)_v1.xlsx,New rule: Press 'space' when you see 2-back (i.e. the same letter as the one that appeared 2 letters ago.),j,None,,,,,,,,,0,2,2,2,0,2,2,2,,,,,,,,,,,,,,,,,,,,,,,,,,,,,,,,,,,,,,,,,,,,,,,,,,,,,,,,,,,,,,,,,,,,,1.3882,389.6764529,None,None,1,389.6764529,None,,P054,FENCOG,2,Post,2022_Jun_22_1158,N-Back (New Version 2021),2021.1.4,119.9423317
,,,,Conditions/Version_1/twoback(1)_v1.xlsx,New rule: Press 'space' when you see 2-back (i.e. the same letter as the one that appeared 2 letters ago.),H,space,,,,,,,,,0,2,2,2,0,3,3,3,,,,,,,,,,,,,,,,,,,,,,,,,,,,,,,,,,,,,,,,,,,,,,,,,,,,,,,,,,,,,,,,,,,,,1.2084,392.8927138,None,space,1,392.8927138,None,0.7541187,P054,FENCOG,2,Post,2022_Jun_22_1158,N-Back (New Version 2021),2021.1.4,119.9423317
,,,,Conditions/Version_1/twoback(1)_v1.xlsx,New rule: Press 'space' when you see 2-back (i.e. the same letter as the one that appeared 2 letters ago.),p,None,,,,,,,,,0,2,2,2,0,4,4,4,,,,,,,,,,,,,,,,,,,,,,,,,,,,,,,,,,,,,,,,,,,,,,,,,,,,,,,,,,,,,,,,,,,,,1.0844,395.9892975,None,None,1,395.9892975,None,,P054,FENCOG,2,Post,2022_Jun_22_1158,N-Back (New Version 2021),2021.1.4,119.9423317
,,,,Conditions/Version_1/twoback(1)_v1.xlsx,New rule: Press 'space' when you see 2-back (i.e. the same letter as the one that appeared 2 letters ago.),p,None,,,,,,,,,0,2,2,2,0,5,5,5,,,,,,,,,,,,,,,,,,,,,,,,,,,,,,,,,,,,,,,,,,,,,,,,,,,,,,,,,,,,,,,,,,,,,1.382,399.379189,None,space,0,399.379189,None,1.3477165,P054,FENCOG,2,Post,2022_Jun_22_1158,N-Back (New Version 2021),2021.1.4,119.9423317
,,,,Conditions/Version_1/twoback(1)_v1.xlsx,New rule: Press 'space' when you see 2-back (i.e. the same letter as the one that appeared 2 letters ago.),w,None,,,,,,,,,0,2,2,2,0,6,6,6,,,,,,,,,,,,,,,,,,,,,,,,,,,,,,,,,,,,,,,,,,,,,,,,,,,,,,,,,,,,,,,,,,,,,1.3448,402.7295229,None,None,1,402.7295229,None,,P054,FENCOG,2,Post,2022_Jun_22_1158,N-Back (New Version 2021),2021.1.4,119.9423317
,,,,Conditions/Version_1/twoback(1)_v1.xlsx,New rule: Press 'space' when you see 2-back (i.e. the same letter as the one that appeared 2 letters ago.),R,None,,,,,,,,,0,2,2,2,0,7,7,7,,,,,,,,,,,,,,,,,,,,,,,,,,,,,,,,,,,,,,,,,,,,,,,,,,,,,,,,,,,,,,,,,,,,,1.6238,406.3626665,None,None,1,406.3626665,None,,P054,FENCOG,2,Post,2022_Jun_22_1158,N-Back (New Version 2021),2021.1.4,119.9423317
,,,,Conditions/Version_1/twoback(1)_v1.xlsx,New rule: Press 'space' when you see 2-back (i.e. the same letter as the one that appeared 2 letters ago.),a,None,,,,,,,,,0,2,2,2,0,8,8,8,,,,,,,,,,,,,,,,,,,,,,,,,,,,,,,,,,,,,,,,,,,,,,,,,,,,,,,,,,,,,,,,,,,,,1.1092,409.4846038,None,None,1,409.4846038,None,,P054,FENCOG,2,Post,2022_Jun_22_1158,N-Back (New Version 2021),2021.1.4,119.9423317
,,,,Conditions/Version_1/twoback(1)_v1.xlsx,New rule: Press 'space' when you see 2-back (i.e. the same letter as the one that appeared 2 letters ago.),r,space,,,,,,,,,0,2,2,2,0,9,9,9,,,,,,,,,,,,,,,,,,,,,,,,,,,,,,,,,,,,,,,,,,,,,,,,,,,,,,,,,,,,,,,,,,,,,1.041,412.5253131,None,space,1,412.5253131,None,0.4978697,P054,FENCOG,2,Post,2022_Jun_22_1158,N-Back (New Version 2021),2021.1.4,119.9423317
,,,,Conditions/Version_1/twoback(1)_v1.xlsx,New rule: Press 'space' when you see 2-back (i.e. the same letter as the one that appeared 2 letters ago.),,,,,,,,,,,0,2,2,2,,,,,,,,,,,,,,,,,,,,,,,,,,,,,,,,,,,,,,,,,,,,,,,,,,,,,,,,,,,,,,,,,,,,,,,,,,,,,,,,,P054,FENCOG,2,Post,2022_Jun_22_1158,N-Back (New Version 2021),2021.1.4,119.9423317
,,,,Conditions/Version_1/threeback(1)_v1.xlsx,New rule: Press 'space' when you see 3-back (i.e. the same letter as the one that appeared 3 letters ago.),r,None,,,,,,,,,0,3,3,3,0,0,0,0,,,,,,,,,,,,,,,,,,,,,,,,,,,,,,,,,,,,,,,,,,,,,,,,,,,,,,,,,,,414.5476701,None,417.5345931,None,space,2.2081354,417.5345931,None,414.5476701,None,1.6238,421.4062367,None,None,1,421.4062367,None,,P054,FENCOG,2,Post,2022_Jun_22_1158,N-Back (New Version 2021),2021.1.4,119.9423317
,,,,Conditions/Version_1/threeback(1)_v1.xlsx,New rule: Press 'space' when you see 3-back (i.e. the same letter as the one that appeared 3 letters ago.),o,None,,,,,,,,,0,3,3,3,0,1,1,1,,,,,,,,,,,,,,,,,,,,,,,,,,,,,,,,,,,,,,,,,,,,,,,,,,,,,,,,,,,,,,,,,,,,,1.2456,424.65508,None,None,1,424.65508,None,,P054,FENCOG,2,Post,2022_Jun_22_1158,N-Back (New Version 2021),2021.1.4,119.9423317
,,,,Conditions/Version_1/threeback(1)_v1.xlsx,New rule: Press 'space' when you see 3-back (i.e. the same letter as the one that appeared 3 letters ago.),P,None,,,,,,,,,0,3,3,3,0,2,2,2,,,,,,,,,,,,,,,,,,,,,,,,,,,,,,,,,,,,,,,,,,,,,,,,,,,,,,,,,,,,,,,,,,,,,1.041,427.6971379,None,None,1,427.6971379,None,,P054,FENCOG,2,Post,2022_Jun_22_1158,N-Back (New Version 2021),2021.1.4,119.9423317
,,,,Conditions/Version_1/threeback(1)_v1.xlsx,New rule: Press 'space' when you see 3-back (i.e. the same letter as the one that appeared 3 letters ago.),R,space,,,,,,,,,0,3,3,3,0,3,3,3,,,,,,,,,,,,,,,,,,,,,,,,,,,,,,,,,,,,,,,,,,,,,,,,,,,,,,,,,,,,,,,,,,,,,1.9896,431.6949249,None,None,0,431.6949249,None,,P054,FENCOG,2,Post,2022_Jun_22_1158,N-Back (New Version 2021),2021.1.4,119.9423317
,,,,Conditions/Version_1/threeback(1)_v1.xlsx,New rule: Press 'space' when you see 3-back (i.e. the same letter as the one that appeared 3 letters ago.),p,None,,,,,,,,,0,3,3,3,0,4,4,4,,,,,,,,,,,,,,,,,,,,,,,,,,,,,,,,,,,,,,,,,,,,,,,,,,,,,,,,,,,,,,,,,,,,,1.7106,435.4102467,None,space,0,435.4102467,None,1.1087195,P054,FENCOG,2,Post,2022_Jun_22_1158,N-Back (New Version 2021),2021.1.4,119.9423317
,,,,Conditions/Version_1/threeback(1)_v1.xlsx,New rule: Press 'space' when you see 3-back (i.e. the same letter as the one that appeared 3 letters ago.),E,None,,,,,,,,,0,3,3,3,0,5,5,5,,,,,,,,,,,,,,,,,,,,,,,,,,,,,,,,,,,,,,,,,,,,,,,,,,,,,,,,,,,,,,,,,,,,,1.4254,438.8368407,None,None,1,438.8368407,None,,P054,FENCOG,2,Post,2022_Jun_22_1158,N-Back (New Version 2021),2021.1.4,119.9423317
,,,,Conditions/Version_1/threeback(1)_v1.xlsx,New rule: Press 'space' when you see 3-back (i.e. the same letter as the one that appeared 3 letters ago.),e,None,,,,,,,,,0,3,3,3,0,6,6,6,,,,,,,,,,,,,,,,,,,,,,,,,,,,,,,,,,,,,,,,,,,,,,,,,,,,,,,,,,,,,,,,,,,,,1.5494,442.3915323,None,None,1,442.3915323,None,,P054,FENCOG,2,Post,2022_Jun_22_1158,N-Back (New Version 2021),2021.1.4,119.9423317
,,,,Conditions/Version_1/threeback(1)_v1.xlsx,New rule: Press 'space' when you see 3-back (i.e. the same letter as the one that appeared 3 letters ago.),m,None,,,,,,,,,0,3,3,3,0,7,7,7,,,,,,,,,,,,,,,,,,,,,,,,,,,,,,,,,,,,,,,,,,,,,,,,,,,,,,,,,,,,,,,,,,,,,1.2022,445.6006332,None,None,1,445.6006332,None,,P054,FENCOG,2,Post,2022_Jun_22_1158,N-Back (New Version 2021),2021.1.4,119.9423317
,,,,Conditions/Version_1/threeback(1)_v1.xlsx,New rule: Press 'space' when you see 3-back (i.e. the same letter as the one that appeared 3 letters ago.),n,None,,,,,,,,,0,3,3,3,0,8,8,8,,,,,,,,,,,,,,,,,,,,,,,,,,,,,,,,,,,,,,,,,,,,,,,,,,,,,,,,,,,,,,,,,,,,,1.3696,448.9813198,None,None,1,448.9813198,None,,P054,FENCOG,2,Post,2022_Jun_22_1158,N-Back (New Version 2021),2021.1.4,119.9423317
,,,,Conditions/Version_1/threeback(1)_v1.xlsx,New rule: Press 'space' when you see 3-back (i.e. the same letter as the one that appeared 3 letters ago.),e,space,,,,,,,,,0,3,3,3,0,9,9,9,,,,,,,,,,,,,,,,,,,,,,,,,,,,,,,,,,,,,,,,,,,,,,,,,,,,,,,,,,,,,,,,,,,,,1.0286,452.0142089,None,space,1,452.0142089,None,0.3364371,P054,FENCOG,2,Post,2022_Jun_22_1158,N-Back (New Version 2021),2021.1.4,119.9423317
,,,,Conditions/Version_1/threeback(1)_v1.xlsx,New rule: Press 'space' when you see 3-back (i.e. the same letter as the one that appeared 3 letters ago.),,,,,,,,,,,0,3,3,3,,,,,,,,,,,,,,,,,,,,,,,,,,,,,,,,,,,,,,,,,,,,,,,,,,,,,,,,,,,,,,,,,,,,,,,,,,,,,,,,,P054,FENCOG,2,Post,2022_Jun_22_1158,N-Back (New Version 2021),2021.1.4,119.9423317
,,,,Conditions/Version_1/oneback(2)_v1.xlsx,New rule: Press 'space' when you see 1-back (i.e. the same letter as the one that appeared 1 letter ago.),q,None,,,,,,,,,0,4,4,4,0,0,0,0,,,,,,,,,,,,,,,,,,,,,,,,,,,,,,,,,,,,,,,,,,,,,,,,,,,,,,,,,,,454.0372862,None,457.0236357,None,space,0.2871625,457.0236357,None,454.0372862,None,1.5742,458.9212856,None,None,1,458.9212856,None,,P054,FENCOG,2,Post,2022_Jun_22_1158,N-Back (New Version 2021),2021.1.4,119.9423317
,,,,Conditions/Version_1/oneback(2)_v1.xlsx,New rule: Press 'space' when you see 1-back (i.e. the same letter as the one that appeared 1 letter ago.),Q,space,,,,,,,,,0,4,4,4,0,1,1,1,,,,,,,,,,,,,,,,,,,,,,,,,,,,,,,,,,,,,,,,,,,,,,,,,,,,,,,,,,,,,,,,,,,,,1.537,462.4695679,None,space,1,462.4695679,None,0.3851633,P054,FENCOG,2,Post,2022_Jun_22_1158,N-Back (New Version 2021),2021.1.4,119.9423317
,,,,Conditions/Version_1/oneback(2)_v1.xlsx,New rule: Press 'space' when you see 1-back (i.e. the same letter as the one that appeared 1 letter ago.),P,None,,,,,,,,,0,4,4,4,0,2,2,2,,,,,,,,,,,,,,,,,,,,,,,,,,,,,,,,,,,,,,,,,,,,,,,,,,,,,,,,,,,,,,,,,,,,,1.5122,465.9940244,None,None,1,465.9940244,None,,P054,FENCOG,2,Post,2022_Jun_22_1158,N-Back (New Version 2021),2021.1.4,119.9423317
,,,,Conditions/Version_1/oneback(2)_v1.xlsx,New rule: Press 'space' when you see 1-back (i.e. the same letter as the one that appeared 1 letter ago.),o,None,,,,,,,,,0,4,4,4,0,3,3,3,,,,,,,,,,,,,,,,,,,,,,,,,,,,,,,,,,,,,,,,,,,,,,,,,,,,,,,,,,,,,,,,,,,,,1.4192,469.4290478,None,None,1,469.4290478,None,,P054,FENCOG,2,Post,2022_Jun_22_1158,N-Back (New Version 2021),2021.1.4,119.9423317
,,,,Conditions/Version_1/oneback(2)_v1.xlsx,New rule: Press 'space' when you see 1-back (i.e. the same letter as the one that appeared 1 letter ago.),m,None,,,,,,,,,0,4,4,4,0,4,4,4,,,,,,,,,,,,,,,,,,,,,,,,,,,,,,,,,,,,,,,,,,,,,,,,,,,,,,,,,,,,,,,,,,,,,1.4316,472.8658857,None,None,1,472.8658857,None,,P054,FENCOG,2,Post,2022_Jun_22_1158,N-Back (New Version 2021),2021.1.4,119.9423317
,,,,Conditions/Version_1/oneback(2)_v1.xlsx,New rule: Press 'space' when you see 1-back (i.e. the same letter as the one that appeared 1 letter ago.),Z,None,,,,,,,,,0,4,4,4,0,5,5,5,,,,,,,,,,,,,,,,,,,,,,,,,,,,,,,,,,,,,,,,,,,,,,,,,,,,,,,,,,,,,,,,,,,,,1.0782,475.9510472,None,None,1,475.9510472,None,,P054,FENCOG,2,Post,2022_Jun_22_1158,N-Back (New Version 2021),2021.1.4,119.9423317
,,,,Conditions/Version_1/oneback(2)_v1.xlsx,New rule: Press 'space' when you see 1-back (i.e. the same letter as the one that appeared 1 letter ago.),c,None,,,,,,,,,0,4,4,4,0,6,6,6,,,,,,,,,,,,,,,,,,,,,,,,,,,,,,,,,,,,,,,,,,,,,,,,,,,,,,,,,,,,,,,,,,,,,1.0348,478.9989365,None,None,1,478.9989365,None,,P054,FENCOG,2,Post,2022_Jun_22_1158,N-Back (New Version 2021),2021.1.4,119.9423317
,,,,Conditions/Version_1/oneback(2)_v1.xlsx,New rule: Press 'space' when you see 1-back (i.e. the same letter as the one that appeared 1 letter ago.),c,space,,,,,,,,,0,4,4,4,0,7,7,7,,,,,,,,,,,,,,,,,,,,,,,,,,,,,,,,,,,,,,,,,,,,,,,,,,,,,,,,,,,,,,,,,,,,,1.5308,482.5381987,None,space,1,482.5381987,None,0.3484927,P054,FENCOG,2,Post,2022_Jun_22_1158,N-Back (New Version 2021),2021.1.4,119.9423317
,,,,Conditions/Version_1/oneback(2)_v1.xlsx,New rule: Press 'space' when you see 1-back (i.e. the same letter as the one that appeared 1 letter ago.),P,None,,,,,,,,,0,4,4,4,0,8,8,8,,,,,,,,,,,,,,,,,,,,,,,,,,,,,,,,,,,,,,,,,,,,,,,,,,,,,,,,,,,,,,,,,,,,,1.7044,486.2453169,None,None,1,486.2453169,None,,P054,FENCOG,2,Post,2022_Jun_22_1158,N-Back (New Version 2021),2021.1.4,119.9423317
,,,,Conditions/Version_1/oneback(2)_v1.xlsx,New rule: Press 'space' when you see 1-back (i.e. the same letter as the one that appeared 1 letter ago.),p,space,,,,,,,,,0,4,4,4,0,9,9,9,,,,,,,,,,,,,,,,,,,,,,,,,,,,,,,,,,,,,,,,,,,,,,,,,,,,,,,,,,,,,,,,,,,,,1.413,489.6612141,None,space,1,489.6612141,None,0.3533901,P054,FENCOG,2,Post,2022_Jun_22_1158,N-Back (New Version 2021),2021.1.4,119.9423317
,,,,Conditions/Version_1/oneback(2)_v1.xlsx,New rule: Press 'space' when you see 1-back (i.e. the same letter as the one that appeared 1 letter ago.),,,,,,,,,,,0,4,4,4,,,,,,,,,,,,,,,,,,,,,,,,,,,,,,,,,,,,,,,,,,,,,,,,,,,,,,,,,,,,,,,,,,,,,,,,,,,,,,,,,P054,FENCOG,2,Post,2022_Jun_22_1158,N-Back (New Version 2021),2021.1.4,119.9423317
,,,,Conditions/Version_1/zeroback(2)_v1.xlsx,New rule: Press 'space' when you see the letter 'x' or 'X'.,p,None,,,,,,,,,0,5,5,5,0,0,0,0,,,,,,,,,,,,,,,,,,,,,,,,,,,,,,,,,,,,,,,,,,,,,,,,,,,,,,,,,,,491.6814307,None,494.6701041,None,space,0.256639,494.6701041,None,491.6814307,None,1.785,496.7423445,None,None,1,496.7423445,None,,P054,FENCOG,2,Post,2022_Jun_22_1158,N-Back (New Version 2021),2021.1.4,119.9423317
,,,,Conditions/Version_1/zeroback(2)_v1.xlsx,New rule: Press 'space' when you see the letter 'x' or 'X'.,L,None,,,,,,,,,0,5,5,5,0,1,1,1,,,,,,,,,,,,,,,,,,,,,,,,,,,,,,,,,,,,,,,,,,,,,,,,,,,,,,,,,,,,,,,,,,,,,1.2518,500.0004551,None,None,1,500.0004551,None,,P054,FENCOG,2,Post,2022_Jun_22_1158,N-Back (New Version 2021),2021.1.4,119.9423317
,,,,Conditions/Version_1/zeroback(2)_v1.xlsx,New rule: Press 'space' when you see the letter 'x' or 'X'.,G,None,,,,,,,,,0,5,5,5,0,2,2,2,,,,,,,,,,,,,,,,,,,,,,,,,,,,,,,,,,,,,,,,,,,,,,,,,,,,,,,,,,,,,,,,,,,,,1.6176,503.6350239,None,None,1,503.6350239,None,,P054,FENCOG,2,Post,2022_Jun_22_1158,N-Back (New Version 2021),2021.1.4,119.9423317
,,,,Conditions/Version_1/zeroback(2)_v1.xlsx,New rule: Press 'space' when you see the letter 'x' or 'X'.,y,None,,,,,,,,,0,5,5,5,0,3,3,3,,,,,,,,,,,,,,,,,,,,,,,,,,,,,,,,,,,,,,,,,,,,,,,,,,,,,,,,,,,,,,,,,,,,,1.041,506.6809512,None,None,1,506.6809512,None,,P054,FENCOG,2,Post,2022_Jun_22_1158,N-Back (New Version 2021),2021.1.4,119.9423317
,,,,Conditions/Version_1/zeroback(2)_v1.xlsx,New rule: Press 'space' when you see the letter 'x' or 'X'.,Y,None,,,,,,,,,0,5,5,5,0,4,4,4,,,,,,,,,,,,,,,,,,,,,,,,,,,,,,,,,,,,,,,,,,,,,,,,,,,,,,,,,,,,,,,,,,,,,1.3882,510.0714127,None,None,1,510.0714127,None,,P054,FENCOG,2,Post,2022_Jun_22_1158,N-Back (New Version 2021),2021.1.4,119.9423317
,,,,Conditions/Version_1/zeroback(2)_v1.xlsx,New rule: Press 'space' when you see the letter 'x' or 'X'.,W,None,,,,,,,,,0,5,5,5,0,5,5,5,,,,,,,,,,,,,,,,,,,,,,,,,,,,,,,,,,,,,,,,,,,,,,,,,,,,,,,,,,,,,,,,,,,,,1.568,513.6474295,None,None,1,513.6474295,None,,P054,FENCOG,2,Post,2022_Jun_22_1158,N-Back (New Version 2021),2021.1.4,119.9423317
,,,,Conditions/Version_1/zeroback(2)_v1.xlsx,New rule: Press 'space' when you see the letter 'x' or 'X'.,x,space,,,,,,,,,0,5,5,5,0,6,6,6,,,,,,,,,,,,,,,,,,,,,,,,,,,,,,,,,,,,,,,,,,,,,,,,,,,,,,,,,,,,,,,,,,,,,1.7788,517.4362106,None,space,1,517.4362106,None,0.3545074,P054,FENCOG,2,Post,2022_Jun_22_1158,N-Back (New Version 2021),2021.1.4,119.9423317
,,,,Conditions/Version_1/zeroback(2)_v1.xlsx,New rule: Press 'space' when you see the letter 'x' or 'X'.,X,space,,,,,,,,,0,5,5,5,0,7,7,7,,,,,,,,,,,,,,,,,,,,,,,,,,,,,,,,,,,,,,,,,,,,,,,,,,,,,,,,,,,,,,,,,,,,,1.289,520.728077,None,space,1,520.728077,None,0.3504408,P054,FENCOG,2,Post,2022_Jun_22_1158,N-Back (New Version 2021),2021.1.4,119.9423317
,,,,Conditions/Version_1/zeroback(2)_v1.xlsx,New rule: Press 'space' when you see the letter 'x' or 'X'.,p,None,,,,,,,,,0,5,5,5,0,8,8,8,,,,,,,,,,,,,,,,,,,,,,,,,,,,,,,,,,,,,,,,,,,,,,,,,,,,,,,,,,,,,,,,,,,,,1.9772,524.7184993,None,None,1,524.7184993,None,,P054,FENCOG,2,Post,2022_Jun_22_1158,N-Back (New Version 2021),2021.1.4,119.9423317
,,,,Conditions/Version_1/zeroback(2)_v1.xlsx,New rule: Press 'space' when you see the letter 'x' or 'X'.,h,None,,,,,,,,,0,5,5,5,0,9,9,9,,,,,,,,,,,,,,,,,,,,,,,,,,,,,,,,,,,,,,,,,,,,,,,,,,,,,,,,,,,,,,,,,,,,,1.5122,528.2421401,None,None,1,528.2421401,None,,P054,FENCOG,2,Post,2022_Jun_22_1158,N-Back (New Version 2021),2021.1.4,119.9423317
,,,,Conditions/Version_1/zeroback(2)_v1.xlsx,New rule: Press 'space' when you see the letter 'x' or 'X'.,,,,,,,,,,,0,5,5,5,,,,,,,,,,,,,,,,,,,,,,,,,,,,,,,,,,,,,,,,,,,,,,,,,,,,,,,,,,,,,,,,,,,,,,,,,,,,,,,,,P054,FENCOG,2,Post,2022_Jun_22_1158,N-Back (New Version 2021),2021.1.4,119.9423317
,,,,Conditions/Version_1/threeback(2)_v1.xlsx,New rule: Press 'space' when you see 3-back (i.e. the same letter as the one that appeared 3 letters ago.),q,None,,,,,,,,,0,6,6,6,0,0,0,0,,,,,,,,,,,,,,,,,,,,,,,,,,,,,,,,,,,,,,,,,,,,,,,,,,,,,,,,,,,530.273126,None,533.2497804,None,space,10.4128386,533.2497804,None,530.273126,None,1.6548,545.3539778,None,None,1,545.3539778,None,,P054,FENCOG,2,Post,2022_Jun_22_1158,N-Back (New Version 2021),2021.1.4,119.9423317
,,,,Conditions/Version_1/threeback(2)_v1.xlsx,New rule: Press 'space' when you see 3-back (i.e. the same letter as the one that appeared 3 letters ago.),Y,None,,,,,,,,,0,6,6,6,0,1,1,1,,,,,,,,,,,,,,,,,,,,,,,,,,,,,,,,,,,,,,,,,,,,,,,,,,,,,,,,,,,,,,,,,,,,,1.4502,548.8100713,None,None,1,548.8100713,None,,P054,FENCOG,2,Post,2022_Jun_22_1158,N-Back (New Version 2021),2021.1.4,119.9423317
,,,,Conditions/Version_1/threeback(2)_v1.xlsx,New rule: Press 'space' when you see 3-back (i.e. the same letter as the one that appeared 3 letters ago.),p,None,,,,,,,,,0,6,6,6,0,2,2,2,,,,,,,,,,,,,,,,,,,,,,,,,,,,,,,,,,,,,,,,,,,,,,,,,,,,,,,,,,,,,,,,,,,,,1.7044,552.5174329,None,None,1,552.5174329,None,,P054,FENCOG,2,Post,2022_Jun_22_1158,N-Back (New Version 2021),2021.1.4,119.9423317
,,,,Conditions/Version_1/threeback(2)_v1.xlsx,New rule: Press 'space' when you see 3-back (i.e. the same letter as the one that appeared 3 letters ago.),p,None,,,,,,,,,0,6,6,6,0,3,3,3,,,,,,,,,,,,,,,,,,,,,,,,,,,,,,,,,,,,,,,,,,,,,,,,,,,,,,,,,,,,,,,,,,,,,1.9772,556.4997261,None,None,1,556.4997261,None,,P054,FENCOG,2,Post,2022_Jun_22_1158,N-Back (New Version 2021),2021.1.4,119.9423317
,,,,Conditions/Version_1/threeback(2)_v1.xlsx,New rule: Press 'space' when you see 3-back (i.e. the same letter as the one that appeared 3 letters ago.),y,space,,,,,,,,,0,6,6,6,0,4,4,4,,,,,,,,,,,,,,,,,,,,,,,,,,,,,,,,,,,,,,,,,,,,,,,,,,,,,,,,,,,,,,,,,,,,,1.0782,559.5818351,None,space,1,559.5818351,None,0.6171029,P054,FENCOG,2,Post,2022_Jun_22_1158,N-Back (New Version 2021),2021.1.4,119.9423317
,,,,Conditions/Version_1/threeback(2)_v1.xlsx,New rule: Press 'space' when you see 3-back (i.e. the same letter as the one that appeared 3 letters ago.),u,None,,,,,,,,,0,6,6,6,0,5,5,5,,,,,,,,,,,,,,,,,,,,,,,,,,,,,,,,,,,,,,,,,,,,,,,,,,,,,,,,,,,,,,,,,,,,,1.9152,563.4982953,None,None,1,563.4982953,None,,P054,FENCOG,2,Post,2022_Jun_22_1158,N-Back (New Version 2021),2021.1.4,119.9423317
,,,,Conditions/Version_1/threeback(2)_v1.xlsx,New rule: Press 'space' when you see 3-back (i.e. the same letter as the one that appeared 3 letters ago.),P,space,,,,,,,,,0,6,6,6,0,6,6,6,,,,,,,,,,,,,,,,,,,,,,,,,,,,,,,,,,,,,,,,,,,,,,,,,,,,,,,,,,,,,,,,,,,,,1.2084,566.7133452,None,space,1,566.7133452,None,0.845186,P054,FENCOG,2,Post,2022_Jun_22_1158,N-Back (New Version 2021),2021.1.4,119.9423317
,,,,Conditions/Version_1/threeback(2)_v1.xlsx,New rule: Press 'space' when you see 3-back (i.e. the same letter as the one that appeared 3 letters ago.),a,None,,,,,,,,,0,6,6,6,0,7,7,7,,,,,,,,,,,,,,,,,,,,,,,,,,,,,,,,,,,,,,,,,,,,,,,,,,,,,,,,,,,,,,,,,,,,,1.6486,570.3621328,None,None,1,570.3621328,None,,P054,FENCOG,2,Post,2022_Jun_22_1158,N-Back (New Version 2021),2021.1.4,119.9423317
,,,,Conditions/Version_1/threeback(2)_v1.xlsx,New rule: Press 'space' when you see 3-back (i.e. the same letter as the one that appeared 3 letters ago.),U,space,,,,,,,,,0,6,6,6,0,8,8,8,,,,,,,,,,,,,,,,,,,,,,,,,,,,,,,,,,,,,,,,,,,,,,,,,,,,,,,,,,,,,,,,,,,,,1.8098,574.1789671,None,None,0,574.1789671,None,,P054,FENCOG,2,Post,2022_Jun_22_1158,N-Back (New Version 2021),2021.1.4,119.9423317
,,,,Conditions/Version_1/threeback(2)_v1.xlsx,New rule: Press 'space' when you see 3-back (i.e. the same letter as the one that appeared 3 letters ago.),q,None,,,,,,,,,0,6,6,6,0,9,9,9,,,,,,,,,,,,,,,,,,,,,,,,,,,,,,,,,,,,,,,,,,,,,,,,,,,,,,,,,,,,,,,,,,,,,1.1154,577.3029331,None,None,1,577.3029331,None,,P054,FENCOG,2,Post,2022_Jun_22_1158,N-Back (New Version 2021),2021.1.4,119.9423317
,,,,Conditions/Version_1/threeback(2)_v1.xlsx,New rule: Press 'space' when you see 3-back (i.e. the same letter as the one that appeared 3 letters ago.),,,,,,,,,,,0,6,6,6,,,,,,,,,,,,,,,,,,,,,,,,,,,,,,,,,,,,,,,,,,,,,,,,,,,,,,,,,,,,,,,,,,,,,,,,,,,,,,,,,P054,FENCOG,2,Post,2022_Jun_22_1158,N-Back (New Version 2021),2021.1.4,119.9423317
,,,,Conditions/Version_1/twoback(2)_v1.xlsx,New rule: Press 'space' when you see 2-back (i.e. the same letter as the one that appeared 2 letters ago.),q,None,,,,,,,,,0,7,7,7,0,0,0,0,,,,,,,,,,,,,,,,,,,,,,,,,,,,,,,,,,,,,,,,,,,,,,,,,,,,,,,,,,,579.3322198,None,582.3192909,None,space,0.3274829,582.3192909,None,579.3322198,None,1.8532,584.5412797,None,None,1,584.5412797,None,,P054,FENCOG,2,Post,2022_Jun_22_1158,N-Back (New Version 2021),2021.1.4,119.9423317
,,,,Conditions/Version_1/twoback(2)_v1.xlsx,New rule: Press 'space' when you see 2-back (i.e. the same letter as the one that appeared 2 letters ago.),r,None,,,,,,,,,0,7,7,7,0,1,1,1,,,,,,,,,,,,,,,,,,,,,,,,,,,,,,,,,,,,,,,,,,,,,,,,,,,,,,,,,,,,,,,,,,,,,1.4068,587.9485889,None,None,1,587.9485889,None,,P054,FENCOG,2,Post,2022_Jun_22_1158,N-Back (New Version 2021),2021.1.4,119.9423317
,,,,Conditions/Version_1/twoback(2)_v1.xlsx,New rule: Press 'space' when you see 2-back (i.e. the same letter as the one that appeared 2 letters ago.),q,space,,,,,,,,,0,7,7,7,0,2,2,2,,,,,,,,,,,,,,,,,,,,,,,,,,,,,,,,,,,,,,,,,,,,,,,,,,,,,,,,,,,,,,,,,,,,,1.3138,591.2661202,None,space,1,591.2661202,None,1.2526074,P054,FENCOG,2,Post,2022_Jun_22_1158,N-Back (New Version 2021),2021.1.4,119.9423317
,,,,Conditions/Version_1/twoback(2)_v1.xlsx,New rule: Press 'space' when you see 2-back (i.e. the same letter as the one that appeared 2 letters ago.),P,None,,,,,,,,,0,7,7,7,0,3,3,3,,,,,,,,,,,,,,,,,,,,,,,,,,,,,,,,,,,,,,,,,,,,,,,,,,,,,,,,,,,,,,,,,,,,,1.7602,595.0382489,None,None,1,595.0382489,None,,P054,FENCOG,2,Post,2022_Jun_22_1158,N-Back (New Version 2021),2021.1.4,119.9423317
,,,,Conditions/Version_1/twoback(2)_v1.xlsx,New rule: Press 'space' when you see 2-back (i.e. the same letter as the one that appeared 2 letters ago.),p,None,,,,,,,,,0,7,7,7,0,4,4,4,,,,,,,,,,,,,,,,,,,,,,,,,,,,,,,,,,,,,,,,,,,,,,,,,,,,,,,,,,,,,,,,,,,,,1.2022,598.245475,None,space,0,598.245475,None,0.6332275,P054,FENCOG,2,Post,2022_Jun_22_1158,N-Back (New Version 2021),2021.1.4,119.9423317
,,,,Conditions/Version_1/twoback(2)_v1.xlsx,New rule: Press 'space' when you see 2-back (i.e. the same letter as the one that appeared 2 letters ago.),H,None,,,,,,,,,0,7,7,7,0,5,5,5,,,,,,,,,,,,,,,,,,,,,,,,,,,,,,,,,,,,,,,,,,,,,,,,,,,,,,,,,,,,,,,,,,,,,1.847,602.0945654,None,None,1,602.0945654,None,,P054,FENCOG,2,Post,2022_Jun_22_1158,N-Back (New Version 2021),2021.1.4,119.9423317
,,,,Conditions/Version_1/twoback(2)_v1.xlsx,New rule: Press 'space' when you see 2-back (i.e. the same letter as the one that appeared 2 letters ago.),g,None,,,,,,,,,0,7,7,7,0,6,6,6,,,,,,,,,,,,,,,,,,,,,,,,,,,,,,,,,,,,,,,,,,,,,,,,,,,,,,,,,,,,,,,,,,,,,1.1278,605.2282467,None,None,1,605.2282467,None,,P054,FENCOG,2,Post,2022_Jun_22_1158,N-Back (New Version 2021),2021.1.4,119.9423317
,,,,Conditions/Version_1/twoback(2)_v1.xlsx,New rule: Press 'space' when you see 2-back (i.e. the same letter as the one that appeared 2 letters ago.),j,None,,,,,,,,,0,7,7,7,0,7,7,7,,,,,,,,,,,,,,,,,,,,,,,,,,,,,,,,,,,,,,,,,,,,,,,,,,,,,,,,,,,,,,,,,,,,,1.7354,608.9758351,None,None,1,608.9758351,None,,P054,FENCOG,2,Post,2022_Jun_22_1158,N-Back (New Version 2021),2021.1.4,119.9423317
,,,,Conditions/Version_1/twoback(2)_v1.xlsx,New rule: Press 'space' when you see 2-back (i.e. the same letter as the one that appeared 2 letters ago.),g,space,,,,,,,,,0,7,7,7,0,8,8,8,,,,,,,,,,,,,,,,,,,,,,,,,,,,,,,,,,,,,,,,,,,,,,,,,,,,,,,,,,,,,,,,,,,,,1.599,612.5757996,None,space,1,612.5757996,None,0.5429972,P054,FENCOG,2,Post,2022_Jun_22_1158,N-Back (New Version 2021),2021.1.4,119.9423317
,,,,Conditions/Version_1/twoback(2)_v1.xlsx,New rule: Press 'space' when you see 2-back (i.e. the same letter as the one that appeared 2 letters ago.),G,None,,,,,,,,,0,7,7,7,0,9,9,9,,,,,,,,,,,,,,,,,,,,,,,,,,,,,,,,,,,,,,,,,,,,,,,,,,,,,,,,,,,,,,,,,,,,,1.2704,615.8590422,None,None,1,615.8590422,None,,P054,FENCOG,2,Post,2022_Jun_22_1158,N-Back (New Version 2021),2021.1.4,119.9423317
,,,,Conditions/Version_1/twoback(2)_v1.xlsx,New rule: Press 'space' when you see 2-back (i.e. the same letter as the one that appeared 2 letters ago.),,,,,,,,,,,0,7,7,7,,,,,,,,,,,,,,,,,,,,,,,,,,,,,,,,,,,,,,,,,,,,,,,,,,,,,,,,,,,,,,,,,,,,,,,,,,,,,,,,,P054,FENCOG,2,Post,2022_Jun_22_1158,N-Back (New Version 2021),2021.1.4,119.9423317
,,,,Conditions/Version_1/threeback(3)_v1.xlsx,New rule: Press 'space' when you see 3-back (i.e. the same letter as the one that appeared 3 letters ago.),w,None,,,,,,,,,0,8,8,8,0,0,0,0,,,,,,,,,,,,,,,,,,,,,,,,,,,,,,,,,,,,,,,,,,,,,,,,,,,,,,,,,,,617.8892366,None,620.8745129,None,space,3.748159,620.8745129,None,617.8892366,None,1.3076,625.9662435,None,None,1,625.9662435,None,,P054,FENCOG,2,Post,2022_Jun_22_1158,N-Back (New Version 2021),2021.1.4,119.9423317
,,,,Conditions/Version_1/threeback(3)_v1.xlsx,New rule: Press 'space' when you see 3-back (i.e. the same letter as the one that appeared 3 letters ago.),p,None,,,,,,,,,0,8,8,8,0,1,1,1,,,,,,,,,,,,,,,,,,,,,,,,,,,,,,,,,,,,,,,,,,,,,,,,,,,,,,,,,,,,,,,,,,,,,1.5556,629.5278509,None,None,1,629.5278509,None,,P054,FENCOG,2,Post,2022_Jun_22_1158,N-Back (New Version 2021),2021.1.4,119.9423317
,,,,Conditions/Version_1/threeback(3)_v1.xlsx,New rule: Press 'space' when you see 3-back (i.e. the same letter as the one that appeared 3 letters ago.),P,None,,,,,,,,,0,8,8,8,0,2,2,2,,,,,,,,,,,,,,,,,,,,,,,,,,,,,,,,,,,,,,,,,,,,,,,,,,,,,,,,,,,,,,,,,,,,,1.7168,633.2527495,None,None,1,633.2527495,None,,P054,FENCOG,2,Post,2022_Jun_22_1158,N-Back (New Version 2021),2021.1.4,119.9423317
,,,,Conditions/Version_1/threeback(3)_v1.xlsx,New rule: Press 'space' when you see 3-back (i.e. the same letter as the one that appeared 3 letters ago.),i,None,,,,,,,,,0,8,8,8,0,3,3,3,,,,,,,,,,,,,,,,,,,,,,,,,,,,,,,,,,,,,,,,,,,,,,,,,,,,,,,,,,,,,,,,,,,,,1.9152,637.1765081,None,None,1,637.1765081,None,,P054,FENCOG,2,Post,2022_Jun_22_1158,N-Back (New Version 2021),2021.1.4,119.9423317
,,,,Conditions/Version_1/threeback(3)_v1.xlsx,New rule: Press 'space' when you see 3-back (i.e. the same letter as the one that appeared 3 letters ago.),f,None,,,,,,,,,0,8,8,8,0,4,4,4,,,,,,,,,,,,,,,,,,,,,,,,,,,,,,,,,,,,,,,,,,,,,,,,,,,,,,,,,,,,,,,,,,,,,1.1402,640.3274969,None,None,1,640.3274969,None,,P054,FENCOG,2,Post,2022_Jun_22_1158,N-Back (New Version 2021),2021.1.4,119.9423317
,,,,Conditions/Version_1/threeback(3)_v1.xlsx,New rule: Press 'space' when you see 3-back (i.e. the same letter as the one that appeared 3 letters ago.),o,None,,,,,,,,,0,8,8,8,0,5,5,5,,,,,,,,,,,,,,,,,,,,,,,,,,,,,,,,,,,,,,,,,,,,,,,,,,,,,,,,,,,,,,,,,,,,,1.01,643.3489836,None,None,1,643.3489836,None,,P054,FENCOG,2,Post,2022_Jun_22_1158,N-Back (New Version 2021),2021.1.4,119.9423317
,,,,Conditions/Version_1/threeback(3)_v1.xlsx,New rule: Press 'space' when you see 3-back (i.e. the same letter as the one that appeared 3 letters ago.),w,None,,,,,,,,,0,8,8,8,0,6,6,6,,,,,,,,,,,,,,,,,,,,,,,,,,,,,,,,,,,,,,,,,,,,,,,,,,,,,,,,,,,,,,,,,,,,,1.599,646.9498674,None,None,1,646.9498674,None,,P054,FENCOG,2,Post,2022_Jun_22_1158,N-Back (New Version 2021),2021.1.4,119.9423317
,,,,Conditions/Version_1/threeback(3)_v1.xlsx,New rule: Press 'space' when you see 3-back (i.e. the same letter as the one that appeared 3 letters ago.),F,space,,,,,,,,,0,8,8,8,0,7,7,7,,,,,,,,,,,,,,,,,,,,,,,,,,,,,,,,,,,,,,,,,,,,,,,,,,,,,,,,,,,,,,,,,,,,,1.5804,650.5383328,None,space,1,650.5383328,None,0.6445127,P054,FENCOG,2,Post,2022_Jun_22_1158,N-Back (New Version 2021),2021.1.4,119.9423317
,,,,Conditions/Version_1/threeback(3)_v1.xlsx,New rule: Press 'space' when you see 3-back (i.e. the same letter as the one that appeared 3 letters ago.),p,None,,,,,,,,,0,8,8,8,0,8,8,8,,,,,,,,,,,,,,,,,,,,,,,,,,,,,,,,,,,,,,,,,,,,,,,,,,,,,,,,,,,,,,,,,,,,,1.0534,653.5968657,None,None,1,653.5968657,None,,P054,FENCOG,2,Post,2022_Jun_22_1158,N-Back (New Version 2021),2021.1.4,119.9423317
,,,,Conditions/Version_1/threeback(3)_v1.xlsx,New rule: Press 'space' when you see 3-back (i.e. the same letter as the one that appeared 3 letters ago.),W,space,,,,,,,,,0,8,8,8,0,9,9,9,,,,,,,,,,,,,,,,,,,,,,,,,,,,,,,,,,,,,,,,,,,,,,,,,,,,,,,,,,,,,,,,,,,,,1.0596,656.6699423,None,None,0,656.6699423,None,,P054,FENCOG,2,Post,2022_Jun_22_1158,N-Back (New Version 2021),2021.1.4,119.9423317
,,,,Conditions/Version_1/threeback(3)_v1.xlsx,New rule: Press 'space' when you see 3-back (i.e. the same letter as the one that appeared 3 letters ago.),,,,,,,,,,,0,8,8,8,,,,,,,,,,,,,,,,,,,,,,,,,,,,,,,,,,,,,,,,,,,,,,,,,,,,,,,,,,,,,,,,,,,,,,,,,,,,,,,,,P054,FENCOG,2,Post,2022_Jun_22_1158,N-Back (New Version 2021),2021.1.4,119.9423317
,,,,Conditions/Version_1/zeroback(3)_v1.xlsx,New rule: Press 'space' when you see the letter 'x' or 'X'.,X,space,,,,,,,,,0,9,9,9,0,0,0,0,,,,,,,,,,,,,,,,,,,,,,,,,,,,,,,,,,,,,,,,,,,,,,,,,,,,,,,,,,,658.6905155,None,661.6920543,None,space,0.3226363,661.6920543,None,658.6905155,None,1.3448,663.3939446,None,space,1,663.3939446,None,0.4364468,P054,FENCOG,2,Post,2022_Jun_22_1158,N-Back (New Version 2021),2021.1.4,119.9423317
,,,,Conditions/Version_1/zeroback(3)_v1.xlsx,New rule: Press 'space' when you see the letter 'x' or 'X'.,B,None,,,,,,,,,0,9,9,9,0,1,1,1,,,,,,,,,,,,,,,,,,,,,,,,,,,,,,,,,,,,,,,,,,,,,,,,,,,,,,,,,,,,,,,,,,,,,1.8036,667.2101417,None,None,1,667.2101417,None,,P054,FENCOG,2,Post,2022_Jun_22_1158,N-Back (New Version 2021),2021.1.4,119.9423317
,,,,Conditions/Version_1/zeroback(3)_v1.xlsx,New rule: Press 'space' when you see the letter 'x' or 'X'.,m,None,,,,,,,,,0,9,9,9,0,2,2,2,,,,,,,,,,,,,,,,,,,,,,,,,,,,,,,,,,,,,,,,,,,,,,,,,,,,,,,,,,,,,,,,,,,,,1.599,670.8157617,None,None,1,670.8157617,None,,P054,FENCOG,2,Post,2022_Jun_22_1158,N-Back (New Version 2021),2021.1.4,119.9423317
,,,,Conditions/Version_1/zeroback(3)_v1.xlsx,New rule: Press 'space' when you see the letter 'x' or 'X'.,m,None,,,,,,,,,0,9,9,9,0,3,3,3,,,,,,,,,,,,,,,,,,,,,,,,,,,,,,,,,,,,,,,,,,,,,,,,,,,,,,,,,,,,,,,,,,,,,1.9028,674.7230436,None,None,1,674.7230436,None,,P054,FENCOG,2,Post,2022_Jun_22_1158,N-Back (New Version 2021),2021.1.4,119.9423317
,,,,Conditions/Version_1/zeroback(3)_v1.xlsx,New rule: Press 'space' when you see the letter 'x' or 'X'.,o,None,,,,,,,,,0,9,9,9,0,4,4,4,,,,,,,,,,,,,,,,,,,,,,,,,,,,,,,,,,,,,,,,,,,,,,,,,,,,,,,,,,,,,,,,,,,,,1.7726,678.4987343,None,None,1,678.4987343,None,,P054,FENCOG,2,Post,2022_Jun_22_1158,N-Back (New Version 2021),2021.1.4,119.9423317
,,,,Conditions/Version_1/zeroback(3)_v1.xlsx,New rule: Press 'space' when you see the letter 'x' or 'X'.,p,None,,,,,,,,,0,9,9,9,0,5,5,5,,,,,,,,,,,,,,,,,,,,,,,,,,,,,,,,,,,,,,,,,,,,,,,,,,,,,,,,,,,,,,,,,,,,,1.7788,682.2875713,None,space,0,682.2875713,None,0.3190137,P054,FENCOG,2,Post,2022_Jun_22_1158,N-Back (New Version 2021),2021.1.4,119.9423317
,,,,Conditions/Version_1/zeroback(3)_v1.xlsx,New rule: Press 'space' when you see the letter 'x' or 'X'.,G,None,,,,,,,,,0,9,9,9,0,6,6,6,,,,,,,,,,,,,,,,,,,,,,,,,,,,,,,,,,,,,,,,,,,,,,,,,,,,,,,,,,,,,,,,,,,,,1.6796,685.970224,None,None,1,685.970224,None,,P054,FENCOG,2,Post,2022_Jun_22_1158,N-Back (New Version 2021),2021.1.4,119.9423317
,,,,Conditions/Version_1/zeroback(3)_v1.xlsx,New rule: Press 'space' when you see the letter 'x' or 'X'.,X,space,,,,,,,,,0,9,9,9,0,7,7,7,,,,,,,,,,,,,,,,,,,,,,,,,,,,,,,,,,,,,,,,,,,,,,,,,,,,,,,,,,,,,,,,,,,,,1.475,689.4528525,None,space,1,689.4528525,None,0.3455882,P054,FENCOG,2,Post,2022_Jun_22_1158,N-Back (New Version 2021),2021.1.4,119.9423317
,,,,Conditions/Version_1/zeroback(3)_v1.xlsx,New rule: Press 'space' when you see the letter 'x' or 'X'.,p,None,,,,,,,,,0,9,9,9,0,8,8,8,,,,,,,,,,,,,,,,,,,,,,,,,,,,,,,,,,,,,,,,,,,,,,,,,,,,,,,,,,,,,,,,,,,,,1.3634,692.8261844,None,None,1,692.8261844,None,,P054,FENCOG,2,Post,2022_Jun_22_1158,N-Back (New Version 2021),2021.1.4,119.9423317
,,,,Conditions/Version_1/zeroback(3)_v1.xlsx,New rule: Press 'space' when you see the letter 'x' or 'X'.,x,space,,,,,,,,,0,9,9,9,0,9,9,9,,,,,,,,,,,,,,,,,,,,,,,,,,,,,,,,,,,,,,,,,,,,,,,,,,,,,,,,,,,,,,,,,,,,,1.847,696.6759037,None,space,1,696.6759037,None,0.3546967,P054,FENCOG,2,Post,2022_Jun_22_1158,N-Back (New Version 2021),2021.1.4,119.9423317
,,,,Conditions/Version_1/zeroback(3)_v1.xlsx,New rule: Press 'space' when you see the letter 'x' or 'X'.,,,,,,,,,,,0,9,9,9,,,,,,,,,,,,,,,,,,,,,,,,,,,,,,,,,,,,,,,,,,,,,,,,,,,,,,,,,,,,,,,,,,,,,,,,,,,,,,,,,P054,FENCOG,2,Post,2022_Jun_22_1158,N-Back (New Version 2021),2021.1.4,119.9423317
,,,,Conditions/Version_1/twoback(3)_v1.xlsx,New rule: Press 'space' when you see 2-back (i.e. the same letter as the one that appeared 2 letters ago.),e,None,,,,,,,,,0,10,10,10,0,0,0,0,,,,,,,,,,,,,,,,,,,,,,,,,,,,,,,,,,,,,,,,,,,,,,,,,,,,,,,,,,,698.7050048,None,701.6931446,None,space,0.0332508,701.6931446,None,698.7050048,None,1.2084,702.9728613,None,None,1,702.9728613,None,,P054,FENCOG,2,Post,2022_Jun_22_1158,N-Back (New Version 2021),2021.1.4,119.9423317
,,,,Conditions/Version_1/twoback(3)_v1.xlsx,New rule: Press 'space' when you see 2-back (i.e. the same letter as the one that appeared 2 letters ago.),o,None,,,,,,,,,0,10,10,10,0,1,1,1,,,,,,,,,,,,,,,,,,,,,,,,,,,,,,,,,,,,,,,,,,,,,,,,,,,,,,,,,,,,,,,,,,,,,1.878,706.8633716,None,None,1,706.8633716,None,,P054,FENCOG,2,Post,2022_Jun_22_1158,N-Back (New Version 2021),2021.1.4,119.9423317
,,,,Conditions/Version_1/twoback(3)_v1.xlsx,New rule: Press 'space' when you see 2-back (i.e. the same letter as the one that appeared 2 letters ago.),P,None,,,,,,,,,0,10,10,10,0,2,2,2,,,,,,,,,,,,,,,,,,,,,,,,,,,,,,,,,,,,,,,,,,,,,,,,,,,,,,,,,,,,,,,,,,,,,1.196,710.0624326,None,None,1,710.0624326,None,,P054,FENCOG,2,Post,2022_Jun_22_1158,N-Back (New Version 2021),2021.1.4,119.9423317
,,,,Conditions/Version_1/twoback(3)_v1.xlsx,New rule: Press 'space' when you see 2-back (i.e. the same letter as the one that appeared 2 letters ago.),z,None,,,,,,,,,0,10,10,10,0,3,3,3,,,,,,,,,,,,,,,,,,,,,,,,,,,,,,,,,,,,,,,,,,,,,,,,,,,,,,,,,,,,,,,,,,,,,1.7664,713.8296032,None,None,1,713.8296032,None,,P054,FENCOG,2,Post,2022_Jun_22_1158,N-Back (New Version 2021),2021.1.4,119.9423317
,,,,Conditions/Version_1/twoback(3)_v1.xlsx,New rule: Press 'space' when you see 2-back (i.e. the same letter as the one that appeared 2 letters ago.),X,None,,,,,,,,,0,10,10,10,0,4,4,4,,,,,,,,,,,,,,,,,,,,,,,,,,,,,,,,,,,,,,,,,,,,,,,,,,,,,,,,,,,,,,,,,,,,,1.5494,717.3853098,None,None,1,717.3853098,None,,P054,FENCOG,2,Post,2022_Jun_22_1158,N-Back (New Version 2021),2021.1.4,119.9423317
,,,,Conditions/Version_1/twoback(3)_v1.xlsx,New rule: Press 'space' when you see 2-back (i.e. the same letter as the one that appeared 2 letters ago.),z,space,,,,,,,,,0,10,10,10,0,5,5,5,,,,,,,,,,,,,,,,,,,,,,,,,,,,,,,,,,,,,,,,,,,,,,,,,,,,,,,,,,,,,,,,,,,,,1.072,720.4600614,None,space,1,720.4600614,None,0.3704242,P054,FENCOG,2,Post,2022_Jun_22_1158,N-Back (New Version 2021),2021.1.4,119.9423317
,,,,Conditions/Version_1/twoback(3)_v1.xlsx,New rule: Press 'space' when you see 2-back (i.e. the same letter as the one that appeared 2 letters ago.),x,space,,,,,,,,,0,10,10,10,0,6,6,6,,,,,,,,,,,,,,,,,,,,,,,,,,,,,,,,,,,,,,,,,,,,,,,,,,,,,,,,,,,,,,,,,,,,,1.4626,723.9354912,None,space,1,723.9354912,None,0.3349776,P054,FENCOG,2,Post,2022_Jun_22_1158,N-Back (New Version 2021),2021.1.4,119.9423317
,,,,Conditions/Version_1/twoback(3)_v1.xlsx,New rule: Press 'space' when you see 2-back (i.e. the same letter as the one that appeared 2 letters ago.),c,None,,,,,,,,,0,10,10,10,0,7,7,7,,,,,,,,,,,,,,,,,,,,,,,,,,,,,,,,,,,,,,,,,,,,,,,,,,,,,,,,,,,,,,,,,,,,,1.7726,727.7176576,None,None,1,727.7176576,None,,P054,FENCOG,2,Post,2022_Jun_22_1158,N-Back (New Version 2021),2021.1.4,119.9423317
,,,,Conditions/Version_1/twoback(3)_v1.xlsx,New rule: Press 'space' when you see 2-back (i.e. the same letter as the one that appeared 2 letters ago.),i,None,,,,,,,,,0,10,10,10,0,8,8,8,,,,,,,,,,,,,,,,,,,,,,,,,,,,,,,,,,,,,,,,,,,,,,,,,,,,,,,,,,,,,,,,,,,,,1.227,730.9562511,None,None,1,730.9562511,None,,P054,FENCOG,2,Post,2022_Jun_22_1158,N-Back (New Version 2021),2021.1.4,119.9423317
,,,,Conditions/Version_1/twoback(3)_v1.xlsx,New rule: Press 'space' when you see 2-back (i.e. the same letter as the one that appeared 2 letters ago.),C,space,,,,,,,,,0,10,10,10,0,9,9,9,,,,,,,,,,,,,,,,,,,,,,,,,,,,,,,,,,,,,,,,,,,,,,,,,,,,,,,,,,,,,,,,,,,,,1.2952,734.257628,None,space,1,734.257628,None,0.3649964,P054,FENCOG,2,Post,2022_Jun_22_1158,N-Back (New Version 2021),2021.1.4,119.9423317
,,,,Conditions/Version_1/twoback(3)_v1.xlsx,New rule: Press 'space' when you see 2-back (i.e. the same letter as the one that appeared 2 letters ago.),,,,,,,,,,,0,10,10,10,,,,,,,,,,,,,,,,,,,,,,,,,,,,,,,,,,,,,,,,,,,,,,,,,,,,,,,,,,,,,,,,,,,,,,,,,,,,,,,,,P054,FENCOG,2,Post,2022_Jun_22_1158,N-Back (New Version 2021),2021.1.4,119.9423317
,,,,Conditions/Version_1/oneback(3)_v1.xlsx,New rule: Press 'space' when you see 1-back (i.e. the same letter as the one that appeared 1 letter ago.),o,None,,,,,,,,,0,11,11,11,0,0,0,0,,,,,,,,,,,,,,,,,,,,,,,,,,,,,,,,,,,,,,,,,,,,,,,,,,,,,,,,,,,736.2862524,None,739.2738048,None,space,0.2207151,739.2738048,None,736.2862524,None,1.537,741.0653015,None,None,1,741.0653015,None,,P054,FENCOG,2,Post,2022_Jun_22_1158,N-Back (New Version 2021),2021.1.4,119.9423317
,,,,Conditions/Version_1/oneback(3)_v1.xlsx,New rule: Press 'space' when you see 1-back (i.e. the same letter as the one that appeared 1 letter ago.),O,space,,,,,,,,,0,11,11,11,0,1,1,1,,,,,,,,,,,,,,,,,,,,,,,,,,,,,,,,,,,,,,,,,,,,,,,,,,,,,,,,,,,,,,,,,,,,,1.2084,744.2772832,None,space,1,744.2772832,None,0.3290853,P054,FENCOG,2,Post,2022_Jun_22_1158,N-Back (New Version 2021),2021.1.4,119.9423317
,,,,Conditions/Version_1/oneback(3)_v1.xlsx,New rule: Press 'space' when you see 1-back (i.e. the same letter as the one that appeared 1 letter ago.),h,None,,,,,,,,,0,11,11,11,0,2,2,2,,,,,,,,,,,,,,,,,,,,,,,,,,,,,,,,,,,,,,,,,,,,,,,,,,,,,,,,,,,,,,,,,,,,,1.7168,747.9938379,None,None,1,747.9938379,None,,P054,FENCOG,2,Post,2022_Jun_22_1158,N-Back (New Version 2021),2021.1.4,119.9423317
,,,,Conditions/Version_1/oneback(3)_v1.xlsx,New rule: Press 'space' when you see 1-back (i.e. the same letter as the one that appeared 1 letter ago.),g,None,,,,,,,,,0,11,11,11,0,3,3,3,,,,,,,,,,,,,,,,,,,,,,,,,,,,,,,,,,,,,,,,,,,,,,,,,,,,,,,,,,,,,,,,,,,,,1.444,751.4501704,None,None,1,751.4501704,None,,P054,FENCOG,2,Post,2022_Jun_22_1158,N-Back (New Version 2021),2021.1.4,119.9423317
,,,,Conditions/Version_1/oneback(3)_v1.xlsx,New rule: Press 'space' when you see 1-back (i.e. the same letter as the one that appeared 1 letter ago.),n,None,,,,,,,,,0,11,11,11,0,4,4,4,,,,,,,,,,,,,,,,,,,,,,,,,,,,,,,,,,,,,,,,,,,,,,,,,,,,,,,,,,,,,,,,,,,,,1.072,754.5264247,None,None,1,754.5264247,None,,P054,FENCOG,2,Post,2022_Jun_22_1158,N-Back (New Version 2021),2021.1.4,119.9423317
,,,,Conditions/Version_1/oneback(3)_v1.xlsx,New rule: Press 'space' when you see 1-back (i.e. the same letter as the one that appeared 1 letter ago.),z,None,,,,,,,,,0,11,11,11,0,5,5,5,,,,,,,,,,,,,,,,,,,,,,,,,,,,,,,,,,,,,,,,,,,,,,,,,,,,,,,,,,,,,,,,,,,,,1.3262,757.866119,None,None,1,757.866119,None,,P054,FENCOG,2,Post,2022_Jun_22_1158,N-Back (New Version 2021),2021.1.4,119.9423317
,,,,Conditions/Version_1/oneback(3)_v1.xlsx,New rule: Press 'space' when you see 1-back (i.e. the same letter as the one that appeared 1 letter ago.),X,None,,,,,,,,,0,11,11,11,0,6,6,6,,,,,,,,,,,,,,,,,,,,,,,,,,,,,,,,,,,,,,,,,,,,,,,,,,,,,,,,,,,,,,,,,,,,,1.2518,761.130757,None,None,1,761.130757,None,,P054,FENCOG,2,Post,2022_Jun_22_1158,N-Back (New Version 2021),2021.1.4,119.9423317
,,,,Conditions/Version_1/oneback(3)_v1.xlsx,New rule: Press 'space' when you see 1-back (i.e. the same letter as the one that appeared 1 letter ago.),r,None,,,,,,,,,0,11,11,11,0,7,7,7,,,,,,,,,,,,,,,,,,,,,,,,,,,,,,,,,,,,,,,,,,,,,,,,,,,,,,,,,,,,,,,,,,,,,1.7478,764.8795994,None,None,1,764.8795994,None,,P054,FENCOG,2,Post,2022_Jun_22_1158,N-Back (New Version 2021),2021.1.4,119.9423317
,,,,Conditions/Version_1/oneback(3)_v1.xlsx,New rule: Press 'space' when you see 1-back (i.e. the same letter as the one that appeared 1 letter ago.),r,space,,,,,,,,,0,11,11,11,0,8,8,8,,,,,,,,,,,,,,,,,,,,,,,,,,,,,,,,,,,,,,,,,,,,,,,,,,,,,,,,,,,,,,,,,,,,,1.01,767.8953124,None,space,1,767.8953124,None,0.655174,P054,FENCOG,2,Post,2022_Jun_22_1158,N-Back (New Version 2021),2021.1.4,119.9423317
,,,,Conditions/Version_1/oneback(3)_v1.xlsx,New rule: Press 'space' when you see 1-back (i.e. the same letter as the one that appeared 1 letter ago.),P,None,,,,,,,,,0,11,11,11,0,9,9,9,,,,,,,,,,,,,,,,,,,,,,,,,,,,,,,,,,,,,,,,,,,,,,,,,,,,,,,,,,,,,,,,,,,,,1.7292,771.6356817,None,None,1,771.6356817,None,,P054,FENCOG,2,Post,2022_Jun_22_1158,N-Back (New Version 2021),2021.1.4,119.9423317
,,,,Conditions/Version_1/oneback(3)_v1.xlsx,New rule: Press 'space' when you see 1-back (i.e. the same letter as the one that appeared 1 letter ago.),,,,,,,,,,,0,11,11,11,,,,,,,,,,,,,,,,,,,,,,,,,,,,,,,,,,,,,,,,,,,,,,,,,,,,,,,,,,,,,,,,,,,,,,,,,,,,,,,,,P054,FENCOG,2,Post,2022_Jun_22_1158,N-Back (New Version 2021),2021.1.4,119.9423317
,,,,Conditions/Version_1/twoback(4)_v1.xlsx,New rule: Press 'space' when you see 2-back (i.e. the same letter as the one that appeared 2 letters ago.),r,None,,,,,,,,,0,12,12,12,0,0,0,0,,,,,,,,,,,,,,,,,,,,,,,,,,,,,,,,,,,,,,,,,,,,,,,,,,,,,,,,,,,773.6942553,None,776.6779497,None,space,2.3926385,776.6779497,None,773.6942553,None,1.4874,780.5927328,None,None,1,780.5927328,None,,P054,FENCOG,2,Post,2022_Jun_22_1158,N-Back (New Version 2021),2021.1.4,119.9423317
,,,,Conditions/Version_1/twoback(4)_v1.xlsx,New rule: Press 'space' when you see 2-back (i.e. the same letter as the one that appeared 2 letters ago.),T,None,,,,,,,,,0,12,12,12,0,1,1,1,,,,,,,,,,,,,,,,,,,,,,,,,,,,,,,,,,,,,,,,,,,,,,,,,,,,,,,,,,,,,,,,,,,,,1.5618,784.166541,None,None,1,784.166541,None,,P054,FENCOG,2,Post,2022_Jun_22_1158,N-Back (New Version 2021),2021.1.4,119.9423317
,,,,Conditions/Version_1/twoback(4)_v1.xlsx,New rule: Press 'space' when you see 2-back (i.e. the same letter as the one that appeared 2 letters ago.),o,None,,,,,,,,,0,12,12,12,0,2,2,2,,,,,,,,,,,,,,,,,,,,,,,,,,,,,,,,,,,,,,,,,,,,,,,,,,,,,,,,,,,,,,,,,,,,,1.4688,787.6487251,None,None,1,787.6487251,None,,P054,FENCOG,2,Post,2022_Jun_22_1158,N-Back (New Version 2021),2021.1.4,119.9423317
,,,,Conditions/Version_1/twoback(4)_v1.xlsx,New rule: Press 'space' when you see 2-back (i.e. the same letter as the one that appeared 2 letters ago.),p,None,,,,,,,,,0,12,12,12,0,3,3,3,,,,,,,,,,,,,,,,,,,,,,,,,,,,,,,,,,,,,,,,,,,,,,,,,,,,,,,,,,,,,,,,,,,,,1.351,791.0134656,None,None,1,791.0134656,None,,P054,FENCOG,2,Post,2022_Jun_22_1158,N-Back (New Version 2021),2021.1.4,119.9423317
,,,,Conditions/Version_1/twoback(4)_v1.xlsx,New rule: Press 'space' when you see 2-back (i.e. the same letter as the one that appeared 2 letters ago.),p,None,,,,,,,,,0,12,12,12,0,4,4,4,,,,,,,,,,,,,,,,,,,,,,,,,,,,,,,,,,,,,,,,,,,,,,,,,,,,,,,,,,,,,,,,,,,,,1.7726,794.7875384,None,None,1,794.7875384,None,,P054,FENCOG,2,Post,2022_Jun_22_1158,N-Back (New Version 2021),2021.1.4,119.9423317
,,,,Conditions/Version_1/twoback(4)_v1.xlsx,New rule: Press 'space' when you see 2-back (i.e. the same letter as the one that appeared 2 letters ago.),y,None,,,,,,,,,0,12,12,12,0,5,5,5,,,,,,,,,,,,,,,,,,,,,,,,,,,,,,,,,,,,,,,,,,,,,,,,,,,,,,,,,,,,,,,,,,,,,1.6362,798.4284884,None,None,1,798.4284884,None,,P054,FENCOG,2,Post,2022_Jun_22_1158,N-Back (New Version 2021),2021.1.4,119.9423317
,,,,Conditions/Version_1/twoback(4)_v1.xlsx,New rule: Press 'space' when you see 2-back (i.e. the same letter as the one that appeared 2 letters ago.),P,space,,,,,,,,,0,12,12,12,0,6,6,6,,,,,,,,,,,,,,,,,,,,,,,,,,,,,,,,,,,,,,,,,,,,,,,,,,,,,,,,,,,,,,,,,,,,,1.5432,801.9770021,None,space,1,801.9770021,None,0.6851928,P054,FENCOG,2,Post,2022_Jun_22_1158,N-Back (New Version 2021),2021.1.4,119.9423317
,,,,Conditions/Version_1/twoback(4)_v1.xlsx,New rule: Press 'space' when you see 2-back (i.e. the same letter as the one that appeared 2 letters ago.),y,None,,,,,,,,,0,12,12,12,0,7,7,7,,,,,,,,,,,,,,,,,,,,,,,,,,,,,,,,,,,,,,,,,,,,,,,,,,,,,,,,,,,,,,,,,,,,,1.6052,805.5843334,None,space,0,805.5843334,None,0.5101838,P054,FENCOG,2,Post,2022_Jun_22_1158,N-Back (New Version 2021),2021.1.4,119.9423317
,,,,Conditions/Version_1/twoback(4)_v1.xlsx,New rule: Press 'space' when you see 2-back (i.e. the same letter as the one that appeared 2 letters ago.),y,space,,,,,,,,,0,12,12,12,0,8,8,8,,,,,,,,,,,,,,,,,,,,,,,,,,,,,,,,,,,,,,,,,,,,,,,,,,,,,,,,,,,,,,,,,,,,,1.7354,809.324951,None,None,0,809.324951,None,,P054,FENCOG,2,Post,2022_Jun_22_1158,N-Back (New Version 2021),2021.1.4,119.9423317
,,,,Conditions/Version_1/twoback(4)_v1.xlsx,New rule: Press 'space' when you see 2-back (i.e. the same letter as the one that appeared 2 letters ago.),,,,,,,,,,,0,12,12,12,,,,,,,,,,,,,,,,,,,,,,,,,,,,,,,,,,,,,,,,,,,,,,,,,,,,,,,,,,,,,,,,,,,,,,,,,,,,,,,,,P054,FENCOG,2,Post,2022_Jun_22_1158,N-Back (New Version 2021),2021.1.4,119.9423317
,,,,Conditions/Version_1/zeroback(4)_v1.xlsx,New rule: Press 'space' when you see the letter 'x' or 'X'.,o,None,,,,,,,,,0,13,13,13,0,0,0,0,,,,,,,,,,,,,,,,,,,,,,,,,,,,,,,,,,,,,,,,,,,,,,,,,,,,,,,,,,,811.3435158,None,814.3252836,None,space,0.2651603,814.3252836,None,811.3435158,None,1.8532,816.4828469,None,None,1,816.4828469,None,,P054,FENCOG,2,Post,2022_Jun_22_1158,N-Back (New Version 2021),2021.1.4,119.9423317
,,,,Conditions/Version_1/zeroback(4)_v1.xlsx,New rule: Press 'space' when you see the letter 'x' or 'X'.,X,space,,,,,,,,,0,13,13,13,0,1,1,1,,,,,,,,,,,,,,,,,,,,,,,,,,,,,,,,,,,,,,,,,,,,,,,,,,,,,,,,,,,,,,,,,,,,,1.4688,819.9634037,None,space,1,819.9634037,None,0.2670066,P054,FENCOG,2,Post,2022_Jun_22_1158,N-Back (New Version 2021),2021.1.4,119.9423317
,,,,Conditions/Version_1/zeroback(4)_v1.xlsx,New rule: Press 'space' when you see the letter 'x' or 'X'.,p,None,,,,,,,,,0,13,13,13,0,2,2,2,,,,,,,,,,,,,,,,,,,,,,,,,,,,,,,,,,,,,,,,,,,,,,,,,,,,,,,,,,,,,,,,,,,,,1.5556,823.5206712,None,None,1,823.5206712,None,,P054,FENCOG,2,Post,2022_Jun_22_1158,N-Back (New Version 2021),2021.1.4,119.9423317
,,,,Conditions/Version_1/zeroback(4)_v1.xlsx,New rule: Press 'space' when you see the letter 'x' or 'X'.,m,None,,,,,,,,,0,13,13,13,0,3,3,3,,,,,,,,,,,,,,,,,,,,,,,,,,,,,,,,,,,,,,,,,,,,,,,,,,,,,,,,,,,,,,,,,,,,,1.9524,827.4786999,None,None,1,827.4786999,None,,P054,FENCOG,2,Post,2022_Jun_22_1158,N-Back (New Version 2021),2021.1.4,119.9423317
,,,,Conditions/Version_1/zeroback(4)_v1.xlsx,New rule: Press 'space' when you see the letter 'x' or 'X'.,n,None,,,,,,,,,0,13,13,13,0,4,4,4,,,,,,,,,,,,,,,,,,,,,,,,,,,,,,,,,,,,,,,,,,,,,,,,,,,,,,,,,,,,,,,,,,,,,1.8842,831.3763549,None,None,1,831.3763549,None,,P054,FENCOG,2,Post,2022_Jun_22_1158,N-Back (New Version 2021),2021.1.4,119.9423317
,,,,Conditions/Version_1/zeroback(4)_v1.xlsx,New rule: Press 'space' when you see the letter 'x' or 'X'.,m,None,,,,,,,,,0,13,13,13,0,5,5,5,,,,,,,,,,,,,,,,,,,,,,,,,,,,,,,,,,,,,,,,,,,,,,,,,,,,,,,,,,,,,,,,,,,,,1.1712,834.5507111,None,None,1,834.5507111,None,,P054,FENCOG,2,Post,2022_Jun_22_1158,N-Back (New Version 2021),2021.1.4,119.9423317
,,,,Conditions/Version_1/zeroback(4)_v1.xlsx,New rule: Press 'space' when you see the letter 'x' or 'X'.,C,None,,,,,,,,,0,13,13,13,0,6,6,6,,,,,,,,,,,,,,,,,,,,,,,,,,,,,,,,,,,,,,,,,,,,,,,,,,,,,,,,,,,,,,,,,,,,,1.475,838.0246948,None,None,1,838.0246948,None,,P054,FENCOG,2,Post,2022_Jun_22_1158,N-Back (New Version 2021),2021.1.4,119.9423317
,,,,Conditions/Version_1/zeroback(4)_v1.xlsx,New rule: Press 'space' when you see the letter 'x' or 'X'.,m,None,,,,,,,,,0,13,13,13,0,7,7,7,,,,,,,,,,,,,,,,,,,,,,,,,,,,,,,,,,,,,,,,,,,,,,,,,,,,,,,,,,,,,,,,,,,,,1.1836,841.2070963,None,None,1,841.2070963,None,,P054,FENCOG,2,Post,2022_Jun_22_1158,N-Back (New Version 2021),2021.1.4,119.9423317
,,,,Conditions/Version_1/zeroback(4)_v1.xlsx,New rule: Press 'space' when you see the letter 'x' or 'X'.,p,None,,,,,,,,,0,13,13,13,0,8,8,8,,,,,,,,,,,,,,,,,,,,,,,,,,,,,,,,,,,,,,,,,,,,,,,,,,,,,,,,,,,,,,,,,,,,,1.413,844.6240335,None,None,1,844.6240335,None,,P054,FENCOG,2,Post,2022_Jun_22_1158,N-Back (New Version 2021),2021.1.4,119.9423317
,,,,Conditions/Version_1/zeroback(4)_v1.xlsx,New rule: Press 'space' when you see the letter 'x' or 'X'.,X,space,,,,,,,,,0,13,13,13,0,9,9,9,,,,,,,,,,,,,,,,,,,,,,,,,,,,,,,,,,,,,,,,,,,,,,,,,,,,,,,,,,,,,,,,,,,,,1.3634,847.9976563,None,space,1,847.9976563,None,0.4008023,P054,FENCOG,2,Post,2022_Jun_22_1158,N-Back (New Version 2021),2021.1.4,119.9423317
,,,,Conditions/Version_1/zeroback(4)_v1.xlsx,New rule: Press 'space' when you see the letter 'x' or 'X'.,,,,,,,,,,,0,13,13,13,,,,,,,,,,,,,,,,,,,,,,,,,,,,,,,,,,,,,,,,,,,,,,,,,,,,,,,,,,,,,,,,,,,,,,,,,,,,,,,,,P054,FENCOG,2,Post,2022_Jun_22_1158,N-Back (New Version 2021),2021.1.4,119.9423317
,,,,Conditions/Version_1/oneback(4)_v1.xlsx,New rule: Press 'space' when you see 1-back (i.e. the same letter as the one that appeared 1 letter ago.),w,None,,,,,,,,,0,14,14,14,0,0,0,0,,,,,,,,,,,,,,,,,,,,,,,,,,,,,,,,,,,,,,,,,,,,,,,,,,,,,,,,,,,850.0284586,None,853.0141187,None,space,0.3362426,853.0141187,None,850.0284586,None,1.4874,854.8791657,None,None,1,854.8791657,None,,P054,FENCOG,2,Post,2022_Jun_22_1158,N-Back (New Version 2021),2021.1.4,119.9423317
,,,,Conditions/Version_1/oneback(4)_v1.xlsx,New rule: Press 'space' when you see 1-back (i.e. the same letter as the one that appeared 1 letter ago.),q,None,,,,,,,,,0,14,14,14,0,1,1,1,,,,,,,,,,,,,,,,,,,,,,,,,,,,,,,,,,,,,,,,,,,,,,,,,,,,,,,,,,,,,,,,,,,,,1.7478,858.6353129,None,None,1,858.6353129,None,,P054,FENCOG,2,Post,2022_Jun_22_1158,N-Back (New Version 2021),2021.1.4,119.9423317
,,,,Conditions/Version_1/oneback(4)_v1.xlsx,New rule: Press 'space' when you see 1-back (i.e. the same letter as the one that appeared 1 letter ago.),i,None,,,,,,,,,0,14,14,14,0,2,2,2,,,,,,,,,,,,,,,,,,,,,,,,,,,,,,,,,,,,,,,,,,,,,,,,,,,,,,,,,,,,,,,,,,,,,1.5866,862.2269555,None,None,1,862.2269555,None,,P054,FENCOG,2,Post,2022_Jun_22_1158,N-Back (New Version 2021),2021.1.4,119.9423317
,,,,Conditions/Version_1/oneback(4)_v1.xlsx,New rule: Press 'space' when you see 1-back (i.e. the same letter as the one that appeared 1 letter ago.),t,None,,,,,,,,,0,14,14,14,0,3,3,3,,,,,,,,,,,,,,,,,,,,,,,,,,,,,,,,,,,,,,,,,,,,,,,,,,,,,,,,,,,,,,,,,,,,,1.6424,865.8851059,None,None,1,865.8851059,None,,P054,FENCOG,2,Post,2022_Jun_22_1158,N-Back (New Version 2021),2021.1.4,119.9423317
,,,,Conditions/Version_1/oneback(4)_v1.xlsx,New rule: Press 'space' when you see 1-back (i.e. the same letter as the one that appeared 1 letter ago.),v,None,,,,,,,,,0,14,14,14,0,4,4,4,,,,,,,,,,,,,,,,,,,,,,,,,,,,,,,,,,,,,,,,,,,,,,,,,,,,,,,,,,,,,,,,,,,,,1.6486,869.5431019,None,None,1,869.5431019,None,,P054,FENCOG,2,Post,2022_Jun_22_1158,N-Back (New Version 2021),2021.1.4,119.9423317
,,,,Conditions/Version_1/oneback(4)_v1.xlsx,New rule: Press 'space' when you see 1-back (i.e. the same letter as the one that appeared 1 letter ago.),V,space,,,,,,,,,0,14,14,14,0,5,5,5,,,,,,,,,,,,,,,,,,,,,,,,,,,,,,,,,,,,,,,,,,,,,,,,,,,,,,,,,,,,,,,,,,,,,1.5804,873.1325347,None,space,1,873.1325347,None,0.3857274,P054,FENCOG,2,Post,2022_Jun_22_1158,N-Back (New Version 2021),2021.1.4,119.9423317
,,,,Conditions/Version_1/oneback(4)_v1.xlsx,New rule: Press 'space' when you see 1-back (i.e. the same letter as the one that appeared 1 letter ago.),v,space,,,,,,,,,0,14,14,14,0,6,6,6,,,,,,,,,,,,,,,,,,,,,,,,,,,,,,,,,,,,,,,,,,,,,,,,,,,,,,,,,,,,,,,,,,,,,1.103,876.2466411,None,space,1,876.2466411,None,0.5198363,P054,FENCOG,2,Post,2022_Jun_22_1158,N-Back (New Version 2021),2021.1.4,119.9423317
,,,,Conditions/Version_1/oneback(4)_v1.xlsx,New rule: Press 'space' when you see 1-back (i.e. the same letter as the one that appeared 1 letter ago.),p,None,,,,,,,,,0,14,14,14,0,7,7,7,,,,,,,,,,,,,,,,,,,,,,,,,,,,,,,,,,,,,,,,,,,,,,,,,,,,,,,,,,,,,,,,,,,,,1.4316,879.6790143,None,None,1,879.6790143,None,,P054,FENCOG,2,Post,2022_Jun_22_1158,N-Back (New Version 2021),2021.1.4,119.9423317
,,,,Conditions/Version_1/oneback(4)_v1.xlsx,New rule: Press 'space' when you see 1-back (i.e. the same letter as the one that appeared 1 letter ago.),w,None,,,,,,,,,0,14,14,14,0,8,8,8,,,,,,,,,,,,,,,,,,,,,,,,,,,,,,,,,,,,,,,,,,,,,,,,,,,,,,,,,,,,,,,,,,,,,1.5618,883.2475227,None,None,1,883.2475227,None,,P054,FENCOG,2,Post,2022_Jun_22_1158,N-Back (New Version 2021),2021.1.4,119.9423317
,,,,Conditions/Version_1/oneback(4)_v1.xlsx,New rule: Press 'space' when you see 1-back (i.e. the same letter as the one that appeared 1 letter ago.),W,space,,,,,,,,,0,14,14,14,0,9,9,9,,,,,,,,,,,,,,,,,,,,,,,,,,,,,,,,,,,,,,,,,,,,,,,,,,,,,,,,,,,,,,,,,,,,,1.0348,886.2956214,None,space,1,886.2956214,None,0.3269308,P054,FENCOG,2,Post,2022_Jun_22_1158,N-Back (New Version 2021),2021.1.4,119.9423317
,,,,Conditions/Version_1/oneback(4)_v1.xlsx,New rule: Press 'space' when you see 1-back (i.e. the same letter as the one that appeared 1 letter ago.),,,,,,,,,,,0,14,14,14,,,,,,,,,,,,,,,,,,,,,,,,,,,,,,,,,,,,,,,,,,,,,,,,,,,,,,,,,,,,,,,,,,,,,,,,,,,,,,,,,P054,FENCOG,2,Post,2022_Jun_22_1158,N-Back (New Version 2021),2021.1.4,119.9423317
,,,,Conditions/Version_1/threeback(4)_v1.xlsx,New rule: Press 'space' when you see 3-back (i.e. the same letter as the one that appeared 3 letters ago.),A,None,,,,,,,,,0,15,15,15,0,0,0,0,,,,,,,,,,,,,,,,,,,,,,,,,,,,,,,,,,,,,,,,,,,,,,,,,,,,,,,,,,,888.3265588,None,891.3123246,None,space,3.1661497,891.3123246,None,888.3265588,None,1.1092,895.6281299,None,None,1,895.6281299,None,,P054,FENCOG,2,Post,2022_Jun_22_1158,N-Back (New Version 2021),2021.1.4,119.9423317
,,,,Conditions/Version_1/threeback(4)_v1.xlsx,New rule: Press 'space' when you see 3-back (i.e. the same letter as the one that appeared 3 letters ago.),n,None,,,,,,,,,0,15,15,15,0,1,1,1,,,,,,,,,,,,,,,,,,,,,,,,,,,,,,,,,,,,,,,,,,,,,,,,,,,,,,,,,,,,,,,,,,,,,1.6982,899.3324448,None,None,1,899.3324448,None,,P054,FENCOG,2,Post,2022_Jun_22_1158,N-Back (New Version 2021),2021.1.4,119.9423317
,,,,Conditions/Version_1/threeback(4)_v1.xlsx,New rule: Press 'space' when you see 3-back (i.e. the same letter as the one that appeared 3 letters ago.),g,None,,,,,,,,,0,15,15,15,0,2,2,2,,,,,,,,,,,,,,,,,,,,,,,,,,,,,,,,,,,,,,,,,,,,,,,,,,,,,,,,,,,,,,,,,,,,,1.5122,902.8586462,None,None,1,902.8586462,None,,P054,FENCOG,2,Post,2022_Jun_22_1158,N-Back (New Version 2021),2021.1.4,119.9423317
,,,,Conditions/Version_1/threeback(4)_v1.xlsx,New rule: Press 'space' when you see 3-back (i.e. the same letter as the one that appeared 3 letters ago.),A,space,,,,,,,,,0,15,15,15,0,3,3,3,,,,,,,,,,,,,,,,,,,,,,,,,,,,,,,,,,,,,,,,,,,,,,,,,,,,,,,,,,,,,,,,,,,,,1.5556,906.4210257,None,space,1,906.4210257,None,0.6094312,P054,FENCOG,2,Post,2022_Jun_22_1158,N-Back (New Version 2021),2021.1.4,119.9423317
,,,,Conditions/Version_1/threeback(4)_v1.xlsx,New rule: Press 'space' when you see 3-back (i.e. the same letter as the one that appeared 3 letters ago.),p,None,,,,,,,,,0,15,15,15,0,4,4,4,,,,,,,,,,,,,,,,,,,,,,,,,,,,,,,,,,,,,,,,,,,,,,,,,,,,,,,,,,,,,,,,,,,,,1.7044,910.1282612,None,None,1,910.1282612,None,,P054,FENCOG,2,Post,2022_Jun_22_1158,N-Back (New Version 2021),2021.1.4,119.9423317
,,,,Conditions/Version_1/threeback(4)_v1.xlsx,New rule: Press 'space' when you see 3-back (i.e. the same letter as the one that appeared 3 letters ago.),O,None,,,,,,,,,0,15,15,15,0,5,5,5,,,,,,,,,,,,,,,,,,,,,,,,,,,,,,,,,,,,,,,,,,,,,,,,,,,,,,,,,,,,,,,,,,,,,1.878,914.0105195,None,None,1,914.0105195,None,,P054,FENCOG,2,Post,2022_Jun_22_1158,N-Back (New Version 2021),2021.1.4,119.9423317
,,,,Conditions/Version_1/threeback(4)_v1.xlsx,New rule: Press 'space' when you see 3-back (i.e. the same letter as the one that appeared 3 letters ago.),a,space,,,,,,,,,0,15,15,15,0,6,6,6,,,,,,,,,,,,,,,,,,,,,,,,,,,,,,,,,,,,,,,,,,,,,,,,,,,,,,,,,,,,,,,,,,,,,1.6424,917.6616918,None,space,1,917.6616918,None,0.400728,P054,FENCOG,2,Post,2022_Jun_22_1158,N-Back (New Version 2021),2021.1.4,119.9423317
,,,,Conditions/Version_1/threeback(4)_v1.xlsx,New rule: Press 'space' when you see 3-back (i.e. the same letter as the one that appeared 3 letters ago.),p,space,,,,,,,,,0,15,15,15,0,7,7,7,,,,,,,,,,,,,,,,,,,,,,,,,,,,,,,,,,,,,,,,,,,,,,,,,,,,,,,,,,,,,,,,,,,,,1.0968,920.7695989,None,space,1,920.7695989,None,0.3165917,P054,FENCOG,2,Post,2022_Jun_22_1158,N-Back (New Version 2021),2021.1.4,119.9423317
,,,,Conditions/Version_1/threeback(4)_v1.xlsx,New rule: Press 'space' when you see 3-back (i.e. the same letter as the one that appeared 3 letters ago.),x,None,,,,,,,,,0,15,15,15,0,8,8,8,,,,,,,,,,,,,,,,,,,,,,,,,,,,,,,,,,,,,,,,,,,,,,,,,,,,,,,,,,,,,,,,,,,,,1.0782,923.8575905,None,None,1,923.8575905,None,,P054,FENCOG,2,Post,2022_Jun_22_1158,N-Back (New Version 2021),2021.1.4,119.9423317
,,,,Conditions/Version_1/threeback(4)_v1.xlsx,New rule: Press 'space' when you see 3-back (i.e. the same letter as the one that appeared 3 letters ago.),X,None,,,,,,,,,0,15,15,15,0,9,9,9,,,,,,,,,,,,,,,,,,,,,,,,,,,,,,,,,,,,,,,,,,,,,,,,,,,,,,,,,,,,,,,,,,,,,1.5928,927.4565935,None,space,0,927.4565935,None,0.581672,P054,FENCOG,2,Post,2022_Jun_22_1158,N-Back (New Version 2021),2021.1.4,119.9423317
,,,,Conditions/Version_1/threeback(4)_v1.xlsx,New rule: Press 'space' when you see 3-back (i.e. the same letter as the one that appeared 3 letters ago.),,,,,,,,,,,0,15,15,15,,,,,,,,,,,,,,,,,,,,,,,,,,,,,,,,,,,,,,,,,,,,,,,,,,,,,,,,,,,,,,,,,,,,,,,,,,,,,,,,,P054,FENCOG,2,Post,2022_Jun_22_1158,N-Back (New Version 2021),2021.1.4,119.9423317
